event_time_s,trial_type,session_idx,trial_idx,RT_s,ACC,session_type
1635111356.0,stimulus,1,1,,,PracticeSession
1635111356.5,fixation,1,1,,,PracticeSession
1635111358.0,stimulus,1,2,,,PracticeSession
1635111358.5,fixation,1,2,,,PracticeSession
1635111360.0,stimulus,1,3,,,PracticeSession
1635111360.5,fixation,1,3,,,PracticeSession
1635111362.0,stimulus,1,4,,,PracticeSession
1635111362.5,fixation,1,4,,,PracticeSession
1635111364.0,stimulus,1,5,,,PracticeSession
1635111364.5,fixation,1,5,,,PracticeSession
1635111366.0,stimulus,1,6,,,PracticeSession
1635111366.5,fixation,1,6,,,PracticeSession
1635111368.0,stimulus,1,7,,,PracticeSession
1635111368.5,fixation,1,7,,,PracticeSession
1635111370.0,stimulus,1,8,,,PracticeSession
1635111370.5,fixation,1,8,,,PracticeSession
1635111372.0,stimulus,1,9,,,PracticeSession
1635111372.5,fixation,1,9,,,PracticeSession
1635111374.0,stimulus,1,10,,,PracticeSession
1635111374.5,fixation,1,10,,,PracticeSession
1635111376.0,stimulus,1,11,,,PracticeSession
1635111376.5,fixation,1,11,,,PracticeSession
1635111378.0,stimulus,1,12,,,PracticeSession
1635111378.5,fixation,1,12,,,PracticeSession
1635111380.0,stimulus,1,13,,,PracticeSession
1635111380.5,fixation,1,13,,,PracticeSession
1635111382.0,stimulus,1,14,,,PracticeSession
1635111382.5,fixation,1,14,,,PracticeSession
1635111384.0,stimulus,1,15,,,PracticeSession
1635111384.5,fixation,1,15,,,PracticeSession
1635111386.0,stimulus,1,16,,,PracticeSession
1635111386.5,fixation,1,16,,,PracticeSession
1635111388.0,stimulus,1,17,,,PracticeSession
1635111388.5,fixation,1,17,,,PracticeSession
1635111390.0,stimulus,1,18,,,PracticeSession
1635111390.5,fixation,1,18,,,PracticeSession
1635111392.0,stimulus,1,19,,,PracticeSession
1635111392.5,fixation,1,19,,,PracticeSession
1635111394.0,stimulus,1,20,,,PracticeSession
1635111394.5,fixation,1,20,,,PracticeSession
1635111396.0,stimulus,1,21,,,PracticeSession
1635111396.5,fixation,1,21,,,PracticeSession
1635111398.0,stimulus,1,22,,,PracticeSession
1635111398.5,fixation,1,22,,,PracticeSession
1635111400.0,stimulus,1,23,,,PracticeSession
1635111400.5,fixation,1,23,,,PracticeSession
1635111402.0,stimulus,1,24,,,PracticeSession
1635111402.5,fixation,1,24,,,PracticeSession
1635111404.0,stimulus,1,25,,,PracticeSession
1635111404.5,fixation,1,25,,,PracticeSession
1635111406.0,stimulus,1,26,,,PracticeSession
1635111406.5,fixation,1,26,,,PracticeSession
1635111408.0,stimulus,1,27,,,PracticeSession
1635111408.5,fixation,1,27,,,PracticeSession
1635111410.0,stimulus,1,28,,,PracticeSession
1635111410.5,fixation,1,28,,,PracticeSession
1635111412.0,stimulus,1,29,,,PracticeSession
1635111412.5,fixation,1,29,,,PracticeSession
1635111414.0,stimulus,1,30,,,PracticeSession
1635111414.5,fixation,1,30,,,PracticeSession
1635111416.0,stimulus,1,31,,,PracticeSession
1635111416.5,fixation,1,31,,,PracticeSession
1635111418.0,stimulus,1,32,,,PracticeSession
1635111418.5,fixation,1,32,,,PracticeSession
1635111420.0,stimulus,1,33,,,PracticeSession
1635111420.5,fixation,1,33,,,PracticeSession
1635111422.0,stimulus,1,34,,,PracticeSession
1635111422.5,fixation,1,34,,,PracticeSession
1635111424.0,stimulus,1,35,,,PracticeSession
1635111424.5,fixation,1,35,,,PracticeSession
1635111426.0,stimulus,1,36,,,PracticeSession
1635111426.5,fixation,1,36,,,PracticeSession
1635111428.0,stimulus,1,37,,,PracticeSession
1635111428.5,fixation,1,37,,,PracticeSession
1635111430.0,stimulus,1,38,,,PracticeSession
1635111430.5,fixation,1,38,,,PracticeSession
1635111432.0,stimulus,1,39,,,PracticeSession
1635111432.5,fixation,1,39,,,PracticeSession
1635111434.0,stimulus,1,40,,,PracticeSession
1635111434.5,fixation,1,40,,,PracticeSession
1635111436.0,stimulus,1,41,,,PracticeSession
1635111436.5,fixation,1,41,,,PracticeSession
1635111438.0,stimulus,1,42,,,PracticeSession
1635111438.5,fixation,1,42,,,PracticeSession
1635111440.0,stimulus,1,43,,,PracticeSession
1635111440.5,fixation,1,43,,,PracticeSession
1635111442.0,stimulus,1,44,,,PracticeSession
1635111442.5,fixation,1,44,,,PracticeSession
1635111444.0,stimulus,1,45,,0.0,NoMusic
1635111445.362,fixation,1,45,0.862,1.0,NoMusic
1635111446.0,stimulus,1,46,,0.0,NoMusic
1635111446.833,fixation,1,46,0.333,1.0,NoMusic
1635111448.0,stimulus,1,47,,0.0,NoMusic
1635111448.598,fixation,1,47,0.098,1.0,NoMusic
1635111450.0,stimulus,1,48,,0.0,NoMusic
1635111450.983,fixation,1,48,0.483,1.0,NoMusic
1635111452.0,stimulus,1,49,,0.0,NoMusic
1635111452.769,fixation,1,49,0.269,1.0,NoMusic
1635111454.0,stimulus,1,50,,0.0,NoMusic
1635111454.691,fixation,1,50,0.191,1.0,NoMusic
1635111456.0,stimulus,1,51,,0.0,NoMusic
1635111456.571,fixation,1,51,0.071,0.0,NoMusic
1635111458.0,stimulus,1,52,,0.0,NoMusic
1635111458.722,fixation,1,52,0.222,0.0,NoMusic
1635111460.0,stimulus,1,53,,0.0,NoMusic
1635111460.625,fixation,1,53,0.125,1.0,NoMusic
1635111462.0,stimulus,1,54,,0.0,NoMusic
1635111462.744,fixation,1,54,0.244,1.0,NoMusic
1635111464.0,stimulus,1,55,,0.0,NoMusic
1635111464.719,fixation,1,55,0.219,1.0,NoMusic
1635111466.0,stimulus,1,56,,0.0,NoMusic
1635111466.707,fixation,1,56,0.207,1.0,NoMusic
1635111468.0,stimulus,1,57,,0.0,NoMusic
1635111468.579,fixation,1,57,0.079,1.0,NoMusic
1635111470.0,stimulus,1,58,,0.0,NoMusic
1635111470.613,fixation,1,58,0.113,1.0,NoMusic
1635111472.0,stimulus,1,59,,0.0,NoMusic
1635111472.619,fixation,1,59,0.119,1.0,NoMusic
1635111474.0,stimulus,1,60,,0.0,NoMusic
1635111474.525,fixation,1,60,0.025,1.0,NoMusic
1635111476.0,stimulus,1,61,,0.0,NoMusic
1635111476.716,fixation,1,61,0.216,1.0,NoMusic
1635111478.0,stimulus,1,62,,0.0,NoMusic
1635111478.59,fixation,1,62,0.09,1.0,NoMusic
1635111480.0,stimulus,1,63,,0.0,NoMusic
1635111480.617,fixation,1,63,0.117,1.0,NoMusic
1635111482.0,stimulus,1,64,,0.0,NoMusic
1635111482.598,fixation,1,64,0.098,1.0,NoMusic
1635111484.0,stimulus,1,65,,0.0,NoMusic
1635111484.595,fixation,1,65,0.095,1.0,NoMusic
1635111486.439,stimulus,1,66,0.439,1.0,NoMusic
1635111486.5,fixation,1,66,,0.0,NoMusic
1635111488.0,stimulus,1,67,,0.0,NoMusic
1635111488.841,fixation,1,67,0.341,1.0,NoMusic
1635111490.0,stimulus,1,68,,0.0,NoMusic
1635111490.705,fixation,1,68,0.205,1.0,NoMusic
1635111492.0,stimulus,1,69,,0.0,NoMusic
1635111493.093,fixation,1,69,0.593,1.0,NoMusic
1635111494.0,stimulus,1,70,,0.0,NoMusic
1635111494.697,fixation,1,70,0.197,1.0,NoMusic
1635111496.0,stimulus,1,71,,0.0,NoMusic
1635111496.836,fixation,1,71,0.336,1.0,NoMusic
1635111498.0,stimulus,1,72,,0.0,NoMusic
1635111498.942,fixation,1,72,0.442,0.0,NoMusic
1635111500.0,stimulus,1,73,,0.0,NoMusic
1635111500.902,fixation,1,73,0.402,0.0,NoMusic
1635111502.0,stimulus,1,74,,0.0,NoMusic
1635111503.441,fixation,1,74,0.941,1.0,NoMusic
1635111504.0,stimulus,1,75,,0.0,NoMusic
1635111505.238,fixation,1,75,0.738,0.0,NoMusic
1635111506.0,stimulus,1,76,,0.0,NoMusic
1635111507.032,fixation,1,76,0.532,1.0,NoMusic
1635111508.0,stimulus,1,77,,0.0,NoMusic
1635111508.837,fixation,1,77,0.337,0.0,NoMusic
1635111510.0,stimulus,1,78,,0.0,NoMusic
1635111510.895,fixation,1,78,0.395,1.0,NoMusic
1635111512.0,stimulus,1,79,,0.0,NoMusic
1635111512.941,fixation,1,79,0.441,0.0,NoMusic
1635111514.0,stimulus,1,80,,0.0,NoMusic
1635111514.798,fixation,1,80,0.298,1.0,NoMusic
1635111516.0,stimulus,1,81,,0.0,NoMusic
1635111516.84,fixation,1,81,0.34,0.0,NoMusic
1635111518.0,stimulus,1,82,,0.0,NoMusic
1635111519.278,fixation,1,82,0.778,1.0,NoMusic
1635111520.0,stimulus,1,83,,0.0,NoMusic
1635111520.817,fixation,1,83,0.317,1.0,NoMusic
1635111522.0,stimulus,1,84,,0.0,NoMusic
1635111523.153,fixation,1,84,0.653,0.0,NoMusic
1635111524.0,stimulus,1,85,,0.0,NoMusic
1635111524.951,fixation,1,85,0.451,1.0,NoMusic
1635111526.0,stimulus,1,86,,0.0,NoMusic
1635111526.871,fixation,1,86,0.371,1.0,NoMusic
1635111528.0,stimulus,1,87,,0.0,NoMusic
1635111528.933,fixation,1,87,0.433,0.0,NoMusic
1635111530.0,stimulus,1,88,,0.0,NoMusic
1635111530.853,fixation,1,88,0.353,1.0,NoMusic
1635111532.0,stimulus,1,89,,0.0,NoMusic
1635111532.855,fixation,1,89,0.355,1.0,NoMusic
1635111534.0,stimulus,1,90,,0.0,NoMusic
1635111534.731,fixation,1,90,0.231,1.0,NoMusic
1635111536.0,stimulus,1,91,,0.0,NoMusic
1635111536.817,fixation,1,91,0.317,1.0,NoMusic
1635111538.0,stimulus,1,92,,0.0,NoMusic
1635111538.67,fixation,1,92,0.17,1.0,NoMusic
1635111540.0,stimulus,1,93,,0.0,NoMusic
1635111540.761,fixation,1,93,0.261,1.0,NoMusic
1635111542.0,stimulus,1,94,,0.0,NoMusic
1635111542.733,fixation,1,94,0.233,1.0,NoMusic
1635111544.0,stimulus,1,95,,0.0,NoMusic
1635111545.421,fixation,1,95,0.921,1.0,NoMusic
1635111546.0,stimulus,1,96,,0.0,NoMusic
1635111547.237,fixation,1,96,0.737,0.0,NoMusic
1635111548.0,stimulus,1,97,,0.0,NoMusic
1635111548.73,fixation,1,97,0.23,1.0,NoMusic
1635111550.0,stimulus,1,98,,0.0,NoMusic
1635111551.237,fixation,1,98,0.737,0.0,NoMusic
1635111552.0,stimulus,1,99,,0.0,NoMusic
1635111552.839,fixation,1,99,0.339,1.0,NoMusic
1635111554.0,stimulus,1,100,,0.0,NoMusic
1635111554.758,fixation,1,100,0.258,0.0,NoMusic
1635111556.0,stimulus,1,101,,0.0,NoMusic
1635111557.133,fixation,1,101,0.633,1.0,NoMusic
1635111558.0,stimulus,1,102,,0.0,NoMusic
1635111558.84,fixation,1,102,0.34,1.0,NoMusic
1635111560.0,stimulus,1,103,,0.0,NoMusic
1635111560.543,fixation,1,103,0.043,1.0,NoMusic
1635111562.0,stimulus,1,104,,0.0,NoMusic
1635111563.261,fixation,1,104,0.761,0.0,NoMusic
1635111564.0,stimulus,1,105,,0.0,NoMusic
1635111564.834,fixation,1,105,0.334,0.0,NoMusic
1635111566.0,stimulus,1,106,,0.0,NoMusic
1635111567.26,fixation,1,106,0.76,1.0,NoMusic
1635111568.0,stimulus,1,107,,0.0,NoMusic
1635111568.922,fixation,1,107,0.422,0.0,NoMusic
1635111570.0,stimulus,1,108,,0.0,NoMusic
1635111570.917,fixation,1,108,0.417,0.0,NoMusic
1635111572.0,stimulus,1,109,,0.0,NoMusic
1635111573.385,fixation,1,109,0.885,0.0,NoMusic
1635111574.0,stimulus,1,110,,0.0,NoMusic
1635111575.218,fixation,1,110,0.718,1.0,NoMusic
1635111576.0,stimulus,1,111,,0.0,NoMusic
1635111576.805,fixation,1,111,0.305,1.0,NoMusic
1635111578.0,stimulus,1,112,,0.0,NoMusic
1635111578.61,fixation,1,112,0.11,1.0,NoMusic
1635111580.0,stimulus,1,113,,0.0,NoMusic
1635111580.787,fixation,1,113,0.287,1.0,NoMusic
1635111582.0,stimulus,1,114,,0.0,NoMusic
1635111582.698,fixation,1,114,0.198,1.0,NoMusic
1635111584.0,stimulus,1,115,,0.0,NoMusic
1635111584.655,fixation,1,115,0.155,1.0,NoMusic
1635111586.0,stimulus,1,116,,0.0,NoMusic
1635111586.905,fixation,1,116,0.405,1.0,NoMusic
1635111588.0,stimulus,1,117,,0.0,NoMusic
1635111588.581,fixation,1,117,0.081,1.0,NoMusic
1635111590.0,stimulus,1,118,,0.0,NoMusic
1635111590.773,fixation,1,118,0.273,1.0,NoMusic
1635111592.0,stimulus,1,119,,0.0,NoMusic
1635111592.731,fixation,1,119,0.231,1.0,NoMusic
1635111594.0,stimulus,1,120,,0.0,NoMusic
1635111594.691,fixation,1,120,0.191,1.0,NoMusic
1635111596.0,stimulus,1,121,,0.0,NoMusic
1635111596.801,fixation,1,121,0.301,1.0,NoMusic
1635111598.0,stimulus,1,122,,0.0,NoMusic
1635111598.731,fixation,1,122,0.231,1.0,NoMusic
1635111600.0,stimulus,1,123,,0.0,NoMusic
1635111600.727,fixation,1,123,0.227,1.0,NoMusic
1635111602.0,stimulus,1,124,,0.0,NoMusic
1635111602.668,fixation,1,124,0.168,1.0,NoMusic
1635111604.0,stimulus,1,125,,0.0,NoMusic
1635111604.729,fixation,1,125,0.229,1.0,NoMusic
1635111606.0,stimulus,1,126,,0.0,NoMusic
1635111606.787,fixation,1,126,0.287,1.0,NoMusic
1635111608.0,stimulus,1,127,,0.0,NoMusic
1635111608.546,fixation,1,127,0.046,1.0,NoMusic
1635111610.0,stimulus,1,128,,0.0,NoMusic
1635111610.649,fixation,1,128,0.149,1.0,NoMusic
1635111612.0,stimulus,1,129,,0.0,NoMusic
1635111612.755,fixation,1,129,0.255,1.0,NoMusic
1635111614.0,stimulus,1,130,,0.0,NoMusic
1635111614.749,fixation,1,130,0.249,1.0,NoMusic
1635111616.0,stimulus,1,131,,0.0,NoMusic
1635111616.81,fixation,1,131,0.31,1.0,NoMusic
1635111618.0,stimulus,1,132,,0.0,NoMusic
1635111618.785,fixation,1,132,0.285,1.0,NoMusic
1635111620.0,stimulus,1,133,,0.0,NoMusic
1635111620.799,fixation,1,133,0.299,1.0,NoMusic
1635111622.0,stimulus,1,134,,0.0,NoMusic
1635111622.686,fixation,1,134,0.186,1.0,NoMusic
1635111624.0,stimulus,1,135,,0.0,NoMusic
1635111624.848,fixation,1,135,0.348,1.0,NoMusic
1635111626.0,stimulus,1,136,,0.0,NoMusic
1635111626.791,fixation,1,136,0.291,1.0,NoMusic
1635111628.0,stimulus,1,137,,0.0,NoMusic
1635111629.202,fixation,1,137,0.702,1.0,NoMusic
1635111630.0,stimulus,1,138,,0.0,NoMusic
1635111631.11,fixation,1,138,0.61,0.0,NoMusic
1635111632.0,stimulus,1,139,,0.0,NoMusic
1635111633.299,fixation,1,139,0.799,1.0,NoMusic
1635111634.0,stimulus,1,140,,0.0,NoMusic
1635111634.991,fixation,1,140,0.491,1.0,NoMusic
1635111636.0,stimulus,1,141,,0.0,NoMusic
1635111637.019,fixation,1,141,0.519,0.0,NoMusic
1635111638.0,stimulus,1,142,,0.0,NoMusic
1635111639.741,fixation,1,142,1.241,1.0,NoMusic
1635111640.0,stimulus,1,143,,0.0,NoMusic
1635111641.004,fixation,1,143,0.504,0.0,NoMusic
1635111642.0,stimulus,1,144,,0.0,NoMusic
1635111642.958,fixation,1,144,0.458,1.0,NoMusic
1635111644.0,stimulus,1,145,,0.0,NoMusic
1635111645.599,fixation,1,145,1.099,1.0,NoMusic
1635111646.0,stimulus,1,146,,0.0,NoMusic
1635111647.376,fixation,1,146,0.876,1.0,NoMusic
1635111648.0,stimulus,1,147,,0.0,NoMusic
1635111649.538,fixation,1,147,1.038,1.0,NoMusic
1635111650.0,stimulus,1,148,,0.0,NoMusic
1635111651.54,fixation,1,148,1.04,0.0,NoMusic
1635111652.0,stimulus,1,149,,0.0,NoMusic
1635111652.825,fixation,1,149,0.325,1.0,NoMusic
1635111654.0,stimulus,1,150,,0.0,NoMusic
1635111654.861,fixation,1,150,0.361,0.0,NoMusic
1635111656.0,stimulus,1,151,,0.0,NoMusic
1635111657.987,fixation,1,151,1.487,0.0,NoMusic
1635111658.0,stimulus,1,152,,0.0,NoMusic
1635111659.262,fixation,1,152,0.762,1.0,NoMusic
1635111660.0,stimulus,1,153,,0.0,NoMusic
1635111660.833,fixation,1,153,0.333,1.0,NoMusic
1635111662.0,stimulus,1,154,,0.0,NoMusic
1635111663.031,fixation,1,154,0.531,1.0,NoMusic
1635111664.0,stimulus,1,155,,0.0,NoMusic
1635111664.821,fixation,1,155,0.321,1.0,NoMusic
1635111666.0,stimulus,1,156,,0.0,NoMusic
1635111667.066,fixation,1,156,0.566,1.0,NoMusic
1635111668.0,stimulus,1,157,,0.0,NoMusic
1635111668.871,fixation,1,157,0.371,1.0,NoMusic
1635111670.0,stimulus,1,158,,0.0,NoMusic
1635111670.9,fixation,1,158,0.4,1.0,NoMusic
1635111672.0,stimulus,1,159,,0.0,NoMusic
1635111672.767,fixation,1,159,0.267,1.0,NoMusic
1635111674.0,stimulus,1,160,,0.0,NoMusic
1635111675.12,fixation,1,160,0.62,1.0,NoMusic
1635111676.0,stimulus,1,161,,0.0,NoMusic
1635111676.676,fixation,1,161,0.176,1.0,NoMusic
1635111678.0,stimulus,1,162,,0.0,NoMusic
1635111678.712,fixation,1,162,0.212,1.0,NoMusic
1635111680.0,stimulus,1,163,,0.0,NoMusic
1635111681.045,fixation,1,163,0.545,1.0,NoMusic
1635111682.0,stimulus,1,164,,0.0,NoMusic
1635111682.793,fixation,1,164,0.293,1.0,NoMusic
1635111684.0,stimulus,1,165,,0.0,NoMusic
1635111684.836,fixation,1,165,0.336,0.0,NoMusic
1635111686.0,stimulus,1,166,,0.0,NoMusic
1635111686.767,fixation,1,166,0.267,1.0,NoMusic
1635111688.0,stimulus,1,167,,0.0,NoMusic
1635111688.749,fixation,1,167,0.249,1.0,NoMusic
1635111690.0,stimulus,1,168,,0.0,NoMusic
1635111690.787,fixation,1,168,0.287,1.0,NoMusic
1635111692.0,stimulus,1,169,,0.0,NoMusic
1635111693.007,fixation,1,169,0.507,1.0,NoMusic
1635111694.0,stimulus,1,170,,0.0,NoMusic
1635111694.733,fixation,1,170,0.233,1.0,NoMusic
1635111696.0,stimulus,1,171,,0.0,NoMusic
1635111696.696,fixation,1,171,0.196,1.0,NoMusic
1635111698.0,stimulus,1,172,,0.0,NoMusic
1635111698.805,fixation,1,172,0.305,1.0,NoMusic
1635111700.0,stimulus,1,173,,0.0,NoMusic
1635111700.5,fixation,1,173,,0.0,NoMusic
1635111702.0,stimulus,1,174,,0.0,NoMusic
1635111702.659,fixation,1,174,0.159,1.0,NoMusic
1635111704.0,stimulus,1,175,,0.0,NoMusic
1635111704.532,fixation,1,175,0.032,0.0,NoMusic
1635111706.0,stimulus,1,176,,0.0,NoMusic
1635111706.931,fixation,1,176,0.431,1.0,NoMusic
1635111708.0,stimulus,1,177,,0.0,NoMusic
1635111708.792,fixation,1,177,0.292,1.0,NoMusic
1635111710.0,stimulus,1,178,,0.0,NoMusic
1635111710.564,fixation,1,178,0.064,1.0,NoMusic
1635111712.0,stimulus,1,179,,0.0,NoMusic
1635111712.692,fixation,1,179,0.192,1.0,NoMusic
1635111714.0,stimulus,1,180,,0.0,NoMusic
1635111714.51,fixation,1,180,0.01,1.0,NoMusic
1635111716.497,stimulus,1,181,0.497,1.0,NoMusic
1635111716.5,fixation,1,181,,0.0,NoMusic
1635111718.0,stimulus,1,182,,0.0,NoMusic
1635111718.528,fixation,1,182,0.028,1.0,NoMusic
1635111720.471,stimulus,1,183,0.471,1.0,NoMusic
1635111720.5,fixation,1,183,,0.0,NoMusic
1635111722.0,stimulus,1,184,,0.0,NoMusic
1635111722.509,fixation,1,184,0.009,1.0,NoMusic
1635111724.0,stimulus,1,185,,0.0,NoMusic
1635111724.664,fixation,1,185,0.164,1.0,NoMusic
1635111726.0,stimulus,1,186,,0.0,NoMusic
1635111726.838,fixation,1,186,0.338,1.0,NoMusic
1635111728.0,stimulus,1,187,,0.0,NoMusic
1635111728.779,fixation,1,187,0.279,1.0,NoMusic
1635111730.0,stimulus,1,188,,0.0,NoMusic
1635111730.687,fixation,1,188,0.187,1.0,NoMusic
1635111732.0,stimulus,1,189,,0.0,NoMusic
1635111732.786,fixation,1,189,0.286,1.0,NoMusic
1635111734.0,stimulus,1,190,,0.0,NoMusic
1635111734.725,fixation,1,190,0.225,1.0,NoMusic
1635111736.0,stimulus,1,191,,0.0,NoMusic
1635111736.749,fixation,1,191,0.249,1.0,NoMusic
1635111738.0,stimulus,1,192,,0.0,NoMusic
1635111738.74,fixation,1,192,0.24,1.0,NoMusic
1635111740.0,stimulus,1,193,,0.0,NoMusic
1635111740.8,fixation,1,193,0.3,1.0,NoMusic
1635111742.0,stimulus,1,194,,0.0,NoMusic
1635111742.509,fixation,1,194,0.009,1.0,NoMusic
1635111744.0,stimulus,1,195,,0.0,NoMusic
1635111744.678,fixation,1,195,0.178,1.0,NoMusic
1635111746.0,stimulus,1,196,,0.0,NoMusic
1635111746.601,fixation,1,196,0.101,1.0,NoMusic
1635111748.0,stimulus,1,197,,0.0,NoMusic
1635111748.693,fixation,1,197,0.193,1.0,NoMusic
1635111750.0,stimulus,1,198,,0.0,NoMusic
1635111750.716,fixation,1,198,0.216,1.0,NoMusic
1635111752.0,stimulus,1,199,,0.0,NoMusic
1635111752.639,fixation,1,199,0.139,1.0,NoMusic
1635111754.0,stimulus,1,200,,0.0,NoMusic
1635111754.655,fixation,1,200,0.155,1.0,NoMusic
1635111756.0,stimulus,1,201,,0.0,NoMusic
1635111756.776,fixation,1,201,0.276,1.0,NoMusic
1635111758.412,stimulus,1,202,0.412,0.0,NoMusic
1635111758.5,fixation,1,202,,0.0,NoMusic
1635111760.0,stimulus,1,203,,0.0,NoMusic
1635111760.779,fixation,1,203,0.279,1.0,NoMusic
1635111762.0,stimulus,1,204,,0.0,NoMusic
1635111762.953,fixation,1,204,0.453,1.0,NoMusic
1635111764.0,stimulus,1,205,,0.0,NoMusic
1635111765.152,fixation,1,205,0.652,1.0,NoMusic
1635111766.0,stimulus,1,206,,0.0,NoMusic
1635111766.806,fixation,1,206,0.306,1.0,NoMusic
1635111768.0,stimulus,1,207,,0.0,NoMusic
1635111769.165,fixation,1,207,0.665,0.0,NoMusic
1635111770.0,stimulus,1,208,,0.0,NoMusic
1635111771.192,fixation,1,208,0.692,1.0,NoMusic
1635111772.0,stimulus,1,209,,0.0,NoMusic
1635111772.858,fixation,1,209,0.358,1.0,NoMusic
1635111774.0,stimulus,1,210,,0.0,NoMusic
1635111775.49,fixation,1,210,0.99,0.0,NoMusic
1635111776.0,stimulus,1,211,,0.0,NoMusic
1635111777.288,fixation,1,211,0.788,1.0,NoMusic
1635111778.0,stimulus,1,212,,0.0,NoMusic
1635111779.334,fixation,1,212,0.834,1.0,NoMusic
1635111780.0,stimulus,1,213,,0.0,NoMusic
1635111781.096,fixation,1,213,0.596,1.0,NoMusic
1635111782.0,stimulus,1,214,,0.0,NoMusic
1635111782.966,fixation,1,214,0.466,1.0,NoMusic
1635111784.0,stimulus,1,215,,0.0,NoMusic
1635111784.609,fixation,1,215,0.109,1.0,NoMusic
1635111786.0,stimulus,1,216,,0.0,NoMusic
1635111786.5,fixation,1,216,,0.0,NoMusic
1635111788.183,stimulus,1,217,0.183,1.0,NoMusic
1635111788.5,fixation,1,217,,0.0,NoMusic
1635111790.0,stimulus,1,218,,0.0,NoMusic
1635111790.952,fixation,1,218,0.452,1.0,NoMusic
1635111792.0,stimulus,1,219,,0.0,NoMusic
1635111793.182,fixation,1,219,0.682,0.0,NoMusic
1635111794.0,stimulus,1,220,,0.0,NoMusic
1635111795.047,fixation,1,220,0.547,1.0,NoMusic
1635111796.0,stimulus,1,221,,,NoMusic
1635111796.5,fixation,1,221,,,NoMusic
1635111798.0,stimulus,1,222,,0.0,NoMusic
1635111798.948,fixation,1,222,0.448,1.0,NoMusic
1635111800.0,stimulus,1,223,,0.0,NoMusic
1635111800.754,fixation,1,223,0.254,1.0,NoMusic
1635111802.0,stimulus,1,224,,0.0,NoMusic
1635111802.915,fixation,1,224,0.415,1.0,NoMusic
1635111804.0,stimulus,1,225,,0.0,NoMusic
1635111804.809,fixation,1,225,0.309,1.0,NoMusic
1635111806.0,stimulus,1,226,,0.0,NoMusic
1635111806.743,fixation,1,226,0.243,1.0,NoMusic
1635111808.0,stimulus,1,227,,0.0,NoMusic
1635111808.625,fixation,1,227,0.125,1.0,NoMusic
1635111810.0,stimulus,1,228,,0.0,NoMusic
1635111810.949,fixation,1,228,0.449,0.0,NoMusic
1635111812.0,stimulus,1,229,,0.0,NoMusic
1635111812.609,fixation,1,229,0.109,1.0,NoMusic
1635111814.0,stimulus,1,230,,0.0,NoMusic
1635111814.623,fixation,1,230,0.123,0.0,NoMusic
1635111816.0,stimulus,1,231,,0.0,NoMusic
1635111817.004,fixation,1,231,0.504,1.0,NoMusic
1635111818.0,stimulus,1,232,,0.0,NoMusic
1635111819.083,fixation,1,232,0.583,1.0,NoMusic
1635111820.0,stimulus,1,233,,0.0,NoMusic
1635111821.545,fixation,1,233,1.045,0.0,NoMusic
1635111822.0,stimulus,1,234,,0.0,NoMusic
1635111823.505,fixation,1,234,1.005,1.0,NoMusic
1635111824.0,stimulus,1,235,,0.0,NoMusic
1635111825.011,fixation,1,235,0.511,0.0,NoMusic
1635111826.0,stimulus,1,236,,0.0,NoMusic
1635111827.23,fixation,1,236,0.73,0.0,NoMusic
1635111828.0,stimulus,1,237,,0.0,NoMusic
1635111829.265,fixation,1,237,0.765,1.0,NoMusic
1635111830.0,stimulus,1,238,,0.0,NoMusic
1635111831.29,fixation,1,238,0.79,0.0,NoMusic
1635111832.0,stimulus,1,239,,0.0,NoMusic
1635111833.163,fixation,1,239,0.663,1.0,NoMusic
1635111834.0,stimulus,1,240,,0.0,NoMusic
1635111835.008,fixation,1,240,0.508,0.0,NoMusic
1635111836.0,stimulus,1,241,,0.0,NoMusic
1635111837.207,fixation,1,241,0.707,1.0,NoMusic
1635111838.0,stimulus,1,242,,0.0,NoMusic
1635111839.055,fixation,1,242,0.555,1.0,NoMusic
1635111840.0,stimulus,1,243,,0.0,NoMusic
1635111840.813,fixation,1,243,0.313,1.0,NoMusic
1635111842.0,stimulus,1,244,,0.0,NoMusic
1635111842.89,fixation,1,244,0.39,1.0,NoMusic
1635111844.0,stimulus,1,245,,0.0,NoMusic
1635111844.596,fixation,1,245,0.096,1.0,NoMusic
1635111846.0,stimulus,1,246,,0.0,NoMusic
1635111846.596,fixation,1,246,0.096,1.0,NoMusic
1635111848.0,stimulus,1,247,,0.0,NoMusic
1635111848.644,fixation,1,247,0.144,1.0,NoMusic
1635111850.0,stimulus,1,248,,0.0,NoMusic
1635111850.706,fixation,1,248,0.206,1.0,NoMusic
1635111852.0,stimulus,1,249,,0.0,NoMusic
1635111852.58,fixation,1,249,0.08,1.0,NoMusic
1635111854.0,stimulus,1,250,,0.0,NoMusic
1635111854.817,fixation,1,250,0.317,1.0,NoMusic
1635111856.0,stimulus,1,251,,0.0,NoMusic
1635111856.706,fixation,1,251,0.206,1.0,NoMusic
1635111858.0,stimulus,1,252,,0.0,NoMusic
1635111858.985,fixation,1,252,0.485,0.0,NoMusic
1635111860.0,stimulus,1,253,,0.0,NoMusic
1635111861.058,fixation,1,253,0.558,1.0,NoMusic
1635111862.0,stimulus,1,254,,0.0,NoMusic
1635111862.794,fixation,1,254,0.294,1.0,NoMusic
1635111864.0,stimulus,1,255,,0.0,NoMusic
1635111864.671,fixation,1,255,0.171,1.0,NoMusic
1635111866.0,stimulus,1,256,,0.0,NoMusic
1635111866.801,fixation,1,256,0.301,1.0,NoMusic
1635111868.0,stimulus,1,257,,0.0,NoMusic
1635111868.569,fixation,1,257,0.069,1.0,NoMusic
1635111870.452,stimulus,1,258,0.452,1.0,NoMusic
1635111870.5,fixation,1,258,,0.0,NoMusic
1635111872.0,stimulus,1,259,,0.0,NoMusic
1635111872.501,fixation,1,259,0.001,1.0,NoMusic
1635111874.0,stimulus,1,260,,0.0,NoMusic
1635111874.592,fixation,1,260,0.092,1.0,NoMusic
1635111876.0,stimulus,1,261,,0.0,NoMusic
1635111876.515,fixation,1,261,0.015,1.0,NoMusic
1635111878.43,stimulus,1,262,0.43,1.0,NoMusic
1635111878.5,fixation,1,262,,0.0,NoMusic
1635111880.398,stimulus,1,263,0.398,1.0,NoMusic
1635111880.5,fixation,1,263,,0.0,NoMusic
1635111882.0,stimulus,1,264,,0.0,NoMusic
1635111882.683,fixation,1,264,0.183,1.0,NoMusic
1635111884.0,stimulus,1,265,,0.0,NoMusic
1635111884.762,fixation,1,265,0.262,1.0,NoMusic
1635111886.0,stimulus,1,266,,0.0,NoMusic
1635111886.591,fixation,1,266,0.091,1.0,NoMusic
1635111888.0,stimulus,1,267,,0.0,NoMusic
1635111888.657,fixation,1,267,0.157,1.0,NoMusic
1635111890.487,stimulus,1,268,0.487,1.0,NoMusic
1635111890.5,fixation,1,268,,0.0,NoMusic
1635111892.0,stimulus,1,269,,0.0,NoMusic
1635111892.611,fixation,1,269,0.111,1.0,NoMusic
1635111894.434,stimulus,1,270,0.434,1.0,NoMusic
1635111894.5,fixation,1,270,,0.0,NoMusic
1635111896.0,stimulus,1,271,,0.0,NoMusic
1635111896.763,fixation,1,271,0.263,1.0,NoMusic
1635111898.0,stimulus,1,272,,0.0,NoMusic
1635111898.661,fixation,1,272,0.161,1.0,NoMusic
1635111900.0,stimulus,1,273,,0.0,NoMusic
1635111900.734,fixation,1,273,0.234,1.0,NoMusic
1635111902.451,stimulus,1,274,0.451,1.0,NoMusic
1635111902.5,fixation,1,274,,0.0,NoMusic
1635111904.0,stimulus,1,275,,0.0,NoMusic
1635111904.582,fixation,1,275,0.082,1.0,NoMusic
1635111906.47,stimulus,1,276,0.47,0.0,NoMusic
1635111906.5,fixation,1,276,,0.0,NoMusic
1635111908.0,stimulus,1,277,,0.0,NoMusic
1635111908.823,fixation,1,277,0.323,1.0,NoMusic
1635111910.0,stimulus,1,278,,0.0,NoMusic
1635111910.868,fixation,1,278,0.368,1.0,NoMusic
1635111912.0,stimulus,1,279,,0.0,NoMusic
1635111912.721,fixation,1,279,0.221,1.0,NoMusic
1635111914.0,stimulus,1,280,,0.0,NoMusic
1635111914.757,fixation,1,280,0.257,1.0,NoMusic
1635111916.0,stimulus,1,281,,0.0,NoMusic
1635111916.793,fixation,1,281,0.293,1.0,NoMusic
1635111918.0,stimulus,1,282,,0.0,NoMusic
1635111918.786,fixation,1,282,0.286,1.0,NoMusic
1635111920.0,stimulus,1,283,,0.0,NoMusic
1635111920.918,fixation,1,283,0.418,1.0,NoMusic
1635111922.0,stimulus,1,284,,0.0,NoMusic
1635111922.538,fixation,1,284,0.038,1.0,NoMusic
1635111924.0,stimulus,1,285,,0.0,NoMusic
1635111924.751,fixation,1,285,0.251,1.0,NoMusic
1635111926.0,stimulus,1,286,,0.0,NoMusic
1635111926.808,fixation,1,286,0.308,1.0,NoMusic
1635111928.0,stimulus,1,287,,0.0,NoMusic
1635111928.782,fixation,1,287,0.282,1.0,NoMusic
1635111930.0,stimulus,1,288,,0.0,NoMusic
1635111930.506,fixation,1,288,0.006,1.0,NoMusic
1635111932.0,stimulus,1,289,,0.0,NoMusic
1635111932.863,fixation,1,289,0.363,1.0,NoMusic
1635111934.0,stimulus,1,290,,0.0,NoMusic
1635111934.728,fixation,1,290,0.228,1.0,NoMusic
1635111936.0,stimulus,1,291,,0.0,NoMusic
1635111936.675,fixation,1,291,0.175,1.0,NoMusic
1635111938.0,stimulus,1,292,,0.0,NoMusic
1635111938.662,fixation,1,292,0.162,1.0,NoMusic
1635111940.0,stimulus,1,293,,0.0,NoMusic
1635111940.703,fixation,1,293,0.203,1.0,NoMusic
1635111942.0,stimulus,1,294,,0.0,NoMusic
1635111943.016,fixation,1,294,0.516,0.0,NoMusic
1635111944.0,stimulus,1,295,,0.0,NoMusic
1635111944.953,fixation,1,295,0.453,0.0,NoMusic
1635111946.0,stimulus,1,296,,0.0,NoMusic
1635111946.94,fixation,1,296,0.44,0.0,NoMusic
1635111948.0,stimulus,1,297,,0.0,NoMusic
1635111948.635,fixation,1,297,0.135,1.0,NoMusic
1635111950.0,stimulus,1,298,,0.0,NoMusic
1635111951.276,fixation,1,298,0.776,1.0,NoMusic
1635111952.0,stimulus,1,299,,0.0,NoMusic
1635111952.732,fixation,1,299,0.232,1.0,NoMusic
1635111954.0,stimulus,1,300,,0.0,NoMusic
1635111955.318,fixation,1,300,0.818,1.0,NoMusic
1635111956.0,stimulus,1,301,,0.0,NoMusic
1635111957.318,fixation,1,301,0.818,1.0,NoMusic
1635111958.0,stimulus,1,302,,0.0,NoMusic
1635111958.722,fixation,1,302,0.222,1.0,NoMusic
1635111960.0,stimulus,1,303,,0.0,NoMusic
1635111960.855,fixation,1,303,0.355,1.0,NoMusic
1635111962.0,stimulus,1,304,,0.0,NoMusic
1635111962.88,fixation,1,304,0.38,1.0,NoMusic
1635111964.0,stimulus,1,305,,0.0,NoMusic
1635111964.85,fixation,1,305,0.35,1.0,NoMusic
1635111966.0,stimulus,1,306,,0.0,NoMusic
1635111967.023,fixation,1,306,0.523,1.0,NoMusic
1635111968.0,stimulus,1,307,,0.0,NoMusic
1635111968.726,fixation,1,307,0.226,1.0,NoMusic
1635111970.0,stimulus,1,308,,0.0,NoMusic
1635111971.078,fixation,1,308,0.578,1.0,NoMusic
1635111972.0,stimulus,1,309,,0.0,NoMusic
1635111972.779,fixation,1,309,0.279,1.0,NoMusic
1635111974.0,stimulus,1,310,,0.0,NoMusic
1635111974.866,fixation,1,310,0.366,1.0,NoMusic
1635111976.445,stimulus,1,311,0.445,1.0,NoMusic
1635111976.5,fixation,1,311,,0.0,NoMusic
1635111978.0,stimulus,1,312,,0.0,NoMusic
1635111978.611,fixation,1,312,0.111,1.0,NoMusic
1635111980.473,stimulus,1,313,0.473,0.0,NoMusic
1635111980.5,fixation,1,313,,0.0,NoMusic
1635111982.0,stimulus,1,314,,0.0,NoMusic
1635111982.633,fixation,1,314,0.133,0.0,NoMusic
1635111984.0,stimulus,1,315,,0.0,NoMusic
1635111984.735,fixation,1,315,0.235,1.0,NoMusic
1635111986.0,stimulus,1,316,,0.0,NoMusic
1635111986.764,fixation,1,316,0.264,1.0,NoMusic
1635111988.0,stimulus,1,317,,0.0,NoMusic
1635111988.687,fixation,1,317,0.187,1.0,NoMusic
1635111990.0,stimulus,1,318,,0.0,NoMusic
1635111990.55,fixation,1,318,0.05,1.0,NoMusic
1635111992.0,stimulus,1,319,,0.0,NoMusic
1635111992.949,fixation,1,319,0.449,1.0,NoMusic
1635111994.0,stimulus,1,320,,0.0,NoMusic
1635111994.744,fixation,1,320,0.244,1.0,NoMusic
1635111996.0,stimulus,1,321,,0.0,NoMusic
1635111996.7,fixation,1,321,0.2,1.0,NoMusic
1635111998.0,stimulus,1,322,,0.0,NoMusic
1635111998.755,fixation,1,322,0.255,1.0,NoMusic
1635112000.0,stimulus,1,323,,0.0,NoMusic
1635112000.714,fixation,1,323,0.214,0.0,NoMusic
1635112002.497,stimulus,1,324,0.497,0.0,NoMusic
1635112002.5,fixation,1,324,,0.0,NoMusic
1635112004.0,stimulus,1,325,,0.0,NoMusic
1635112004.716,fixation,1,325,0.216,1.0,NoMusic
1635112006.0,stimulus,1,326,,0.0,NoMusic
1635112006.64,fixation,1,326,0.14,1.0,NoMusic
1635112008.0,stimulus,1,327,,0.0,NoMusic
1635112008.685,fixation,1,327,0.185,1.0,NoMusic
1635112010.0,stimulus,1,328,,0.0,NoMusic
1635112010.869,fixation,1,328,0.369,0.0,NoMusic
1635112012.0,stimulus,1,329,,0.0,NoMusic
1635112012.729,fixation,1,329,0.229,1.0,NoMusic
1635112014.0,stimulus,1,330,,0.0,NoMusic
1635112014.711,fixation,1,330,0.211,1.0,NoMusic
1635112016.0,stimulus,1,331,,0.0,NoMusic
1635112016.73,fixation,1,331,0.23,1.0,NoMusic
1635112018.0,stimulus,1,332,,0.0,NoMusic
1635112018.86,fixation,1,332,0.36,1.0,NoMusic
1635112020.478,stimulus,1,333,0.478,1.0,NoMusic
1635112020.5,fixation,1,333,,0.0,NoMusic
1635112022.488,stimulus,1,334,0.488,1.0,NoMusic
1635112022.5,fixation,1,334,,0.0,NoMusic
1635112024.453,stimulus,1,335,0.453,1.0,NoMusic
1635112024.5,fixation,1,335,,0.0,NoMusic
1635112026.0,stimulus,1,336,,0.0,NoMusic
1635112026.863,fixation,1,336,0.363,1.0,NoMusic
1635112028.0,stimulus,1,337,,0.0,NoMusic
1635112028.794,fixation,1,337,0.294,1.0,NoMusic
1635112030.0,stimulus,1,338,,0.0,NoMusic
1635112030.504,fixation,1,338,0.004,1.0,NoMusic
1635112032.0,stimulus,1,339,,0.0,NoMusic
1635112032.749,fixation,1,339,0.249,0.0,NoMusic
1635112034.0,stimulus,1,340,,0.0,NoMusic
1635112034.772,fixation,1,340,0.272,1.0,NoMusic
1635112036.0,stimulus,1,341,,0.0,NoMusic
1635112036.751,fixation,1,341,0.251,1.0,NoMusic
1635112038.0,stimulus,1,342,,0.0,NoMusic
1635112038.773,fixation,1,342,0.273,1.0,NoMusic
1635112040.0,stimulus,1,343,,0.0,NoMusic
1635112040.637,fixation,1,343,0.137,1.0,NoMusic
1635112042.0,stimulus,1,344,,0.0,NoMusic
1635112042.793,fixation,1,344,0.293,1.0,NoMusic
1635112044.0,stimulus,1,345,,0.0,NoMusic
1635112044.792,fixation,1,345,0.292,1.0,NoMusic
1635112046.0,stimulus,1,346,,0.0,NoMusic
1635112046.834,fixation,1,346,0.334,1.0,NoMusic
1635112048.0,stimulus,1,347,,0.0,NoMusic
1635112048.685,fixation,1,347,0.185,1.0,NoMusic
1635112050.0,stimulus,1,348,,0.0,NoMusic
1635112050.808,fixation,1,348,0.308,1.0,NoMusic
1635112052.0,stimulus,1,349,,0.0,NoMusic
1635112052.742,fixation,1,349,0.242,1.0,NoMusic
1635112054.0,stimulus,1,350,,0.0,NoMusic
1635112054.658,fixation,1,350,0.158,1.0,NoMusic
1635112056.0,stimulus,1,351,,0.0,NoMusic
1635112056.777,fixation,1,351,0.277,1.0,NoMusic
1635112058.0,stimulus,1,352,,0.0,NoMusic
1635112058.983,fixation,1,352,0.483,1.0,NoMusic
1635112060.0,stimulus,1,353,,0.0,NoMusic
1635112060.781,fixation,1,353,0.281,1.0,NoMusic
1635112062.495,stimulus,1,354,0.495,1.0,NoMusic
1635112062.5,fixation,1,354,,0.0,NoMusic
1635112064.484,stimulus,1,355,0.484,1.0,NoMusic
1635112064.5,fixation,1,355,,0.0,NoMusic
1635112066.494,stimulus,1,356,0.494,1.0,NoMusic
1635112066.5,fixation,1,356,,0.0,NoMusic
1635112068.0,stimulus,1,357,,0.0,NoMusic
1635112068.59,fixation,1,357,0.09,1.0,NoMusic
1635112070.0,stimulus,1,358,,0.0,NoMusic
1635112071.225,fixation,1,358,0.725,1.0,NoMusic
1635112072.0,stimulus,1,359,,0.0,NoMusic
1635112072.777,fixation,1,359,0.277,1.0,NoMusic
1635112074.0,stimulus,1,360,,0.0,NoMusic
1635112074.787,fixation,1,360,0.287,1.0,NoMusic
1635112076.0,stimulus,1,361,,0.0,NoMusic
1635112076.651,fixation,1,361,0.151,1.0,NoMusic
1635112078.0,stimulus,1,362,,0.0,NoMusic
1635112078.584,fixation,1,362,0.084,1.0,NoMusic
1635112080.0,stimulus,1,363,,0.0,NoMusic
1635112080.781,fixation,1,363,0.281,1.0,NoMusic
1635112082.0,stimulus,1,364,,0.0,NoMusic
1635112082.961,fixation,1,364,0.461,0.0,NoMusic
1635112084.0,stimulus,1,365,,0.0,NoMusic
1635112085.078,fixation,1,365,0.578,1.0,NoMusic
1635112086.0,stimulus,1,366,,0.0,NoMusic
1635112086.934,fixation,1,366,0.434,1.0,NoMusic
1635112088.0,stimulus,1,367,,0.0,NoMusic
1635112088.833,fixation,1,367,0.333,1.0,NoMusic
1635112090.0,stimulus,1,368,,0.0,NoMusic
1635112090.673,fixation,1,368,0.173,1.0,NoMusic
1635112092.0,stimulus,1,369,,0.0,NoMusic
1635112092.875,fixation,1,369,0.375,0.0,NoMusic
1635112094.0,stimulus,1,370,,0.0,NoMusic
1635112095.414,fixation,1,370,0.914,1.0,NoMusic
1635112096.0,stimulus,1,371,,0.0,NoMusic
1635112096.858,fixation,1,371,0.358,1.0,NoMusic
1635112098.0,stimulus,1,372,,0.0,NoMusic
1635112099.132,fixation,1,372,0.632,0.0,NoMusic
1635112100.0,stimulus,1,373,,0.0,NoMusic
1635112100.762,fixation,1,373,0.262,1.0,NoMusic
1635112102.0,stimulus,1,374,,0.0,NoMusic
1635112102.791,fixation,1,374,0.291,1.0,NoMusic
1635112104.0,stimulus,1,375,,0.0,NoMusic
1635112104.875,fixation,1,375,0.375,1.0,NoMusic
1635112106.0,stimulus,1,376,,0.0,NoMusic
1635112107.372,fixation,1,376,0.872,1.0,NoMusic
1635112108.0,stimulus,1,377,,0.0,NoMusic
1635112108.673,fixation,1,377,0.173,1.0,NoMusic
1635112110.0,stimulus,1,378,,0.0,NoMusic
1635112110.608,fixation,1,378,0.108,1.0,NoMusic
1635112112.0,stimulus,1,379,,0.0,NoMusic
1635112112.658,fixation,1,379,0.158,1.0,NoMusic
1635112114.0,stimulus,1,380,,0.0,NoMusic
1635112114.897,fixation,1,380,0.397,1.0,NoMusic
1635112116.0,stimulus,1,381,,0.0,NoMusic
1635112117.22,fixation,1,381,0.72,1.0,NoMusic
1635112118.0,stimulus,1,382,,0.0,NoMusic
1635112118.543,fixation,1,382,0.043,1.0,NoMusic
1635112120.0,stimulus,1,383,,0.0,NoMusic
1635112120.697,fixation,1,383,0.197,1.0,NoMusic
1635112122.0,stimulus,1,384,,0.0,NoMusic
1635112122.5,fixation,1,384,,0.0,NoMusic
1635112124.0,stimulus,1,385,,0.0,NoMusic
1635112124.761,fixation,1,385,0.261,1.0,NoMusic
1635112126.0,stimulus,1,386,,0.0,NoMusic
1635112126.717,fixation,1,386,0.217,1.0,NoMusic
1635112128.0,stimulus,1,387,,0.0,NoMusic
1635112128.647,fixation,1,387,0.147,1.0,NoMusic
1635112130.0,stimulus,1,388,,0.0,NoMusic
1635112130.77,fixation,1,388,0.27,1.0,NoMusic
1635112132.0,stimulus,1,389,,0.0,NoMusic
1635112132.785,fixation,1,389,0.285,1.0,NoMusic
1635112134.0,stimulus,1,390,,0.0,NoMusic
1635112134.7,fixation,1,390,0.2,1.0,NoMusic
1635112136.412,stimulus,1,391,0.412,1.0,NoMusic
1635112136.5,fixation,1,391,,0.0,NoMusic
1635112138.422,stimulus,1,392,0.422,1.0,NoMusic
1635112138.5,fixation,1,392,,0.0,NoMusic
1635112140.0,stimulus,1,393,,0.0,NoMusic
1635112140.616,fixation,1,393,0.116,1.0,NoMusic
1635112142.0,stimulus,1,394,,0.0,NoMusic
1635112142.69,fixation,1,394,0.19,1.0,NoMusic
1635112144.0,stimulus,1,395,,0.0,NoMusic
1635112144.765,fixation,1,395,0.265,1.0,NoMusic
1635112146.0,stimulus,1,396,,0.0,NoMusic
1635112146.716,fixation,1,396,0.216,1.0,NoMusic
1635112148.0,stimulus,1,397,,0.0,NoMusic
1635112148.653,fixation,1,397,0.153,1.0,NoMusic
1635112150.0,stimulus,1,398,,,RelaxSession
1635112150.5,fixation,1,398,,,RelaxSession
1635112152.0,stimulus,1,399,,,RelaxSession
1635112152.5,fixation,1,399,,,RelaxSession
1635112154.0,stimulus,1,400,,,RelaxSession
1635112154.5,fixation,1,400,,,RelaxSession
1635112156.0,stimulus,1,401,,,RelaxSession
1635112156.5,fixation,1,401,,,RelaxSession
1635112158.0,stimulus,1,402,,,RelaxSession
1635112158.5,fixation,1,402,,,RelaxSession
1635112160.0,stimulus,1,403,,,RelaxSession
1635112160.5,fixation,1,403,,,RelaxSession
1635112162.0,stimulus,1,404,,,RelaxSession
1635112162.5,fixation,1,404,,,RelaxSession
1635112164.0,stimulus,1,405,,,RelaxSession
1635112164.5,fixation,1,405,,,RelaxSession
1635112166.0,stimulus,1,406,,,RelaxSession
1635112166.5,fixation,1,406,,,RelaxSession
1635112168.0,stimulus,1,407,,,RelaxSession
1635112168.5,fixation,1,407,,,RelaxSession
1635112170.0,stimulus,1,408,,,RelaxSession
1635112170.5,fixation,1,408,,,RelaxSession
1635112172.0,stimulus,1,409,,,RelaxSession
1635112172.5,fixation,1,409,,,RelaxSession
1635112174.0,stimulus,1,410,,,RelaxSession
1635112174.5,fixation,1,410,,,RelaxSession
1635112176.0,stimulus,1,411,,,RelaxSession
1635112176.5,fixation,1,411,,,RelaxSession
1635112178.0,stimulus,1,412,,,RelaxSession
1635112178.5,fixation,1,412,,,RelaxSession
1635112180.0,stimulus,1,413,,,RelaxSession
1635112180.5,fixation,1,413,,,RelaxSession
1635112182.0,stimulus,1,414,,,RelaxSession
1635112182.5,fixation,1,414,,,RelaxSession
1635112184.0,stimulus,1,415,,,RelaxSession
1635112184.5,fixation,1,415,,,RelaxSession
1635112186.0,stimulus,1,416,,,RelaxSession
1635112186.5,fixation,1,416,,,RelaxSession
1635112188.0,stimulus,1,417,,,RelaxSession
1635112188.5,fixation,1,417,,,RelaxSession
1635112190.0,stimulus,1,418,,,RelaxSession
1635112190.5,fixation,1,418,,,RelaxSession
1635112192.0,stimulus,1,419,,,RelaxSession
1635112192.5,fixation,1,419,,,RelaxSession
1635112194.0,stimulus,1,420,,,RelaxSession
1635112194.5,fixation,1,420,,,RelaxSession
1635112196.0,stimulus,1,421,,,RelaxSession
1635112196.5,fixation,1,421,,,RelaxSession
1635112198.0,stimulus,1,422,,,RelaxSession
1635112198.5,fixation,1,422,,,RelaxSession
1635112200.0,stimulus,1,423,,,RelaxSession
1635112200.5,fixation,1,423,,,RelaxSession
1635112202.0,stimulus,1,424,,,RelaxSession
1635112202.5,fixation,1,424,,,RelaxSession
1635112204.0,stimulus,1,425,,,RelaxSession
1635112204.5,fixation,1,425,,,RelaxSession
1635112206.0,stimulus,1,426,,,RelaxSession
1635112206.5,fixation,1,426,,,RelaxSession
1635112208.0,stimulus,1,427,,,RelaxSession
1635112208.5,fixation,1,427,,,RelaxSession
1635112210.0,stimulus,1,428,,,RelaxSession
1635112210.5,fixation,1,428,,,RelaxSession
1635112212.0,stimulus,1,429,,,RelaxSession
1635112212.5,fixation,1,429,,,RelaxSession
1635112214.0,stimulus,1,430,,,RelaxSession
1635112214.5,fixation,1,430,,,RelaxSession
1635112216.0,stimulus,1,431,,,RelaxSession
1635112216.5,fixation,1,431,,,RelaxSession
1635112218.0,stimulus,1,432,,,RelaxSession
1635112218.5,fixation,1,432,,,RelaxSession
1635112220.0,stimulus,1,433,,,RelaxSession
1635112220.5,fixation,1,433,,,RelaxSession
1635112222.0,stimulus,1,434,,,RelaxSession
1635112222.5,fixation,1,434,,,RelaxSession
1635112224.0,stimulus,1,435,,,RelaxSession
1635112224.5,fixation,1,435,,,RelaxSession
1635112226.0,stimulus,1,436,,,RelaxSession
1635112226.5,fixation,1,436,,,RelaxSession
1635112228.0,stimulus,1,437,,,RelaxSession
1635112228.5,fixation,1,437,,,RelaxSession
1635112230.0,stimulus,1,438,,,RelaxSession
1635112230.5,fixation,1,438,,,RelaxSession
1635112232.0,stimulus,1,439,,,RelaxSession
1635112232.5,fixation,1,439,,,RelaxSession
1635112234.0,stimulus,1,440,,,RelaxSession
1635112234.5,fixation,1,440,,,RelaxSession
1635112236.0,stimulus,1,441,,,RelaxSession
1635112236.5,fixation,1,441,,,RelaxSession
1635112238.0,stimulus,1,442,,,RelaxSession
1635112238.5,fixation,1,442,,,RelaxSession
1635112240.0,stimulus,1,443,,,RelaxSession
1635112240.5,fixation,1,443,,,RelaxSession
1635112242.0,stimulus,1,444,,,RelaxSession
1635112242.5,fixation,1,444,,,RelaxSession
1635112244.0,stimulus,1,445,,,RelaxSession
1635112244.5,fixation,1,445,,,RelaxSession
1635112246.0,stimulus,1,446,,,RelaxSession
1635112246.5,fixation,1,446,,,RelaxSession
1635112248.0,stimulus,1,447,,,RelaxSession
1635112248.5,fixation,1,447,,,RelaxSession
1635112250.0,stimulus,1,448,,,RelaxSession
1635112250.5,fixation,1,448,,,RelaxSession
1635112252.0,stimulus,1,449,,,RelaxSession
1635112252.5,fixation,1,449,,,RelaxSession
1635112254.0,stimulus,1,450,,,RelaxSession
1635112254.5,fixation,1,450,,,RelaxSession
1635112256.0,stimulus,1,451,,,RelaxSession
1635112256.5,fixation,1,451,,,RelaxSession
1635112258.0,stimulus,1,452,,,RelaxSession
1635112258.5,fixation,1,452,,,RelaxSession
1635112260.0,stimulus,1,453,,,RelaxSession
1635112260.5,fixation,1,453,,,RelaxSession
1635112262.0,stimulus,1,454,,,RelaxSession
1635112262.5,fixation,1,454,,,RelaxSession
1635112264.0,stimulus,1,455,,,RelaxSession
1635112264.5,fixation,1,455,,,RelaxSession
1635112266.0,stimulus,1,456,,,RelaxSession
1635112266.5,fixation,1,456,,,RelaxSession
1635112268.0,stimulus,1,457,,,RelaxSession
1635112268.5,fixation,1,457,,,RelaxSession
1635112270.0,stimulus,1,458,,,RelaxSession
1635112270.5,fixation,1,458,,,RelaxSession
1635112272.0,stimulus,1,459,,,RelaxSession
1635112272.5,fixation,1,459,,,RelaxSession
1635112274.0,stimulus,1,460,,,RelaxSession
1635112274.5,fixation,1,460,,,RelaxSession
1635112276.0,stimulus,1,461,,,RelaxSession
1635112276.5,fixation,1,461,,,RelaxSession
1635112278.0,stimulus,1,462,,,RelaxSession
1635112278.5,fixation,1,462,,,RelaxSession
1635112280.0,stimulus,1,463,,,RelaxSession
1635112280.5,fixation,1,463,,,RelaxSession
1635112282.0,stimulus,1,464,,,RelaxSession
1635112282.5,fixation,1,464,,,RelaxSession
1635112284.0,stimulus,1,465,,,RelaxSession
1635112284.5,fixation,1,465,,,RelaxSession
1635112286.0,stimulus,1,466,,,RelaxSession
1635112286.5,fixation,1,466,,,RelaxSession
1635112288.0,stimulus,1,467,,,RelaxSession
1635112288.5,fixation,1,467,,,RelaxSession
1635112290.0,stimulus,1,468,,,RelaxSession
1635112290.5,fixation,1,468,,,RelaxSession
1635112292.0,stimulus,1,469,,,RelaxSession
1635112292.5,fixation,1,469,,,RelaxSession
1635112294.0,stimulus,1,470,,,RelaxSession
1635112294.5,fixation,1,470,,,RelaxSession
1635112296.0,stimulus,1,471,,,RelaxSession
1635112296.5,fixation,1,471,,,RelaxSession
1635112298.0,stimulus,1,472,,,RelaxSession
1635112298.5,fixation,1,472,,,RelaxSession
1635112300.0,stimulus,1,473,,,RelaxSession
1635112300.5,fixation,1,473,,,RelaxSession
1635112302.0,stimulus,1,474,,,RelaxSession
1635112302.5,fixation,1,474,,,RelaxSession
1635112304.0,stimulus,1,475,,,RelaxSession
1635112304.5,fixation,1,475,,,RelaxSession
1635112306.0,stimulus,1,476,,,RelaxSession
1635112306.5,fixation,1,476,,,RelaxSession
1635112308.0,stimulus,1,477,,,RelaxSession
1635112308.5,fixation,1,477,,,RelaxSession
1635112310.0,stimulus,1,478,,,RelaxSession
1635112310.5,fixation,1,478,,,RelaxSession
1635112312.0,stimulus,1,479,,,RelaxSession
1635112312.5,fixation,1,479,,,RelaxSession
1635112314.0,stimulus,1,480,,,RelaxSession
1635112314.5,fixation,1,480,,,RelaxSession
1635112316.0,stimulus,1,481,,,RelaxSession
1635112316.5,fixation,1,481,,,RelaxSession
1635112318.0,stimulus,1,482,,,RelaxSession
1635112318.5,fixation,1,482,,,RelaxSession
1635112320.0,stimulus,1,483,,,RelaxSession
1635112320.5,fixation,1,483,,,RelaxSession
1635112322.0,stimulus,1,484,,,RelaxSession
1635112322.5,fixation,1,484,,,RelaxSession
1635112324.0,stimulus,1,485,,,RelaxSession
1635112324.5,fixation,1,485,,,RelaxSession
1635112326.0,stimulus,1,486,,,RelaxSession
1635112326.5,fixation,1,486,,,RelaxSession
1635112328.0,stimulus,1,487,,,RelaxSession
1635112328.5,fixation,1,487,,,RelaxSession
1635112330.0,stimulus,1,488,,,RelaxSession
1635112330.5,fixation,1,488,,,RelaxSession
1635112332.0,stimulus,1,489,,,RelaxSession
1635112332.5,fixation,1,489,,,RelaxSession
1635112334.0,stimulus,1,490,,,RelaxSession
1635112334.5,fixation,1,490,,,RelaxSession
1635112336.0,stimulus,1,491,,,RelaxSession
1635112336.5,fixation,1,491,,,RelaxSession
1635112338.0,stimulus,1,492,,,RelaxSession
1635112338.5,fixation,1,492,,,RelaxSession
1635112340.0,stimulus,1,493,,,RelaxSession
1635112340.5,fixation,1,493,,,RelaxSession
1635112342.0,stimulus,1,494,,,RelaxSession
1635112342.5,fixation,1,494,,,RelaxSession
1635112344.0,stimulus,1,495,,,RelaxSession
1635112344.5,fixation,1,495,,,RelaxSession
1635112346.0,stimulus,1,496,,,RelaxSession
1635112346.5,fixation,1,496,,,RelaxSession
1635112348.0,stimulus,1,497,,,RelaxSession
1635112348.5,fixation,1,497,,,RelaxSession
1635112349.0,stimulus,2,1,,,PracticeSession
1635112349.5,fixation,2,1,,,PracticeSession
1635112350.0,stimulus,1,498,,,RelaxSession
1635112350.5,fixation,1,498,,,RelaxSession
1635112351.0,stimulus,2,2,,,PracticeSession
1635112351.5,fixation,2,2,,,PracticeSession
1635112352.0,stimulus,1,499,,,RelaxSession
1635112352.5,fixation,1,499,,,RelaxSession
1635112353.0,stimulus,2,3,,,PracticeSession
1635112353.5,fixation,2,3,,,PracticeSession
1635112354.0,stimulus,1,500,,,RelaxSession
1635112354.5,fixation,1,500,,,RelaxSession
1635112355.0,stimulus,2,4,,,PracticeSession
1635112355.5,fixation,2,4,,,PracticeSession
1635112356.0,stimulus,1,501,,,RelaxSession
1635112356.5,fixation,1,501,,,RelaxSession
1635112357.0,stimulus,2,5,,,PracticeSession
1635112357.5,fixation,2,5,,,PracticeSession
1635112358.0,stimulus,1,502,,,RelaxSession
1635112358.5,fixation,1,502,,,RelaxSession
1635112359.0,stimulus,2,6,,,PracticeSession
1635112359.5,fixation,2,6,,,PracticeSession
1635112360.0,stimulus,1,503,,,RelaxSession
1635112360.5,fixation,1,503,,,RelaxSession
1635112361.0,stimulus,2,7,,,PracticeSession
1635112361.5,fixation,2,7,,,PracticeSession
1635112362.0,stimulus,1,504,,,RelaxSession
1635112362.5,fixation,1,504,,,RelaxSession
1635112363.0,stimulus,2,8,,,PracticeSession
1635112363.5,fixation,2,8,,,PracticeSession
1635112364.0,stimulus,1,505,,,RelaxSession
1635112364.5,fixation,1,505,,,RelaxSession
1635112365.0,stimulus,2,9,,,PracticeSession
1635112365.5,fixation,2,9,,,PracticeSession
1635112366.0,stimulus,1,506,,,RelaxSession
1635112366.5,fixation,1,506,,,RelaxSession
1635112367.0,stimulus,2,10,,,PracticeSession
1635112367.5,fixation,2,10,,,PracticeSession
1635112368.0,stimulus,1,507,,,RelaxSession
1635112368.5,fixation,1,507,,,RelaxSession
1635112369.0,stimulus,2,11,,,PracticeSession
1635112369.5,fixation,2,11,,,PracticeSession
1635112370.0,stimulus,1,508,,,RelaxSession
1635112370.5,fixation,1,508,,,RelaxSession
1635112371.0,stimulus,2,12,,,PracticeSession
1635112371.5,fixation,2,12,,,PracticeSession
1635112372.0,stimulus,1,509,,,RelaxSession
1635112372.5,fixation,1,509,,,RelaxSession
1635112373.0,stimulus,2,13,,,PracticeSession
1635112373.5,fixation,2,13,,,PracticeSession
1635112374.0,stimulus,1,510,,,RelaxSession
1635112374.5,fixation,1,510,,,RelaxSession
1635112375.0,stimulus,2,14,,,PracticeSession
1635112375.5,fixation,2,14,,,PracticeSession
1635112376.0,stimulus,1,511,,,RelaxSession
1635112376.5,fixation,1,511,,,RelaxSession
1635112377.0,stimulus,2,15,,,PracticeSession
1635112377.5,fixation,2,15,,,PracticeSession
1635112378.0,stimulus,1,512,,,RelaxSession
1635112378.5,fixation,1,512,,,RelaxSession
1635112379.0,stimulus,2,16,,,PracticeSession
1635112379.5,fixation,2,16,,,PracticeSession
1635112380.0,stimulus,1,513,,,RelaxSession
1635112380.5,fixation,1,513,,,RelaxSession
1635112381.0,stimulus,2,17,,,PracticeSession
1635112381.5,fixation,2,17,,,PracticeSession
1635112382.0,stimulus,1,514,,,RelaxSession
1635112382.5,fixation,1,514,,,RelaxSession
1635112383.0,stimulus,2,18,,,PracticeSession
1635112383.5,fixation,2,18,,,PracticeSession
1635112384.0,stimulus,1,515,,,RelaxSession
1635112384.5,fixation,1,515,,,RelaxSession
1635112385.0,stimulus,2,19,,,PracticeSession
1635112385.5,fixation,2,19,,,PracticeSession
1635112386.0,stimulus,1,516,,,RelaxSession
1635112386.5,fixation,1,516,,,RelaxSession
1635112387.0,stimulus,2,20,,,PracticeSession
1635112387.5,fixation,2,20,,,PracticeSession
1635112388.0,stimulus,1,517,,,RelaxSession
1635112388.5,fixation,1,517,,,RelaxSession
1635112389.0,stimulus,2,21,,,PracticeSession
1635112389.5,fixation,2,21,,,PracticeSession
1635112390.0,stimulus,1,518,,,RelaxSession
1635112390.5,fixation,1,518,,,RelaxSession
1635112391.0,stimulus,2,22,,,PracticeSession
1635112391.5,fixation,2,22,,,PracticeSession
1635112392.0,stimulus,1,519,,,RelaxSession
1635112392.5,fixation,1,519,,,RelaxSession
1635112393.0,stimulus,2,23,,,PracticeSession
1635112393.5,fixation,2,23,,,PracticeSession
1635112394.0,stimulus,1,520,,,RelaxSession
1635112394.5,fixation,1,520,,,RelaxSession
1635112395.0,stimulus,2,24,,,PracticeSession
1635112395.5,fixation,2,24,,,PracticeSession
1635112396.0,stimulus,1,521,,,RelaxSession
1635112396.5,fixation,1,521,,,RelaxSession
1635112397.0,stimulus,2,25,,,PracticeSession
1635112397.5,fixation,2,25,,,PracticeSession
1635112398.0,stimulus,1,522,,,RelaxSession
1635112398.5,fixation,1,522,,,RelaxSession
1635112399.0,stimulus,2,26,,,PracticeSession
1635112399.5,fixation,2,26,,,PracticeSession
1635112400.0,stimulus,1,523,,,RelaxSession
1635112400.5,fixation,1,523,,,RelaxSession
1635112401.0,stimulus,2,27,,,PracticeSession
1635112401.5,fixation,2,27,,,PracticeSession
1635112402.0,stimulus,1,524,,,RelaxSession
1635112402.5,fixation,1,524,,,RelaxSession
1635112403.0,stimulus,2,28,,,PracticeSession
1635112403.5,fixation,2,28,,,PracticeSession
1635112404.0,stimulus,1,525,,,RelaxSession
1635112404.5,fixation,1,525,,,RelaxSession
1635112405.0,stimulus,2,29,,,PracticeSession
1635112405.5,fixation,2,29,,,PracticeSession
1635112406.0,stimulus,1,526,,,RelaxSession
1635112406.5,fixation,1,526,,,RelaxSession
1635112407.0,stimulus,2,30,,,PracticeSession
1635112407.5,fixation,2,30,,,PracticeSession
1635112408.0,stimulus,1,527,,,RelaxSession
1635112408.5,fixation,1,527,,,RelaxSession
1635112409.0,stimulus,2,31,,,PracticeSession
1635112409.5,fixation,2,31,,,PracticeSession
1635112410.0,stimulus,1,528,,,RelaxSession
1635112410.5,fixation,1,528,,,RelaxSession
1635112411.0,stimulus,2,32,,,PracticeSession
1635112411.5,fixation,2,32,,,PracticeSession
1635112412.0,stimulus,1,529,,,RelaxSession
1635112412.5,fixation,1,529,,,RelaxSession
1635112413.0,stimulus,2,33,,,PracticeSession
1635112413.5,fixation,2,33,,,PracticeSession
1635112414.0,stimulus,1,530,,,RelaxSession
1635112414.5,fixation,1,530,,,RelaxSession
1635112415.0,stimulus,2,34,,,PracticeSession
1635112415.5,fixation,2,34,,,PracticeSession
1635112416.0,stimulus,1,531,,,RelaxSession
1635112416.5,fixation,1,531,,,RelaxSession
1635112417.0,stimulus,2,35,,,PracticeSession
1635112417.5,fixation,2,35,,,PracticeSession
1635112418.0,stimulus,1,532,,,RelaxSession
1635112418.5,fixation,1,532,,,RelaxSession
1635112419.0,stimulus,2,36,,,PracticeSession
1635112419.5,fixation,2,36,,,PracticeSession
1635112420.0,stimulus,1,533,,,RelaxSession
1635112420.5,fixation,1,533,,,RelaxSession
1635112421.0,stimulus,2,37,,,PracticeSession
1635112421.5,fixation,2,37,,,PracticeSession
1635112422.0,stimulus,1,534,,,RelaxSession
1635112422.5,fixation,1,534,,,RelaxSession
1635112423.0,stimulus,2,38,,,PracticeSession
1635112423.5,fixation,2,38,,,PracticeSession
1635112424.0,stimulus,1,535,,,RelaxSession
1635112424.5,fixation,1,535,,,RelaxSession
1635112425.0,stimulus,2,39,,,PracticeSession
1635112425.5,fixation,2,39,,,PracticeSession
1635112426.0,stimulus,1,536,,,RelaxSession
1635112426.5,fixation,1,536,,,RelaxSession
1635112427.0,stimulus,2,40,,,PracticeSession
1635112427.5,fixation,2,40,,,PracticeSession
1635112428.0,stimulus,1,537,,,RelaxSession
1635112428.5,fixation,1,537,,,RelaxSession
1635112429.0,stimulus,2,41,,,PracticeSession
1635112429.5,fixation,2,41,,,PracticeSession
1635112430.0,stimulus,1,538,,,RelaxSession
1635112430.5,fixation,1,538,,,RelaxSession
1635112431.0,stimulus,2,42,,,PracticeSession
1635112431.5,fixation,2,42,,,PracticeSession
1635112432.0,stimulus,1,539,,,RelaxSession
1635112432.5,fixation,1,539,,,RelaxSession
1635112433.0,stimulus,2,43,,,PracticeSession
1635112433.5,fixation,2,43,,,PracticeSession
1635112434.0,stimulus,1,540,,,RelaxSession
1635112434.5,fixation,1,540,,,RelaxSession
1635112435.0,stimulus,2,44,,,PracticeSession
1635112435.5,fixation,2,44,,,PracticeSession
1635112436.0,stimulus,1,541,,,RelaxSession
1635112436.5,fixation,1,541,,,RelaxSession
1635112437.0,stimulus,2,45,,,NoMusic
1635112437.5,fixation,2,45,,,NoMusic
1635112438.0,stimulus,1,542,,,RelaxSession
1635112438.5,fixation,1,542,,,RelaxSession
1635112439.0,stimulus,2,46,,,NoMusic
1635112439.5,fixation,2,46,,,NoMusic
1635112440.0,stimulus,1,543,,,RelaxSession
1635112440.5,fixation,1,543,,,RelaxSession
1635112441.0,stimulus,2,47,,,NoMusic
1635112441.5,fixation,2,47,,,NoMusic
1635112442.0,stimulus,1,544,,,RelaxSession
1635112442.5,fixation,1,544,,,RelaxSession
1635112443.0,stimulus,2,48,,,NoMusic
1635112443.5,fixation,2,48,,,NoMusic
1635112444.0,stimulus,1,545,,,RelaxSession
1635112444.5,fixation,1,545,,,RelaxSession
1635112445.0,stimulus,2,49,,,NoMusic
1635112445.5,fixation,2,49,,,NoMusic
1635112446.0,stimulus,1,546,,,RelaxSession
1635112446.5,fixation,1,546,,,RelaxSession
1635112447.0,stimulus,2,50,,,NoMusic
1635112447.5,fixation,2,50,,,NoMusic
1635112448.0,stimulus,1,547,,,RelaxSession
1635112448.5,fixation,1,547,,,RelaxSession
1635112449.0,stimulus,2,51,,,NoMusic
1635112449.5,fixation,2,51,,,NoMusic
1635112450.0,stimulus,1,548,,,RelaxSession
1635112450.5,fixation,1,548,,,RelaxSession
1635112451.0,stimulus,2,52,,,NoMusic
1635112451.5,fixation,2,52,,,NoMusic
1635112452.0,stimulus,1,549,,,RelaxSession
1635112452.5,fixation,1,549,,,RelaxSession
1635112453.0,stimulus,2,53,,,NoMusic
1635112453.5,fixation,2,53,,,NoMusic
1635112454.0,stimulus,1,550,,,RelaxSession
1635112454.5,fixation,1,550,,,RelaxSession
1635112455.0,stimulus,2,54,,,NoMusic
1635112455.5,fixation,2,54,,,NoMusic
1635112456.0,stimulus,1,551,,,RelaxSession
1635112456.5,fixation,1,551,,,RelaxSession
1635112457.0,stimulus,2,55,,,NoMusic
1635112457.5,fixation,2,55,,,NoMusic
1635112458.0,stimulus,1,552,,,RelaxSession
1635112458.5,fixation,1,552,,,RelaxSession
1635112459.0,stimulus,2,56,,,NoMusic
1635112459.5,fixation,2,56,,,NoMusic
1635112460.0,stimulus,1,553,,,RelaxSession
1635112460.5,fixation,1,553,,,RelaxSession
1635112461.0,stimulus,2,57,,,NoMusic
1635112461.5,fixation,2,57,,,NoMusic
1635112462.0,stimulus,1,554,,,RelaxSession
1635112462.5,fixation,1,554,,,RelaxSession
1635112463.0,stimulus,2,58,,,NoMusic
1635112463.5,fixation,2,58,,,NoMusic
1635112464.0,stimulus,1,555,,,RelaxSession
1635112464.5,fixation,1,555,,,RelaxSession
1635112465.0,stimulus,2,59,,,NoMusic
1635112465.5,fixation,2,59,,,NoMusic
1635112466.0,stimulus,1,556,,,RelaxSession
1635112466.5,fixation,1,556,,,RelaxSession
1635112467.0,stimulus,2,60,,,NoMusic
1635112467.5,fixation,2,60,,,NoMusic
1635112468.0,stimulus,1,557,,,RelaxSession
1635112468.5,fixation,1,557,,,RelaxSession
1635112469.0,stimulus,2,61,,,NoMusic
1635112469.5,fixation,2,61,,,NoMusic
1635112470.0,stimulus,1,558,,,RelaxSession
1635112470.5,fixation,1,558,,,RelaxSession
1635112471.0,stimulus,2,62,,,NoMusic
1635112471.5,fixation,2,62,,,NoMusic
1635112472.0,stimulus,1,559,,,RelaxSession
1635112472.5,fixation,1,559,,,RelaxSession
1635112473.0,stimulus,2,63,,,NoMusic
1635112473.5,fixation,2,63,,,NoMusic
1635112474.0,stimulus,1,560,,,RelaxSession
1635112474.5,fixation,1,560,,,RelaxSession
1635112475.0,stimulus,2,64,,,NoMusic
1635112475.5,fixation,2,64,,,NoMusic
1635112476.0,stimulus,1,561,,,RelaxSession
1635112476.5,fixation,1,561,,,RelaxSession
1635112477.0,stimulus,2,65,,,NoMusic
1635112477.5,fixation,2,65,,,NoMusic
1635112478.0,stimulus,1,562,,,RelaxSession
1635112478.5,fixation,1,562,,,RelaxSession
1635112479.0,stimulus,2,66,,,NoMusic
1635112479.5,fixation,2,66,,,NoMusic
1635112480.0,stimulus,1,563,,,RelaxSession
1635112480.5,fixation,1,563,,,RelaxSession
1635112481.0,stimulus,2,67,,,NoMusic
1635112481.5,fixation,2,67,,,NoMusic
1635112482.0,stimulus,1,564,,,RelaxSession
1635112482.5,fixation,1,564,,,RelaxSession
1635112483.0,stimulus,2,68,,,NoMusic
1635112483.5,fixation,2,68,,,NoMusic
1635112484.0,stimulus,1,565,,,RelaxSession
1635112484.5,fixation,1,565,,,RelaxSession
1635112485.0,stimulus,2,69,,,NoMusic
1635112485.5,fixation,2,69,,,NoMusic
1635112486.0,stimulus,1,566,,,RelaxSession
1635112486.5,fixation,1,566,,,RelaxSession
1635112487.0,stimulus,2,70,,,NoMusic
1635112487.5,fixation,2,70,,,NoMusic
1635112488.0,stimulus,1,567,,,RelaxSession
1635112488.5,fixation,1,567,,,RelaxSession
1635112489.0,stimulus,2,71,,,NoMusic
1635112489.5,fixation,2,71,,,NoMusic
1635112490.0,stimulus,1,568,,,RelaxSession
1635112490.5,fixation,1,568,,,RelaxSession
1635112491.0,stimulus,2,72,,,NoMusic
1635112491.5,fixation,2,72,,,NoMusic
1635112492.0,stimulus,1,569,,,RelaxSession
1635112492.5,fixation,1,569,,,RelaxSession
1635112493.0,stimulus,2,73,,,NoMusic
1635112493.5,fixation,2,73,,,NoMusic
1635112494.0,stimulus,1,570,,,RelaxSession
1635112494.5,fixation,1,570,,,RelaxSession
1635112495.0,stimulus,2,74,,,NoMusic
1635112495.5,fixation,2,74,,,NoMusic
1635112496.0,stimulus,1,571,,,RelaxSession
1635112496.5,fixation,1,571,,,RelaxSession
1635112497.0,stimulus,2,75,,,NoMusic
1635112497.5,fixation,2,75,,,NoMusic
1635112498.0,stimulus,1,572,,,RelaxSession
1635112498.5,fixation,1,572,,,RelaxSession
1635112499.0,stimulus,2,76,,,NoMusic
1635112499.5,fixation,2,76,,,NoMusic
1635112500.0,stimulus,1,573,,,RelaxSession
1635112500.5,fixation,1,573,,,RelaxSession
1635112501.0,stimulus,2,77,,,NoMusic
1635112501.5,fixation,2,77,,,NoMusic
1635112502.0,stimulus,1,574,,,RelaxSession
1635112502.5,fixation,1,574,,,RelaxSession
1635112503.0,stimulus,2,78,,,NoMusic
1635112503.5,fixation,2,78,,,NoMusic
1635112504.0,stimulus,1,575,,,RelaxSession
1635112504.5,fixation,1,575,,,RelaxSession
1635112505.0,stimulus,2,79,,,NoMusic
1635112505.5,fixation,2,79,,,NoMusic
1635112506.0,stimulus,1,576,,,RelaxSession
1635112506.5,fixation,1,576,,,RelaxSession
1635112507.0,stimulus,2,80,,,NoMusic
1635112507.5,fixation,2,80,,,NoMusic
1635112508.0,stimulus,1,577,,,RelaxSession
1635112508.5,fixation,1,577,,,RelaxSession
1635112509.0,stimulus,2,81,,,NoMusic
1635112509.5,fixation,2,81,,,NoMusic
1635112510.0,stimulus,1,578,,,RelaxSession
1635112510.5,fixation,1,578,,,RelaxSession
1635112511.0,stimulus,2,82,,,NoMusic
1635112511.5,fixation,2,82,,,NoMusic
1635112512.0,stimulus,1,579,,,RelaxSession
1635112512.5,fixation,1,579,,,RelaxSession
1635112513.0,stimulus,2,83,,,NoMusic
1635112513.5,fixation,2,83,,,NoMusic
1635112514.0,stimulus,1,580,,,RelaxSession
1635112514.5,fixation,1,580,,,RelaxSession
1635112515.0,stimulus,2,84,,,NoMusic
1635112515.5,fixation,2,84,,,NoMusic
1635112516.0,stimulus,1,581,,,RelaxSession
1635112516.5,fixation,1,581,,,RelaxSession
1635112517.0,stimulus,2,85,,,NoMusic
1635112517.5,fixation,2,85,,,NoMusic
1635112518.0,stimulus,1,582,,,RelaxSession
1635112518.5,fixation,1,582,,,RelaxSession
1635112519.0,stimulus,2,86,,,NoMusic
1635112519.5,fixation,2,86,,,NoMusic
1635112520.0,stimulus,1,583,,,RelaxSession
1635112520.5,fixation,1,583,,,RelaxSession
1635112521.0,stimulus,2,87,,,NoMusic
1635112521.5,fixation,2,87,,,NoMusic
1635112522.0,stimulus,1,584,,,RelaxSession
1635112522.5,fixation,1,584,,,RelaxSession
1635112523.0,stimulus,2,88,,,NoMusic
1635112523.5,fixation,2,88,,,NoMusic
1635112524.0,stimulus,1,585,,,RelaxSession
1635112524.5,fixation,1,585,,,RelaxSession
1635112525.0,stimulus,2,89,,,NoMusic
1635112525.5,fixation,2,89,,,NoMusic
1635112526.0,stimulus,1,586,,,RelaxSession
1635112526.5,fixation,1,586,,,RelaxSession
1635112527.0,stimulus,2,90,,,NoMusic
1635112527.5,fixation,2,90,,,NoMusic
1635112528.0,stimulus,1,587,,,RelaxSession
1635112528.5,fixation,1,587,,,RelaxSession
1635112529.0,stimulus,2,91,,,NoMusic
1635112529.5,fixation,2,91,,,NoMusic
1635112530.0,stimulus,1,588,,,RelaxSession
1635112530.5,fixation,1,588,,,RelaxSession
1635112531.0,stimulus,2,92,,,NoMusic
1635112531.5,fixation,2,92,,,NoMusic
1635112532.0,stimulus,1,589,,,RelaxSession
1635112532.5,fixation,1,589,,,RelaxSession
1635112533.0,stimulus,2,93,,,NoMusic
1635112533.5,fixation,2,93,,,NoMusic
1635112534.0,stimulus,1,590,,,RelaxSession
1635112534.5,fixation,1,590,,,RelaxSession
1635112535.0,stimulus,2,94,,,NoMusic
1635112535.5,fixation,2,94,,,NoMusic
1635112536.0,stimulus,1,591,,,RelaxSession
1635112536.5,fixation,1,591,,,RelaxSession
1635112537.0,stimulus,2,95,,,NoMusic
1635112537.5,fixation,2,95,,,NoMusic
1635112538.0,stimulus,1,592,,,RelaxSession
1635112538.5,fixation,1,592,,,RelaxSession
1635112539.0,stimulus,2,96,,,NoMusic
1635112539.5,fixation,2,96,,,NoMusic
1635112540.0,stimulus,1,593,,,RelaxSession
1635112540.5,fixation,1,593,,,RelaxSession
1635112541.0,stimulus,2,97,,,NoMusic
1635112541.5,fixation,2,97,,,NoMusic
1635112542.0,stimulus,1,594,,,RelaxSession
1635112542.5,fixation,1,594,,,RelaxSession
1635112543.0,stimulus,2,98,,,NoMusic
1635112543.5,fixation,2,98,,,NoMusic
1635112544.0,stimulus,1,595,,,RelaxSession
1635112544.5,fixation,1,595,,,RelaxSession
1635112545.0,stimulus,2,99,,,NoMusic
1635112545.5,fixation,2,99,,,NoMusic
1635112546.0,stimulus,1,596,,,RelaxSession
1635112546.5,fixation,1,596,,,RelaxSession
1635112547.0,stimulus,2,100,,,NoMusic
1635112547.5,fixation,2,100,,,NoMusic
1635112548.0,stimulus,1,597,,,RelaxSession
1635112548.0,stimulus,3,1,,,PracticeSession
1635112548.5,fixation,3,1,,,PracticeSession
1635112548.5,fixation,1,597,,,RelaxSession
1635112549.0,stimulus,2,101,,,NoMusic
1635112549.5,fixation,2,101,,,NoMusic
1635112550.0,stimulus,3,2,,,PracticeSession
1635112550.0,stimulus,1,598,,,RelaxSession
1635112550.5,fixation,3,2,,,PracticeSession
1635112550.5,fixation,1,598,,,RelaxSession
1635112551.0,stimulus,2,102,,,NoMusic
1635112551.5,fixation,2,102,,,NoMusic
1635112552.0,stimulus,1,599,,,RelaxSession
1635112552.0,stimulus,3,3,,,PracticeSession
1635112552.5,fixation,3,3,,,PracticeSession
1635112552.5,fixation,1,599,,,RelaxSession
1635112553.0,stimulus,2,103,,,NoMusic
1635112553.5,fixation,2,103,,,NoMusic
1635112554.0,stimulus,1,600,,,RelaxSession
1635112554.0,stimulus,3,4,,,PracticeSession
1635112554.5,fixation,3,4,,,PracticeSession
1635112554.5,fixation,1,600,,,RelaxSession
1635112555.0,stimulus,2,104,,,NoMusic
1635112555.5,fixation,2,104,,,NoMusic
1635112556.0,stimulus,1,601,,,RelaxSession
1635112556.0,stimulus,3,5,,,PracticeSession
1635112556.5,fixation,1,601,,,RelaxSession
1635112556.5,fixation,3,5,,,PracticeSession
1635112557.0,stimulus,2,105,,,NoMusic
1635112557.5,fixation,2,105,,,NoMusic
1635112558.0,stimulus,1,602,,,RelaxSession
1635112558.0,stimulus,3,6,,,PracticeSession
1635112558.5,fixation,3,6,,,PracticeSession
1635112558.5,fixation,1,602,,,RelaxSession
1635112559.0,stimulus,2,106,,,NoMusic
1635112559.5,fixation,2,106,,,NoMusic
1635112560.0,stimulus,3,7,,,PracticeSession
1635112560.0,stimulus,1,603,,,RelaxSession
1635112560.5,fixation,1,603,,,RelaxSession
1635112560.5,fixation,3,7,,,PracticeSession
1635112561.0,stimulus,2,107,,,NoMusic
1635112561.5,fixation,2,107,,,NoMusic
1635112562.0,stimulus,3,8,,,PracticeSession
1635112562.0,stimulus,1,604,,,RelaxSession
1635112562.5,fixation,1,604,,,RelaxSession
1635112562.5,fixation,3,8,,,PracticeSession
1635112563.0,stimulus,2,108,,,NoMusic
1635112563.5,fixation,2,108,,,NoMusic
1635112564.0,stimulus,1,605,,,RelaxSession
1635112564.0,stimulus,3,9,,,PracticeSession
1635112564.5,fixation,3,9,,,PracticeSession
1635112564.5,fixation,1,605,,,RelaxSession
1635112565.0,stimulus,2,109,,,NoMusic
1635112565.5,fixation,2,109,,,NoMusic
1635112566.0,stimulus,1,606,,,RelaxSession
1635112566.0,stimulus,3,10,,,PracticeSession
1635112566.5,fixation,3,10,,,PracticeSession
1635112566.5,fixation,1,606,,,RelaxSession
1635112567.0,stimulus,2,110,,,NoMusic
1635112567.5,fixation,2,110,,,NoMusic
1635112568.0,stimulus,1,607,,,RelaxSession
1635112568.0,stimulus,3,11,,,PracticeSession
1635112568.5,fixation,3,11,,,PracticeSession
1635112568.5,fixation,1,607,,,RelaxSession
1635112569.0,stimulus,2,111,,,NoMusic
1635112569.5,fixation,2,111,,,NoMusic
1635112570.0,stimulus,1,608,,,RelaxSession
1635112570.0,stimulus,3,12,,,PracticeSession
1635112570.5,fixation,3,12,,,PracticeSession
1635112570.5,fixation,1,608,,,RelaxSession
1635112571.0,stimulus,2,112,,,NoMusic
1635112571.5,fixation,2,112,,,NoMusic
1635112572.0,stimulus,1,609,,,RelaxSession
1635112572.0,stimulus,3,13,,,PracticeSession
1635112572.5,fixation,3,13,,,PracticeSession
1635112572.5,fixation,1,609,,,RelaxSession
1635112573.0,stimulus,2,113,,,NoMusic
1635112573.5,fixation,2,113,,,NoMusic
1635112574.0,stimulus,1,610,,,RelaxSession
1635112574.0,stimulus,3,14,,,PracticeSession
1635112574.5,fixation,3,14,,,PracticeSession
1635112574.5,fixation,1,610,,,RelaxSession
1635112575.0,stimulus,2,114,,,NoMusic
1635112575.5,fixation,2,114,,,NoMusic
1635112576.0,stimulus,1,611,,,RelaxSession
1635112576.0,stimulus,3,15,,,PracticeSession
1635112576.5,fixation,3,15,,,PracticeSession
1635112576.5,fixation,1,611,,,RelaxSession
1635112577.0,stimulus,2,115,,,NoMusic
1635112577.5,fixation,2,115,,,NoMusic
1635112578.0,stimulus,3,16,,,PracticeSession
1635112578.0,stimulus,1,612,,,RelaxSession
1635112578.5,fixation,3,16,,,PracticeSession
1635112578.5,fixation,1,612,,,RelaxSession
1635112579.0,stimulus,2,116,,,NoMusic
1635112579.5,fixation,2,116,,,NoMusic
1635112580.0,stimulus,1,613,,,RelaxSession
1635112580.0,stimulus,3,17,,,PracticeSession
1635112580.5,fixation,1,613,,,RelaxSession
1635112580.5,fixation,3,17,,,PracticeSession
1635112581.0,stimulus,2,117,,,NoMusic
1635112581.5,fixation,2,117,,,NoMusic
1635112582.0,stimulus,1,614,,,RelaxSession
1635112582.0,stimulus,3,18,,,PracticeSession
1635112582.5,fixation,1,614,,,RelaxSession
1635112582.5,fixation,3,18,,,PracticeSession
1635112583.0,stimulus,2,118,,,NoMusic
1635112583.5,fixation,2,118,,,NoMusic
1635112584.0,stimulus,3,19,,,PracticeSession
1635112584.0,stimulus,1,615,,,RelaxSession
1635112584.5,fixation,1,615,,,RelaxSession
1635112584.5,fixation,3,19,,,PracticeSession
1635112585.0,stimulus,2,119,,,NoMusic
1635112585.5,fixation,2,119,,,NoMusic
1635112586.0,stimulus,3,20,,,PracticeSession
1635112586.0,stimulus,1,616,,,RelaxSession
1635112586.5,fixation,1,616,,,RelaxSession
1635112586.5,fixation,3,20,,,PracticeSession
1635112587.0,stimulus,2,120,,,NoMusic
1635112587.5,fixation,2,120,,,NoMusic
1635112588.0,stimulus,1,617,,,RelaxSession
1635112588.0,stimulus,3,21,,,PracticeSession
1635112588.5,fixation,3,21,,,PracticeSession
1635112588.5,fixation,1,617,,,RelaxSession
1635112589.0,stimulus,2,121,,,NoMusic
1635112589.5,fixation,2,121,,,NoMusic
1635112590.0,stimulus,1,618,,,RelaxSession
1635112590.0,stimulus,3,22,,,PracticeSession
1635112590.5,fixation,3,22,,,PracticeSession
1635112590.5,fixation,1,618,,,RelaxSession
1635112591.0,stimulus,2,122,,,NoMusic
1635112591.5,fixation,2,122,,,NoMusic
1635112592.0,stimulus,1,619,,,RelaxSession
1635112592.0,stimulus,3,23,,,PracticeSession
1635112592.5,fixation,3,23,,,PracticeSession
1635112592.5,fixation,1,619,,,RelaxSession
1635112593.0,stimulus,2,123,,,NoMusic
1635112593.5,fixation,2,123,,,NoMusic
1635112594.0,stimulus,1,620,,,RelaxSession
1635112594.0,stimulus,3,24,,,PracticeSession
1635112594.5,fixation,3,24,,,PracticeSession
1635112594.5,fixation,1,620,,,RelaxSession
1635112595.0,stimulus,2,124,,,NoMusic
1635112595.5,fixation,2,124,,,NoMusic
1635112596.0,stimulus,1,621,,,RelaxSession
1635112596.0,stimulus,3,25,,,PracticeSession
1635112596.5,fixation,3,25,,,PracticeSession
1635112596.5,fixation,1,621,,,RelaxSession
1635112597.0,stimulus,2,125,,,NoMusic
1635112597.5,fixation,2,125,,,NoMusic
1635112598.0,stimulus,1,622,,,RelaxSession
1635112598.0,stimulus,3,26,,,PracticeSession
1635112598.5,fixation,3,26,,,PracticeSession
1635112598.5,fixation,1,622,,,RelaxSession
1635112599.0,stimulus,2,126,,,NoMusic
1635112599.5,fixation,2,126,,,NoMusic
1635112600.0,stimulus,1,623,,,RelaxSession
1635112600.0,stimulus,3,27,,,PracticeSession
1635112600.5,fixation,1,623,,,RelaxSession
1635112600.5,fixation,3,27,,,PracticeSession
1635112601.0,stimulus,2,127,,,NoMusic
1635112601.5,fixation,2,127,,,NoMusic
1635112602.0,stimulus,3,28,,,PracticeSession
1635112602.0,stimulus,1,624,,,RelaxSession
1635112602.5,fixation,1,624,,,RelaxSession
1635112602.5,fixation,3,28,,,PracticeSession
1635112603.0,stimulus,2,128,,,NoMusic
1635112603.5,fixation,2,128,,,NoMusic
1635112604.0,stimulus,3,29,,,PracticeSession
1635112604.0,stimulus,1,625,,,RelaxSession
1635112604.5,fixation,1,625,,,RelaxSession
1635112604.5,fixation,3,29,,,PracticeSession
1635112605.0,stimulus,2,129,,,NoMusic
1635112605.5,fixation,2,129,,,NoMusic
1635112606.0,stimulus,3,30,,,PracticeSession
1635112606.0,stimulus,1,626,,,RelaxSession
1635112606.5,fixation,1,626,,,RelaxSession
1635112606.5,fixation,3,30,,,PracticeSession
1635112607.0,stimulus,2,130,,,NoMusic
1635112607.5,fixation,2,130,,,NoMusic
1635112608.0,stimulus,3,31,,,PracticeSession
1635112608.0,stimulus,1,627,,,RelaxSession
1635112608.5,fixation,3,31,,,PracticeSession
1635112608.5,fixation,1,627,,,RelaxSession
1635112609.0,stimulus,2,131,,,NoMusic
1635112609.5,fixation,2,131,,,NoMusic
1635112610.0,stimulus,1,628,,,RelaxSession
1635112610.0,stimulus,3,32,,,PracticeSession
1635112610.5,fixation,3,32,,,PracticeSession
1635112610.5,fixation,1,628,,,RelaxSession
1635112611.0,stimulus,2,132,,,NoMusic
1635112611.5,fixation,2,132,,,NoMusic
1635112612.0,stimulus,1,629,,,RelaxSession
1635112612.0,stimulus,3,33,,,PracticeSession
1635112612.5,fixation,3,33,,,PracticeSession
1635112612.5,fixation,1,629,,,RelaxSession
1635112613.0,stimulus,2,133,,,NoMusic
1635112613.5,fixation,2,133,,,NoMusic
1635112614.0,stimulus,1,630,,,RelaxSession
1635112614.0,stimulus,3,34,,,PracticeSession
1635112614.5,fixation,3,34,,,PracticeSession
1635112614.5,fixation,1,630,,,RelaxSession
1635112615.0,stimulus,2,134,,,NoMusic
1635112615.5,fixation,2,134,,,NoMusic
1635112616.0,stimulus,1,631,,,RelaxSession
1635112616.0,stimulus,3,35,,,PracticeSession
1635112616.5,fixation,3,35,,,PracticeSession
1635112616.5,fixation,1,631,,,RelaxSession
1635112617.0,stimulus,2,135,,,NoMusic
1635112617.5,fixation,2,135,,,NoMusic
1635112618.0,stimulus,1,632,,,RelaxSession
1635112618.0,stimulus,3,36,,,PracticeSession
1635112618.5,fixation,3,36,,,PracticeSession
1635112618.5,fixation,1,632,,,RelaxSession
1635112619.0,stimulus,2,136,,,NoMusic
1635112619.5,fixation,2,136,,,NoMusic
1635112620.0,stimulus,1,633,,,RelaxSession
1635112620.0,stimulus,3,37,,,PracticeSession
1635112620.5,fixation,3,37,,,PracticeSession
1635112620.5,fixation,1,633,,,RelaxSession
1635112621.0,stimulus,2,137,,,NoMusic
1635112621.5,fixation,2,137,,,NoMusic
1635112622.0,stimulus,1,634,,,RelaxSession
1635112622.0,stimulus,3,38,,,PracticeSession
1635112622.5,fixation,3,38,,,PracticeSession
1635112622.5,fixation,1,634,,,RelaxSession
1635112623.0,stimulus,2,138,,,NoMusic
1635112623.5,fixation,2,138,,,NoMusic
1635112624.0,stimulus,3,39,,,PracticeSession
1635112624.0,stimulus,1,635,,,RelaxSession
1635112624.5,fixation,1,635,,,RelaxSession
1635112624.5,fixation,3,39,,,PracticeSession
1635112625.0,stimulus,2,139,,,NoMusic
1635112625.5,fixation,2,139,,,NoMusic
1635112626.0,stimulus,3,40,,,PracticeSession
1635112626.0,stimulus,1,636,,,RelaxSession
1635112626.5,fixation,1,636,,,RelaxSession
1635112626.5,fixation,3,40,,,PracticeSession
1635112627.0,stimulus,2,140,,,NoMusic
1635112627.5,fixation,2,140,,,NoMusic
1635112628.0,stimulus,3,41,,,PracticeSession
1635112628.0,stimulus,1,637,,,RelaxSession
1635112628.5,fixation,1,637,,,RelaxSession
1635112628.5,fixation,3,41,,,PracticeSession
1635112629.0,stimulus,2,141,,,NoMusic
1635112629.5,fixation,2,141,,,NoMusic
1635112630.0,stimulus,3,42,,,PracticeSession
1635112630.0,stimulus,1,638,,,RelaxSession
1635112630.5,fixation,1,638,,,RelaxSession
1635112630.5,fixation,3,42,,,PracticeSession
1635112631.0,stimulus,2,142,,,NoMusic
1635112631.5,fixation,2,142,,,NoMusic
1635112632.0,stimulus,3,43,,,PracticeSession
1635112632.0,stimulus,1,639,,,RelaxSession
1635112632.5,fixation,1,639,,,RelaxSession
1635112632.5,fixation,3,43,,,PracticeSession
1635112633.0,stimulus,2,143,,,NoMusic
1635112633.5,fixation,2,143,,,NoMusic
1635112634.0,stimulus,3,44,,,PracticeSession
1635112634.0,stimulus,1,640,,,RelaxSession
1635112634.5,fixation,1,640,,,RelaxSession
1635112634.5,fixation,3,44,,,PracticeSession
1635112635.0,stimulus,2,144,,,NoMusic
1635112635.5,fixation,2,144,,,NoMusic
1635112636.0,stimulus,3,45,,,NoMusic
1635112636.0,stimulus,1,641,,,RelaxSession
1635112636.5,fixation,1,641,,,RelaxSession
1635112636.5,fixation,3,45,,,NoMusic
1635112637.0,stimulus,2,145,,,NoMusic
1635112637.5,fixation,2,145,,,NoMusic
1635112638.0,stimulus,3,46,,,NoMusic
1635112638.0,stimulus,1,642,,,RelaxSession
1635112638.5,fixation,1,642,,,RelaxSession
1635112638.5,fixation,3,46,,,NoMusic
1635112639.0,stimulus,2,146,,,NoMusic
1635112639.5,fixation,2,146,,,NoMusic
1635112640.0,stimulus,3,47,,,NoMusic
1635112640.0,stimulus,1,643,,,RelaxSession
1635112640.5,fixation,1,643,,,RelaxSession
1635112640.5,fixation,3,47,,,NoMusic
1635112641.0,stimulus,2,147,,,NoMusic
1635112641.5,fixation,2,147,,,NoMusic
1635112642.0,stimulus,3,48,,,NoMusic
1635112642.0,stimulus,1,644,,,RelaxSession
1635112642.5,fixation,1,644,,,RelaxSession
1635112642.5,fixation,3,48,,,NoMusic
1635112643.0,stimulus,2,148,,,NoMusic
1635112643.5,fixation,2,148,,,NoMusic
1635112644.0,stimulus,3,49,,,NoMusic
1635112644.0,stimulus,1,645,,,RelaxSession
1635112644.5,fixation,1,645,,,RelaxSession
1635112644.5,fixation,3,49,,,NoMusic
1635112645.0,stimulus,2,149,,,NoMusic
1635112645.5,fixation,2,149,,,NoMusic
1635112646.0,stimulus,1,646,,,RelaxSession
1635112646.0,stimulus,3,50,,,NoMusic
1635112646.5,fixation,3,50,,,NoMusic
1635112646.5,fixation,1,646,,,RelaxSession
1635112647.0,stimulus,2,150,,,NoMusic
1635112647.5,fixation,2,150,,,NoMusic
1635112648.0,stimulus,1,647,,,RelaxSession
1635112648.0,stimulus,3,51,,,NoMusic
1635112648.5,fixation,3,51,,,NoMusic
1635112648.5,fixation,1,647,,,RelaxSession
1635112649.0,stimulus,2,151,,,NoMusic
1635112649.5,fixation,2,151,,,NoMusic
1635112650.0,stimulus,1,648,,,RelaxSession
1635112650.0,stimulus,3,52,,,NoMusic
1635112650.5,fixation,3,52,,,NoMusic
1635112650.5,fixation,1,648,,,RelaxSession
1635112651.0,stimulus,2,152,,,NoMusic
1635112651.5,fixation,2,152,,,NoMusic
1635112652.0,stimulus,3,53,,,NoMusic
1635112652.0,stimulus,1,649,,,RelaxSession
1635112652.5,fixation,3,53,,,NoMusic
1635112652.5,fixation,1,649,,,RelaxSession
1635112653.0,stimulus,2,153,,,NoMusic
1635112653.5,fixation,2,153,,,NoMusic
1635112654.0,stimulus,1,650,,,RelaxSession
1635112654.0,stimulus,3,54,,,NoMusic
1635112654.5,fixation,3,54,,,NoMusic
1635112654.5,fixation,1,650,,,RelaxSession
1635112655.0,stimulus,2,154,,,NoMusic
1635112655.5,fixation,2,154,,,NoMusic
1635112656.0,stimulus,1,651,,,RelaxSession
1635112656.0,stimulus,3,55,,,NoMusic
1635112656.5,fixation,3,55,,,NoMusic
1635112656.5,fixation,1,651,,,RelaxSession
1635112657.0,stimulus,2,155,,,NoMusic
1635112657.5,fixation,2,155,,,NoMusic
1635112658.0,stimulus,1,652,,,RelaxSession
1635112658.0,stimulus,3,56,,,NoMusic
1635112658.5,fixation,3,56,,,NoMusic
1635112658.5,fixation,1,652,,,RelaxSession
1635112659.0,stimulus,2,156,,,NoMusic
1635112659.5,fixation,2,156,,,NoMusic
1635112660.0,stimulus,1,653,,,RelaxSession
1635112660.0,stimulus,3,57,,,NoMusic
1635112660.5,fixation,1,653,,,RelaxSession
1635112660.5,fixation,3,57,,,NoMusic
1635112661.0,stimulus,2,157,,,NoMusic
1635112661.5,fixation,2,157,,,NoMusic
1635112662.0,stimulus,3,58,,,NoMusic
1635112662.0,stimulus,1,654,,,RelaxSession
1635112662.5,fixation,1,654,,,RelaxSession
1635112662.5,fixation,3,58,,,NoMusic
1635112663.0,stimulus,2,158,,,NoMusic
1635112663.5,fixation,2,158,,,NoMusic
1635112664.0,stimulus,3,59,,,NoMusic
1635112664.0,stimulus,1,655,,,RelaxSession
1635112664.5,fixation,1,655,,,RelaxSession
1635112664.5,fixation,3,59,,,NoMusic
1635112665.0,stimulus,2,159,,,NoMusic
1635112665.5,fixation,2,159,,,NoMusic
1635112666.0,stimulus,3,60,,,NoMusic
1635112666.0,stimulus,1,656,,,RelaxSession
1635112666.5,fixation,1,656,,,RelaxSession
1635112666.5,fixation,3,60,,,NoMusic
1635112667.0,stimulus,2,160,,,NoMusic
1635112667.5,fixation,2,160,,,NoMusic
1635112668.0,stimulus,1,657,,,RelaxSession
1635112668.0,stimulus,3,61,,,NoMusic
1635112668.5,fixation,1,657,,,RelaxSession
1635112668.5,fixation,3,61,,,NoMusic
1635112669.0,stimulus,2,161,,,NoMusic
1635112669.5,fixation,2,161,,,NoMusic
1635112670.0,stimulus,3,62,,,NoMusic
1635112670.0,stimulus,1,658,,,RelaxSession
1635112670.5,fixation,1,658,,,RelaxSession
1635112670.5,fixation,3,62,,,NoMusic
1635112671.0,stimulus,2,162,,,NoMusic
1635112671.5,fixation,2,162,,,NoMusic
1635112672.0,stimulus,1,659,,,RelaxSession
1635112672.0,stimulus,3,63,,,NoMusic
1635112672.5,fixation,3,63,,,NoMusic
1635112672.5,fixation,1,659,,,RelaxSession
1635112673.0,stimulus,2,163,,,NoMusic
1635112673.5,fixation,2,163,,,NoMusic
1635112674.0,stimulus,3,64,,,NoMusic
1635112674.0,stimulus,1,660,,,RelaxSession
1635112674.5,fixation,3,64,,,NoMusic
1635112674.5,fixation,1,660,,,RelaxSession
1635112675.0,stimulus,2,164,,,NoMusic
1635112675.5,fixation,2,164,,,NoMusic
1635112676.0,stimulus,3,65,,,NoMusic
1635112676.0,stimulus,1,661,,,RelaxSession
1635112676.5,fixation,3,65,,,NoMusic
1635112676.5,fixation,1,661,,,RelaxSession
1635112677.0,stimulus,2,165,,,NoMusic
1635112677.5,fixation,2,165,,,NoMusic
1635112678.0,stimulus,1,662,,,RelaxSession
1635112678.0,stimulus,3,66,,,NoMusic
1635112678.5,fixation,3,66,,,NoMusic
1635112678.5,fixation,1,662,,,RelaxSession
1635112679.0,stimulus,2,166,,,NoMusic
1635112679.5,fixation,2,166,,,NoMusic
1635112680.0,stimulus,1,663,,,RelaxSession
1635112680.0,stimulus,3,67,,,NoMusic
1635112680.5,fixation,3,67,,,NoMusic
1635112680.5,fixation,1,663,,,RelaxSession
1635112681.0,stimulus,2,167,,,NoMusic
1635112681.5,fixation,2,167,,,NoMusic
1635112682.0,stimulus,1,664,,,RelaxSession
1635112682.0,stimulus,3,68,,,NoMusic
1635112682.5,fixation,3,68,,,NoMusic
1635112682.5,fixation,1,664,,,RelaxSession
1635112683.0,stimulus,2,168,,,NoMusic
1635112683.5,fixation,2,168,,,NoMusic
1635112684.0,stimulus,3,69,,,NoMusic
1635112684.0,stimulus,1,665,,,RelaxSession
1635112684.5,fixation,1,665,,,RelaxSession
1635112684.5,fixation,3,69,,,NoMusic
1635112685.0,stimulus,2,169,,,NoMusic
1635112685.5,fixation,2,169,,,NoMusic
1635112686.0,stimulus,3,70,,,NoMusic
1635112686.0,stimulus,1,666,,,RelaxSession
1635112686.5,fixation,1,666,,,RelaxSession
1635112686.5,fixation,3,70,,,NoMusic
1635112687.0,stimulus,2,170,,,NoMusic
1635112687.5,fixation,2,170,,,NoMusic
1635112688.0,stimulus,3,71,,,NoMusic
1635112688.0,stimulus,1,667,,,RelaxSession
1635112688.5,fixation,3,71,,,NoMusic
1635112688.5,fixation,1,667,,,RelaxSession
1635112689.0,stimulus,2,171,,,NoMusic
1635112689.5,fixation,2,171,,,NoMusic
1635112690.0,stimulus,3,72,,,NoMusic
1635112690.0,stimulus,1,668,,,RelaxSession
1635112690.5,fixation,1,668,,,RelaxSession
1635112690.5,fixation,3,72,,,NoMusic
1635112691.0,stimulus,2,172,,,NoMusic
1635112691.5,fixation,2,172,,,NoMusic
1635112692.0,stimulus,3,73,,,NoMusic
1635112692.0,stimulus,1,669,,,RelaxSession
1635112692.5,fixation,1,669,,,RelaxSession
1635112692.5,fixation,3,73,,,NoMusic
1635112693.0,stimulus,2,173,,,NoMusic
1635112693.5,fixation,2,173,,,NoMusic
1635112694.0,stimulus,3,74,,,NoMusic
1635112694.0,stimulus,1,670,,,RelaxSession
1635112694.5,fixation,3,74,,,NoMusic
1635112694.5,fixation,1,670,,,RelaxSession
1635112695.0,stimulus,2,174,,,NoMusic
1635112695.5,fixation,2,174,,,NoMusic
1635112696.0,stimulus,3,75,,,NoMusic
1635112696.0,stimulus,1,671,,,RelaxSession
1635112696.5,fixation,3,75,,,NoMusic
1635112696.5,fixation,1,671,,,RelaxSession
1635112697.0,stimulus,2,175,,,NoMusic
1635112697.5,fixation,2,175,,,NoMusic
1635112698.0,stimulus,1,672,,,RelaxSession
1635112698.0,stimulus,3,76,,,NoMusic
1635112698.5,fixation,3,76,,,NoMusic
1635112698.5,fixation,1,672,,,RelaxSession
1635112699.0,stimulus,2,176,,,NoMusic
1635112699.5,fixation,2,176,,,NoMusic
1635112700.0,stimulus,1,673,,,RelaxSession
1635112700.0,stimulus,3,77,,,NoMusic
1635112700.5,fixation,3,77,,,NoMusic
1635112700.5,fixation,1,673,,,RelaxSession
1635112701.0,stimulus,2,177,,,NoMusic
1635112701.5,fixation,2,177,,,NoMusic
1635112702.0,stimulus,1,674,,,RelaxSession
1635112702.0,stimulus,3,78,,,NoMusic
1635112702.5,fixation,3,78,,,NoMusic
1635112702.5,fixation,1,674,,,RelaxSession
1635112703.0,stimulus,2,178,,,NoMusic
1635112703.5,fixation,2,178,,,NoMusic
1635112704.0,stimulus,3,79,,,NoMusic
1635112704.0,stimulus,1,675,,,RelaxSession
1635112704.5,fixation,1,675,,,RelaxSession
1635112704.5,fixation,3,79,,,NoMusic
1635112705.0,stimulus,2,179,,,NoMusic
1635112705.5,fixation,2,179,,,NoMusic
1635112706.0,stimulus,1,676,,,RelaxSession
1635112706.0,stimulus,3,80,,,NoMusic
1635112706.5,fixation,3,80,,,NoMusic
1635112706.5,fixation,1,676,,,RelaxSession
1635112707.0,stimulus,2,180,,,NoMusic
1635112707.5,fixation,2,180,,,NoMusic
1635112708.0,stimulus,1,677,,,RelaxSession
1635112708.0,stimulus,3,81,,,NoMusic
1635112708.5,fixation,1,677,,,RelaxSession
1635112708.5,fixation,3,81,,,NoMusic
1635112709.0,stimulus,2,181,,,NoMusic
1635112709.5,fixation,2,181,,,NoMusic
1635112710.0,stimulus,1,678,,,RelaxSession
1635112710.0,stimulus,3,82,,,NoMusic
1635112710.5,fixation,1,678,,,RelaxSession
1635112710.5,fixation,3,82,,,NoMusic
1635112711.0,stimulus,2,182,,,NoMusic
1635112711.5,fixation,2,182,,,NoMusic
1635112712.0,stimulus,3,83,,,NoMusic
1635112712.0,stimulus,1,679,,,RelaxSession
1635112712.5,fixation,1,679,,,RelaxSession
1635112712.5,fixation,3,83,,,NoMusic
1635112713.0,stimulus,2,183,,,NoMusic
1635112713.5,fixation,2,183,,,NoMusic
1635112714.0,stimulus,3,84,,,NoMusic
1635112714.0,stimulus,1,680,,,RelaxSession
1635112714.5,fixation,1,680,,,RelaxSession
1635112714.5,fixation,3,84,,,NoMusic
1635112715.0,stimulus,2,184,,,NoMusic
1635112715.5,fixation,2,184,,,NoMusic
1635112716.0,stimulus,3,85,,,NoMusic
1635112716.0,stimulus,1,681,,,RelaxSession
1635112716.5,fixation,1,681,,,RelaxSession
1635112716.5,fixation,3,85,,,NoMusic
1635112717.0,stimulus,2,185,,,NoMusic
1635112717.5,fixation,2,185,,,NoMusic
1635112718.0,stimulus,1,682,,,RelaxSession
1635112718.0,stimulus,3,86,,,NoMusic
1635112718.5,fixation,3,86,,,NoMusic
1635112718.5,fixation,1,682,,,RelaxSession
1635112719.0,stimulus,2,186,,,NoMusic
1635112719.5,fixation,2,186,,,NoMusic
1635112720.0,stimulus,1,683,,,RelaxSession
1635112720.0,stimulus,3,87,,,NoMusic
1635112720.5,fixation,3,87,,,NoMusic
1635112720.5,fixation,1,683,,,RelaxSession
1635112721.0,stimulus,2,187,,,NoMusic
1635112721.5,fixation,2,187,,,NoMusic
1635112722.0,stimulus,1,684,,,RelaxSession
1635112722.0,stimulus,3,88,,,NoMusic
1635112722.5,fixation,3,88,,,NoMusic
1635112722.5,fixation,1,684,,,RelaxSession
1635112723.0,stimulus,2,188,,,NoMusic
1635112723.5,fixation,2,188,,,NoMusic
1635112724.0,stimulus,1,685,,,RelaxSession
1635112724.0,stimulus,3,89,,,NoMusic
1635112724.5,fixation,3,89,,,NoMusic
1635112724.5,fixation,1,685,,,RelaxSession
1635112725.0,stimulus,2,189,,,NoMusic
1635112725.5,fixation,2,189,,,NoMusic
1635112726.0,stimulus,1,686,,,RelaxSession
1635112726.0,stimulus,3,90,,,NoMusic
1635112726.5,fixation,3,90,,,NoMusic
1635112726.5,fixation,1,686,,,RelaxSession
1635112727.0,stimulus,2,190,,,NoMusic
1635112727.5,fixation,2,190,,,NoMusic
1635112728.0,stimulus,3,91,,,NoMusic
1635112728.0,stimulus,1,687,,,RelaxSession
1635112728.5,fixation,1,687,,,RelaxSession
1635112728.5,fixation,3,91,,,NoMusic
1635112729.0,stimulus,2,191,,,NoMusic
1635112729.5,fixation,2,191,,,NoMusic
1635112730.0,stimulus,1,688,,,RelaxSession
1635112730.0,stimulus,3,92,,,NoMusic
1635112730.5,fixation,1,688,,,RelaxSession
1635112730.5,fixation,3,92,,,NoMusic
1635112731.0,stimulus,2,192,,,NoMusic
1635112731.5,fixation,2,192,,,NoMusic
1635112732.0,stimulus,1,689,,,RelaxSession
1635112732.0,stimulus,3,93,,,NoMusic
1635112732.5,fixation,1,689,,,RelaxSession
1635112732.5,fixation,3,93,,,NoMusic
1635112733.0,stimulus,2,193,,,NoMusic
1635112733.5,fixation,2,193,,,NoMusic
1635112734.0,stimulus,1,690,,,RelaxSession
1635112734.0,stimulus,3,94,,,NoMusic
1635112734.5,fixation,3,94,,,NoMusic
1635112734.5,fixation,1,690,,,RelaxSession
1635112735.0,stimulus,2,194,,,NoMusic
1635112735.5,fixation,2,194,,,NoMusic
1635112736.0,stimulus,3,95,,,NoMusic
1635112736.0,stimulus,1,691,,,RelaxSession
1635112736.5,fixation,1,691,,,RelaxSession
1635112736.5,fixation,3,95,,,NoMusic
1635112737.0,stimulus,2,195,,,NoMusic
1635112737.5,fixation,2,195,,,NoMusic
1635112738.0,stimulus,1,692,,,RelaxSession
1635112738.0,stimulus,3,96,,,NoMusic
1635112738.5,fixation,3,96,,,NoMusic
1635112738.5,fixation,1,692,,,RelaxSession
1635112739.0,stimulus,2,196,,,NoMusic
1635112739.5,fixation,2,196,,,NoMusic
1635112740.0,stimulus,3,97,,,NoMusic
1635112740.0,stimulus,1,693,,,RelaxSession
1635112740.5,fixation,1,693,,,RelaxSession
1635112740.5,fixation,3,97,,,NoMusic
1635112741.0,stimulus,2,197,,,NoMusic
1635112741.5,fixation,2,197,,,NoMusic
1635112742.0,stimulus,1,694,,,RelaxSession
1635112742.0,stimulus,3,98,,,NoMusic
1635112742.5,fixation,1,694,,,RelaxSession
1635112742.5,fixation,3,98,,,NoMusic
1635112743.0,stimulus,2,198,,,NoMusic
1635112743.5,fixation,2,198,,,NoMusic
1635112744.0,stimulus,1,695,,,RelaxSession
1635112744.0,stimulus,3,99,,,NoMusic
1635112744.5,fixation,3,99,,,NoMusic
1635112744.5,fixation,1,695,,,RelaxSession
1635112745.0,stimulus,2,199,,,NoMusic
1635112745.5,fixation,2,199,,,NoMusic
1635112746.0,stimulus,1,696,,,RelaxSession
1635112746.0,stimulus,3,100,,,NoMusic
1635112746.5,fixation,1,696,,,RelaxSession
1635112746.5,fixation,3,100,,,NoMusic
1635112747.0,stimulus,2,200,,,NoMusic
1635112747.5,fixation,2,200,,,NoMusic
1635112748.0,stimulus,1,697,,,RelaxSession
1635112748.0,stimulus,3,101,,,NoMusic
1635112748.5,fixation,3,101,,,NoMusic
1635112748.5,fixation,1,697,,,RelaxSession
1635112749.0,stimulus,2,201,,,NoMusic
1635112749.5,fixation,2,201,,,NoMusic
1635112750.0,stimulus,1,698,,,RelaxSession
1635112750.0,stimulus,3,102,,,NoMusic
1635112750.5,fixation,1,698,,,RelaxSession
1635112750.5,fixation,3,102,,,NoMusic
1635112751.0,stimulus,2,202,,,NoMusic
1635112751.5,fixation,2,202,,,NoMusic
1635112752.0,stimulus,1,699,,,RelaxSession
1635112752.0,stimulus,3,103,,,NoMusic
1635112752.5,fixation,1,699,,,RelaxSession
1635112752.5,fixation,3,103,,,NoMusic
1635112753.0,stimulus,2,203,,,NoMusic
1635112753.5,fixation,2,203,,,NoMusic
1635112754.0,stimulus,3,104,,,NoMusic
1635112754.0,stimulus,1,700,,,RelaxSession
1635112754.5,fixation,1,700,,,RelaxSession
1635112754.5,fixation,3,104,,,NoMusic
1635112755.0,stimulus,2,204,,,NoMusic
1635112755.5,fixation,2,204,,,NoMusic
1635112756.0,stimulus,1,701,,,RelaxSession
1635112756.0,stimulus,3,105,,,NoMusic
1635112756.5,fixation,3,105,,,NoMusic
1635112756.5,fixation,1,701,,,RelaxSession
1635112757.0,stimulus,2,205,,,NoMusic
1635112757.5,fixation,2,205,,,NoMusic
1635112758.0,stimulus,1,702,,,RelaxSession
1635112758.0,stimulus,3,106,,,NoMusic
1635112758.5,fixation,3,106,,,NoMusic
1635112758.5,fixation,1,702,,,RelaxSession
1635112759.0,stimulus,2,206,,,NoMusic
1635112759.5,fixation,2,206,,,NoMusic
1635112760.0,stimulus,1,703,,,RelaxSession
1635112760.0,stimulus,3,107,,,NoMusic
1635112760.5,fixation,3,107,,,NoMusic
1635112760.5,fixation,1,703,,,RelaxSession
1635112761.0,stimulus,2,207,,,NoMusic
1635112761.5,fixation,2,207,,,NoMusic
1635112762.0,stimulus,1,704,,,RelaxSession
1635112762.0,stimulus,3,108,,,NoMusic
1635112762.5,fixation,1,704,,,RelaxSession
1635112762.5,fixation,3,108,,,NoMusic
1635112763.0,stimulus,2,208,,,NoMusic
1635112763.5,fixation,2,208,,,NoMusic
1635112764.0,stimulus,1,705,,,RelaxSession
1635112764.0,stimulus,3,109,,,NoMusic
1635112764.5,fixation,3,109,,,NoMusic
1635112764.5,fixation,1,705,,,RelaxSession
1635112765.0,stimulus,2,209,,,NoMusic
1635112765.5,fixation,2,209,,,NoMusic
1635112766.0,stimulus,1,706,,,RelaxSession
1635112766.0,stimulus,3,110,,,NoMusic
1635112766.5,fixation,3,110,,,NoMusic
1635112766.5,fixation,1,706,,,RelaxSession
1635112767.0,stimulus,2,210,,,NoMusic
1635112767.5,fixation,2,210,,,NoMusic
1635112768.0,stimulus,1,707,,,RelaxSession
1635112768.0,stimulus,3,111,,,NoMusic
1635112768.5,fixation,3,111,,,NoMusic
1635112768.5,fixation,1,707,,,RelaxSession
1635112769.0,stimulus,2,211,,,NoMusic
1635112769.5,fixation,2,211,,,NoMusic
1635112770.0,stimulus,1,708,,,RelaxSession
1635112770.0,stimulus,3,112,,,NoMusic
1635112770.5,fixation,1,708,,,RelaxSession
1635112770.5,fixation,3,112,,,NoMusic
1635112771.0,stimulus,2,212,,,NoMusic
1635112771.5,fixation,2,212,,,NoMusic
1635112772.0,stimulus,1,709,,,RelaxSession
1635112772.0,stimulus,3,113,,,NoMusic
1635112772.5,fixation,3,113,,,NoMusic
1635112772.5,fixation,1,709,,,RelaxSession
1635112773.0,stimulus,2,213,,,NoMusic
1635112773.5,fixation,2,213,,,NoMusic
1635112774.0,stimulus,1,710,,,RelaxSession
1635112774.0,stimulus,3,114,,,NoMusic
1635112774.5,fixation,3,114,,,NoMusic
1635112774.5,fixation,1,710,,,RelaxSession
1635112775.0,stimulus,2,214,,,NoMusic
1635112775.5,fixation,2,214,,,NoMusic
1635112776.0,stimulus,3,115,,,NoMusic
1635112776.0,stimulus,1,711,,,RelaxSession
1635112776.5,fixation,3,115,,,NoMusic
1635112776.5,fixation,1,711,,,RelaxSession
1635112777.0,stimulus,2,215,,,NoMusic
1635112777.5,fixation,2,215,,,NoMusic
1635112778.0,stimulus,1,712,,,RelaxSession
1635112778.0,stimulus,3,116,,,NoMusic
1635112778.5,fixation,1,712,,,RelaxSession
1635112778.5,fixation,3,116,,,NoMusic
1635112779.0,stimulus,2,216,,,NoMusic
1635112779.5,fixation,2,216,,,NoMusic
1635112780.0,stimulus,1,713,,,RelaxSession
1635112780.0,stimulus,3,117,,,NoMusic
1635112780.5,fixation,3,117,,,NoMusic
1635112780.5,fixation,1,713,,,RelaxSession
1635112781.0,stimulus,2,217,,,NoMusic
1635112781.5,fixation,2,217,,,NoMusic
1635112782.0,stimulus,1,714,,,RelaxSession
1635112782.0,stimulus,3,118,,,NoMusic
1635112782.5,fixation,3,118,,,NoMusic
1635112782.5,fixation,1,714,,,RelaxSession
1635112783.0,stimulus,2,218,,,NoMusic
1635112783.5,fixation,2,218,,,NoMusic
1635112784.0,stimulus,1,715,,,RelaxSession
1635112784.0,stimulus,3,119,,,NoMusic
1635112784.5,fixation,3,119,,,NoMusic
1635112784.5,fixation,1,715,,,RelaxSession
1635112785.0,stimulus,2,219,,,NoMusic
1635112785.5,fixation,2,219,,,NoMusic
1635112786.0,stimulus,1,716,,,RelaxSession
1635112786.0,stimulus,3,120,,,NoMusic
1635112786.5,fixation,1,716,,,RelaxSession
1635112786.5,fixation,3,120,,,NoMusic
1635112787.0,stimulus,2,220,,,NoMusic
1635112787.5,fixation,2,220,,,NoMusic
1635112788.0,stimulus,1,717,,,RelaxSession
1635112788.0,stimulus,3,121,,,NoMusic
1635112788.5,fixation,3,121,,,NoMusic
1635112788.5,fixation,1,717,,,RelaxSession
1635112789.0,stimulus,2,221,,,NoMusic
1635112789.5,fixation,2,221,,,NoMusic
1635112790.0,stimulus,1,718,,,RelaxSession
1635112790.0,stimulus,3,122,,,NoMusic
1635112790.5,fixation,3,122,,,NoMusic
1635112790.5,fixation,1,718,,,RelaxSession
1635112791.0,stimulus,2,222,,,NoMusic
1635112791.5,fixation,2,222,,,NoMusic
1635112792.0,stimulus,1,719,,,RelaxSession
1635112792.0,stimulus,3,123,,,NoMusic
1635112792.5,fixation,1,719,,,RelaxSession
1635112792.5,fixation,3,123,,,NoMusic
1635112793.0,stimulus,2,223,,,NoMusic
1635112793.5,fixation,2,223,,,NoMusic
1635112794.0,stimulus,3,124,,,NoMusic
1635112794.0,stimulus,1,720,,,RelaxSession
1635112794.5,fixation,3,124,,,NoMusic
1635112794.5,fixation,1,720,,,RelaxSession
1635112795.0,stimulus,2,224,,,NoMusic
1635112795.5,fixation,2,224,,,NoMusic
1635112796.0,stimulus,3,125,,,NoMusic
1635112796.0,stimulus,1,721,,,RelaxSession
1635112796.5,fixation,1,721,,,RelaxSession
1635112796.5,fixation,3,125,,,NoMusic
1635112797.0,stimulus,2,225,,,NoMusic
1635112797.5,fixation,2,225,,,NoMusic
1635112798.0,stimulus,3,126,,,NoMusic
1635112798.0,stimulus,1,722,,,RelaxSession
1635112798.5,fixation,1,722,,,RelaxSession
1635112798.5,fixation,3,126,,,NoMusic
1635112799.0,stimulus,2,226,,,NoMusic
1635112799.5,fixation,2,226,,,NoMusic
1635112800.0,stimulus,3,127,,,NoMusic
1635112800.0,stimulus,1,723,,,RelaxSession
1635112800.5,fixation,1,723,,,RelaxSession
1635112800.5,fixation,3,127,,,NoMusic
1635112801.0,stimulus,2,227,,,NoMusic
1635112801.5,fixation,2,227,,,NoMusic
1635112802.0,stimulus,1,724,,,RelaxSession
1635112802.0,stimulus,3,128,,,NoMusic
1635112802.5,fixation,1,724,,,RelaxSession
1635112802.5,fixation,3,128,,,NoMusic
1635112803.0,stimulus,2,228,,,NoMusic
1635112803.5,fixation,2,228,,,NoMusic
1635112804.0,stimulus,3,129,,,NoMusic
1635112804.0,stimulus,1,725,,,RelaxSession
1635112804.5,fixation,3,129,,,NoMusic
1635112804.5,fixation,1,725,,,RelaxSession
1635112805.0,stimulus,2,229,,,NoMusic
1635112805.5,fixation,2,229,,,NoMusic
1635112806.0,stimulus,1,726,,,RelaxSession
1635112806.0,stimulus,3,130,,,NoMusic
1635112806.5,fixation,3,130,,,NoMusic
1635112806.5,fixation,1,726,,,RelaxSession
1635112807.0,stimulus,2,230,,,NoMusic
1635112807.5,fixation,2,230,,,NoMusic
1635112808.0,stimulus,1,727,,,RelaxSession
1635112808.0,stimulus,3,131,,,NoMusic
1635112808.5,fixation,3,131,,,NoMusic
1635112808.5,fixation,1,727,,,RelaxSession
1635112809.0,stimulus,2,231,,,NoMusic
1635112809.5,fixation,2,231,,,NoMusic
1635112810.0,stimulus,1,728,,,RelaxSession
1635112810.0,stimulus,3,132,,,NoMusic
1635112810.5,fixation,3,132,,,NoMusic
1635112810.5,fixation,1,728,,,RelaxSession
1635112811.0,stimulus,2,232,,,NoMusic
1635112811.5,fixation,2,232,,,NoMusic
1635112812.0,stimulus,1,729,,,RelaxSession
1635112812.0,stimulus,3,133,,,NoMusic
1635112812.5,fixation,3,133,,,NoMusic
1635112812.5,fixation,1,729,,,RelaxSession
1635112813.0,stimulus,2,233,,,NoMusic
1635112813.5,fixation,2,233,,,NoMusic
1635112814.0,stimulus,1,730,,,RelaxSession
1635112814.0,stimulus,3,134,,,NoMusic
1635112814.5,fixation,3,134,,,NoMusic
1635112814.5,fixation,1,730,,,RelaxSession
1635112815.0,stimulus,2,234,,,NoMusic
1635112815.5,fixation,2,234,,,NoMusic
1635112816.0,stimulus,3,135,,,NoMusic
1635112816.0,stimulus,1,731,,,RelaxSession
1635112816.5,fixation,1,731,,,RelaxSession
1635112816.5,fixation,3,135,,,NoMusic
1635112817.0,stimulus,2,235,,,NoMusic
1635112817.5,fixation,2,235,,,NoMusic
1635112818.0,stimulus,3,136,,,NoMusic
1635112818.0,stimulus,1,732,,,RelaxSession
1635112818.5,fixation,1,732,,,RelaxSession
1635112818.5,fixation,3,136,,,NoMusic
1635112819.0,stimulus,2,236,,,NoMusic
1635112819.5,fixation,2,236,,,NoMusic
1635112820.0,stimulus,3,137,,,NoMusic
1635112820.0,stimulus,1,733,,,RelaxSession
1635112820.5,fixation,1,733,,,RelaxSession
1635112820.5,fixation,3,137,,,NoMusic
1635112821.0,stimulus,2,237,,,NoMusic
1635112821.5,fixation,2,237,,,NoMusic
1635112822.0,stimulus,1,734,,,RelaxSession
1635112822.0,stimulus,3,138,,,NoMusic
1635112822.5,fixation,3,138,,,NoMusic
1635112822.5,fixation,1,734,,,RelaxSession
1635112823.0,stimulus,2,238,,,NoMusic
1635112823.5,fixation,2,238,,,NoMusic
1635112824.0,stimulus,1,735,,,RelaxSession
1635112824.0,stimulus,3,139,,,NoMusic
1635112824.5,fixation,1,735,,,RelaxSession
1635112824.5,fixation,3,139,,,NoMusic
1635112825.0,stimulus,2,239,,,NoMusic
1635112825.5,fixation,2,239,,,NoMusic
1635112826.0,stimulus,3,140,,,NoMusic
1635112826.0,stimulus,1,736,,,RelaxSession
1635112826.5,fixation,1,736,,,RelaxSession
1635112826.5,fixation,3,140,,,NoMusic
1635112827.0,stimulus,2,240,,,NoMusic
1635112827.5,fixation,2,240,,,NoMusic
1635112828.0,stimulus,3,141,,,NoMusic
1635112828.0,stimulus,1,737,,,RelaxSession
1635112828.5,fixation,1,737,,,RelaxSession
1635112828.5,fixation,3,141,,,NoMusic
1635112829.0,stimulus,2,241,,,NoMusic
1635112829.5,fixation,2,241,,,NoMusic
1635112830.0,stimulus,1,738,,,RelaxSession
1635112830.0,stimulus,3,142,,,NoMusic
1635112830.5,fixation,3,142,,,NoMusic
1635112830.5,fixation,1,738,,,RelaxSession
1635112831.0,stimulus,2,242,,,NoMusic
1635112831.5,fixation,2,242,,,NoMusic
1635112832.0,stimulus,1,739,,,RelaxSession
1635112832.0,stimulus,3,143,,,NoMusic
1635112832.5,fixation,1,739,,,RelaxSession
1635112832.5,fixation,3,143,,,NoMusic
1635112833.0,stimulus,2,243,,,NoMusic
1635112833.5,fixation,2,243,,,NoMusic
1635112834.0,stimulus,3,144,,,NoMusic
1635112834.0,stimulus,1,740,,,RelaxSession
1635112834.5,fixation,3,144,,,NoMusic
1635112834.5,fixation,1,740,,,RelaxSession
1635112835.0,stimulus,2,244,,,NoMusic
1635112835.5,fixation,2,244,,,NoMusic
1635112836.0,stimulus,1,741,,,RelaxSession
1635112836.0,stimulus,3,145,,,NoMusic
1635112836.5,fixation,1,741,,,RelaxSession
1635112836.5,fixation,3,145,,,NoMusic
1635112837.0,stimulus,2,245,,,NoMusic
1635112837.5,fixation,2,245,,,NoMusic
1635112838.0,stimulus,1,742,,,RelaxSession
1635112838.0,stimulus,3,146,,,NoMusic
1635112838.5,fixation,3,146,,,NoMusic
1635112838.5,fixation,1,742,,,RelaxSession
1635112839.0,stimulus,2,246,,,NoMusic
1635112839.5,fixation,2,246,,,NoMusic
1635112840.0,stimulus,3,147,,,NoMusic
1635112840.0,stimulus,1,743,,,RelaxSession
1635112840.5,fixation,3,147,,,NoMusic
1635112840.5,fixation,1,743,,,RelaxSession
1635112841.0,stimulus,2,247,,,NoMusic
1635112841.5,fixation,2,247,,,NoMusic
1635112842.0,stimulus,3,148,,,NoMusic
1635112842.0,stimulus,1,744,,,RelaxSession
1635112842.5,fixation,3,148,,,NoMusic
1635112842.5,fixation,1,744,,,RelaxSession
1635112843.0,stimulus,2,248,,,NoMusic
1635112843.5,fixation,2,248,,,NoMusic
1635112844.0,stimulus,1,745,,,RelaxSession
1635112844.0,stimulus,3,149,,,NoMusic
1635112844.5,fixation,3,149,,,NoMusic
1635112844.5,fixation,1,745,,,RelaxSession
1635112845.0,stimulus,2,249,,,NoMusic
1635112845.5,fixation,2,249,,,NoMusic
1635112846.0,stimulus,1,746,,,RelaxSession
1635112846.0,stimulus,3,150,,,NoMusic
1635112846.5,fixation,3,150,,,NoMusic
1635112846.5,fixation,1,746,,,RelaxSession
1635112847.0,stimulus,2,250,,,NoMusic
1635112847.5,fixation,2,250,,,NoMusic
1635112848.0,stimulus,1,747,,,RelaxSession
1635112848.0,stimulus,3,151,,,NoMusic
1635112848.5,fixation,3,151,,,NoMusic
1635112848.5,fixation,1,747,,,RelaxSession
1635112849.0,stimulus,2,251,,,NoMusic
1635112849.5,fixation,2,251,,,NoMusic
1635112850.0,stimulus,1,748,,,RelaxSession
1635112850.0,stimulus,3,152,,,NoMusic
1635112850.5,fixation,3,152,,,NoMusic
1635112850.5,fixation,1,748,,,RelaxSession
1635112851.0,stimulus,2,252,,,NoMusic
1635112851.5,fixation,2,252,,,NoMusic
1635112852.0,stimulus,1,749,,,RelaxSession
1635112852.0,stimulus,3,153,,,NoMusic
1635112852.5,fixation,3,153,,,NoMusic
1635112852.5,fixation,1,749,,,RelaxSession
1635112853.0,stimulus,2,253,,,NoMusic
1635112853.5,fixation,2,253,,,NoMusic
1635112854.0,stimulus,3,154,,,NoMusic
1635112854.0,stimulus,1,750,,,RelaxSession
1635112854.5,fixation,1,750,,,RelaxSession
1635112854.5,fixation,3,154,,,NoMusic
1635112855.0,stimulus,2,254,,,NoMusic
1635112855.5,fixation,2,254,,,NoMusic
1635112856.0,stimulus,3,155,,,NoMusic
1635112856.0,stimulus,1,751,,,StressSession
1635112856.5,fixation,1,751,,,StressSession
1635112856.5,fixation,3,155,,,NoMusic
1635112857.0,stimulus,2,255,,,NoMusic
1635112857.5,fixation,2,255,,,NoMusic
1635112858.0,stimulus,3,156,,,NoMusic
1635112858.0,stimulus,1,752,,,StressSession
1635112858.5,fixation,1,752,,,StressSession
1635112858.5,fixation,3,156,,,NoMusic
1635112859.0,stimulus,2,256,,,NoMusic
1635112859.5,fixation,2,256,,,NoMusic
1635112860.0,stimulus,3,157,,,NoMusic
1635112860.0,stimulus,1,753,,,StressSession
1635112860.5,fixation,1,753,,,StressSession
1635112860.5,fixation,3,157,,,NoMusic
1635112861.0,stimulus,2,257,,,NoMusic
1635112861.5,fixation,2,257,,,NoMusic
1635112862.0,stimulus,1,754,,,StressSession
1635112862.0,stimulus,3,158,,,NoMusic
1635112862.5,fixation,3,158,,,NoMusic
1635112862.5,fixation,1,754,,,StressSession
1635112863.0,stimulus,2,258,,,NoMusic
1635112863.5,fixation,2,258,,,NoMusic
1635112864.0,stimulus,1,755,,,StressSession
1635112864.0,stimulus,3,159,,,NoMusic
1635112864.5,fixation,3,159,,,NoMusic
1635112864.5,fixation,1,755,,,StressSession
1635112865.0,stimulus,2,259,,,NoMusic
1635112865.5,fixation,2,259,,,NoMusic
1635112866.0,stimulus,1,756,,,StressSession
1635112866.0,stimulus,3,160,,,NoMusic
1635112866.5,fixation,1,756,,,StressSession
1635112866.5,fixation,3,160,,,NoMusic
1635112867.0,stimulus,2,260,,,NoMusic
1635112867.5,fixation,2,260,,,NoMusic
1635112868.0,stimulus,3,161,,,NoMusic
1635112868.0,stimulus,1,757,,,StressSession
1635112868.5,fixation,1,757,,,StressSession
1635112868.5,fixation,3,161,,,NoMusic
1635112869.0,stimulus,2,261,,,NoMusic
1635112869.5,fixation,2,261,,,NoMusic
1635112870.0,stimulus,3,162,,,NoMusic
1635112870.0,stimulus,1,758,,,StressSession
1635112870.5,fixation,1,758,,,StressSession
1635112870.5,fixation,3,162,,,NoMusic
1635112871.0,stimulus,2,262,,,NoMusic
1635112871.5,fixation,2,262,,,NoMusic
1635112872.0,stimulus,3,163,,,NoMusic
1635112872.0,stimulus,1,759,,,StressSession
1635112872.5,fixation,1,759,,,StressSession
1635112872.5,fixation,3,163,,,NoMusic
1635112873.0,stimulus,2,263,,,NoMusic
1635112873.5,fixation,2,263,,,NoMusic
1635112874.0,stimulus,1,760,,,StressSession
1635112874.0,stimulus,3,164,,,NoMusic
1635112874.5,fixation,1,760,,,StressSession
1635112874.5,fixation,3,164,,,NoMusic
1635112875.0,stimulus,2,264,,,NoMusic
1635112875.5,fixation,2,264,,,NoMusic
1635112876.0,stimulus,1,761,,,StressSession
