event_time_s,trial_type,session_idx,trial_idx,RT_s,ACC,session_type
1623777955.3,stimulus,1,1,,,PracticeSession
1623777955.8,fixation,1,1,,,PracticeSession
1623777957.3,stimulus,1,2,,,PracticeSession
1623777957.8,fixation,1,2,,,PracticeSession
1623777959.3,stimulus,1,3,,,PracticeSession
1623777959.8,fixation,1,3,,,PracticeSession
1623777961.3,stimulus,1,4,,,PracticeSession
1623777961.8,fixation,1,4,,,PracticeSession
1623777963.3,stimulus,1,5,,,PracticeSession
1623777963.8,fixation,1,5,,,PracticeSession
1623777965.3,stimulus,1,6,,,PracticeSession
1623777965.8,fixation,1,6,,,PracticeSession
1623777967.3,stimulus,1,7,,,PracticeSession
1623777967.8,fixation,1,7,,,PracticeSession
1623777969.3,stimulus,1,8,,,PracticeSession
1623777969.8,fixation,1,8,,,PracticeSession
1623777971.3,stimulus,1,9,,,PracticeSession
1623777971.8,fixation,1,9,,,PracticeSession
1623777973.3,stimulus,1,10,,,PracticeSession
1623777973.8,fixation,1,10,,,PracticeSession
1623777975.3,stimulus,1,11,,,PracticeSession
1623777975.8,fixation,1,11,,,PracticeSession
1623777977.3,stimulus,1,12,,,PracticeSession
1623777977.8,fixation,1,12,,,PracticeSession
1623777979.3,stimulus,1,13,,,PracticeSession
1623777979.8,fixation,1,13,,,PracticeSession
1623777981.3,stimulus,1,14,,,PracticeSession
1623777981.8,fixation,1,14,,,PracticeSession
1623777983.3,stimulus,1,15,,,PracticeSession
1623777983.8,fixation,1,15,,,PracticeSession
1623777985.3,stimulus,1,16,,,PracticeSession
1623777985.8,fixation,1,16,,,PracticeSession
1623777987.3,stimulus,1,17,,,PracticeSession
1623777987.8,fixation,1,17,,,PracticeSession
1623777989.3,stimulus,1,18,,,PracticeSession
1623777989.8,fixation,1,18,,,PracticeSession
1623777991.3,stimulus,1,19,,,PracticeSession
1623777991.8,fixation,1,19,,,PracticeSession
1623777993.3,stimulus,1,20,,,PracticeSession
1623777993.8,fixation,1,20,,,PracticeSession
1623777995.3,stimulus,1,21,,,PracticeSession
1623777995.8,fixation,1,21,,,PracticeSession
1623777997.3,stimulus,1,22,,,PracticeSession
1623777997.8,fixation,1,22,,,PracticeSession
1623777999.3,stimulus,1,23,,,PracticeSession
1623777999.8,fixation,1,23,,,PracticeSession
1623778001.3,stimulus,1,24,,,PracticeSession
1623778001.8,fixation,1,24,,,PracticeSession
1623778003.3,stimulus,1,25,,,PracticeSession
1623778003.8,fixation,1,25,,,PracticeSession
1623778005.3,stimulus,1,26,,,PracticeSession
1623778005.8,fixation,1,26,,,PracticeSession
1623778007.3,stimulus,1,27,,,PracticeSession
1623778007.8,fixation,1,27,,,PracticeSession
1623778009.3,stimulus,1,28,,,PracticeSession
1623778009.8,fixation,1,28,,,PracticeSession
1623778011.3,stimulus,1,29,,,PracticeSession
1623778011.8,fixation,1,29,,,PracticeSession
1623778013.3,stimulus,1,30,,,PracticeSession
1623778013.8,fixation,1,30,,,PracticeSession
1623778015.3,stimulus,1,31,,,PracticeSession
1623778015.8,fixation,1,31,,,PracticeSession
1623778017.3,stimulus,1,32,,,PracticeSession
1623778017.8,fixation,1,32,,,PracticeSession
1623778019.3,stimulus,1,33,,,PracticeSession
1623778019.8,fixation,1,33,,,PracticeSession
1623778021.3,stimulus,1,34,,,PracticeSession
1623778021.8,fixation,1,34,,,PracticeSession
1623778023.3,stimulus,1,35,,,PracticeSession
1623778023.8,fixation,1,35,,,PracticeSession
1623778025.3,stimulus,1,36,,,PracticeSession
1623778025.8,fixation,1,36,,,PracticeSession
1623778027.3,stimulus,1,37,,,PracticeSession
1623778027.8,fixation,1,37,,,PracticeSession
1623778029.3,stimulus,1,38,,,PracticeSession
1623778029.8,fixation,1,38,,,PracticeSession
1623778031.3,stimulus,1,39,,,PracticeSession
1623778031.8,fixation,1,39,,,PracticeSession
1623778033.3,stimulus,1,40,,,PracticeSession
1623778033.8,fixation,1,40,,,PracticeSession
1623778035.3,stimulus,1,41,,,PracticeSession
1623778035.8,fixation,1,41,,,PracticeSession
1623778037.3,stimulus,1,42,,,PracticeSession
1623778037.8,fixation,1,42,,,PracticeSession
1623778039.3,stimulus,1,43,,,PracticeSession
1623778039.8,fixation,1,43,,,PracticeSession
1623778041.3,stimulus,1,44,,,PracticeSession
1623778041.8,fixation,1,44,,,PracticeSession
1623778043.3,stimulus,1,45,,0.0,NoMusic
1623778043.8,fixation,1,45,,0.0,NoMusic
1623778045.7549999,stimulus,1,46,0.455,1.0,NoMusic
1623778045.8,fixation,1,46,,0.0,NoMusic
1623778047.689,stimulus,1,47,0.389,1.0,NoMusic
1623778047.8,fixation,1,47,,0.0,NoMusic
1623778049.667,stimulus,1,48,0.367,1.0,NoMusic
1623778049.8,fixation,1,48,,0.0,NoMusic
1623778051.7489998,stimulus,1,49,0.449,1.0,NoMusic
1623778051.8,fixation,1,49,,0.0,NoMusic
1623778053.7389998,stimulus,1,50,0.439,1.0,NoMusic
1623778053.8,fixation,1,50,,0.0,NoMusic
1623778055.672,stimulus,1,51,0.372,0.0,NoMusic
1623778055.8,fixation,1,51,,0.0,NoMusic
1623778057.72,stimulus,1,52,0.42,1.0,NoMusic
1623778057.8,fixation,1,52,,0.0,NoMusic
1623778059.736,stimulus,1,53,0.436,1.0,NoMusic
1623778059.8,fixation,1,53,,0.0,NoMusic
1623778061.3,stimulus,1,54,,0.0,NoMusic
1623778061.813,fixation,1,54,0.013,1.0,NoMusic
1623778063.688,stimulus,1,55,0.388,1.0,NoMusic
1623778063.8,fixation,1,55,,0.0,NoMusic
1623778065.731,stimulus,1,56,0.431,1.0,NoMusic
1623778065.8,fixation,1,56,,0.0,NoMusic
1623778067.3,stimulus,1,57,,0.0,NoMusic
1623778067.853,fixation,1,57,0.053,1.0,NoMusic
1623778069.675,stimulus,1,58,0.375,1.0,NoMusic
1623778069.8,fixation,1,58,,0.0,NoMusic
1623778071.608,stimulus,1,59,0.308,1.0,NoMusic
1623778071.8,fixation,1,59,,0.0,NoMusic
1623778073.721,stimulus,1,60,0.421,1.0,NoMusic
1623778073.8,fixation,1,60,,0.0,NoMusic
1623778075.751,stimulus,1,61,0.451,1.0,NoMusic
1623778075.8,fixation,1,61,,0.0,NoMusic
1623778077.6929998,stimulus,1,62,0.393,1.0,NoMusic
1623778077.8,fixation,1,62,,0.0,NoMusic
1623778079.707,stimulus,1,63,0.407,1.0,NoMusic
1623778079.8,fixation,1,63,,0.0,NoMusic
1623778081.704,stimulus,1,64,0.404,1.0,NoMusic
1623778081.8,fixation,1,64,,0.0,NoMusic
1623778083.6729999,stimulus,1,65,0.373,1.0,NoMusic
1623778083.8,fixation,1,65,,0.0,NoMusic
1623778085.698,stimulus,1,66,0.398,1.0,NoMusic
1623778085.8,fixation,1,66,,0.0,NoMusic
1623778087.3,stimulus,1,67,,0.0,NoMusic
1623778087.8,fixation,1,67,,0.0,NoMusic
1623778089.577,stimulus,1,68,0.277,1.0,NoMusic
1623778089.8,fixation,1,68,,0.0,NoMusic
1623778091.3,stimulus,1,69,,0.0,NoMusic
1623778091.885,fixation,1,69,0.085,1.0,NoMusic
1623778093.3,stimulus,1,70,,0.0,NoMusic
1623778093.86,fixation,1,70,0.06,1.0,NoMusic
1623778095.3,stimulus,1,71,,0.0,NoMusic
1623778096.257,fixation,1,71,0.457,1.0,NoMusic
1623778097.3,stimulus,1,72,,0.0,NoMusic
1623778097.98,fixation,1,72,0.18,0.0,NoMusic
1623778099.3,stimulus,1,73,,0.0,NoMusic
1623778100.106,fixation,1,73,0.306,0.0,NoMusic
1623778101.3,stimulus,1,74,,0.0,NoMusic
1623778102.268,fixation,1,74,0.468,0.0,NoMusic
1623778103.3,stimulus,1,75,,0.0,NoMusic
1623778104.736,fixation,1,75,0.936,0.0,NoMusic
1623778105.3,stimulus,1,76,,0.0,NoMusic
1623778106.257,fixation,1,76,0.457,1.0,NoMusic
1623778107.3,stimulus,1,77,,0.0,NoMusic
1623778108.263,fixation,1,77,0.463,0.0,NoMusic
1623778109.3,stimulus,1,78,,0.0,NoMusic
1623778110.1369998,fixation,1,78,0.337,1.0,NoMusic
1623778111.3,stimulus,1,79,,0.0,NoMusic
1623778111.86,fixation,1,79,0.06,1.0,NoMusic
1623778113.3,stimulus,1,80,,0.0,NoMusic
1623778114.5709999,fixation,1,80,0.771,1.0,NoMusic
1623778115.3,stimulus,1,81,,0.0,NoMusic
1623778115.991,fixation,1,81,0.191,1.0,NoMusic
1623778117.3,stimulus,1,82,,0.0,NoMusic
1623778118.221,fixation,1,82,0.421,1.0,NoMusic
1623778119.3,stimulus,1,83,,0.0,NoMusic
1623778120.023,fixation,1,83,0.223,1.0,NoMusic
1623778121.3,stimulus,1,84,,0.0,NoMusic
1623778122.143,fixation,1,84,0.343,0.0,NoMusic
1623778123.3,stimulus,1,85,,0.0,NoMusic
1623778124.0379999,fixation,1,85,0.238,1.0,NoMusic
1623778125.3,stimulus,1,86,,0.0,NoMusic
1623778126.03,fixation,1,86,0.23,1.0,NoMusic
1623778127.3,stimulus,1,87,,0.0,NoMusic
1623778127.901,fixation,1,87,0.101,1.0,NoMusic
1623778129.3,stimulus,1,88,,0.0,NoMusic
1623778129.9689999,fixation,1,88,0.169,0.0,NoMusic
1623778131.3,stimulus,1,89,,0.0,NoMusic
1623778131.8,fixation,1,89,,0.0,NoMusic
1623778133.3,stimulus,1,90,,0.0,NoMusic
1623778134.383,fixation,1,90,0.583,1.0,NoMusic
1623778135.7879999,stimulus,1,91,0.488,1.0,NoMusic
1623778135.8,fixation,1,91,,0.0,NoMusic
1623778137.3,stimulus,1,92,,0.0,NoMusic
1623778138.054,fixation,1,92,0.254,1.0,NoMusic
1623778139.3,stimulus,1,93,,0.0,NoMusic
1623778140.935,fixation,1,93,1.135,1.0,NoMusic
1623778141.3,stimulus,1,94,,0.0,NoMusic
1623778142.396,fixation,1,94,0.596,0.0,NoMusic
1623778143.3,stimulus,1,95,,0.0,NoMusic
1623778143.952,fixation,1,95,0.152,1.0,NoMusic
1623778145.7489998,stimulus,1,96,0.449,1.0,NoMusic
1623778145.8,fixation,1,96,,0.0,NoMusic
1623778147.3,stimulus,1,97,,0.0,NoMusic
1623778147.853,fixation,1,97,0.053,1.0,NoMusic
1623778149.3,stimulus,1,98,,0.0,NoMusic
1623778149.938,fixation,1,98,0.138,1.0,NoMusic
1623778151.3,stimulus,1,99,,0.0,NoMusic
1623778152.046,fixation,1,99,0.246,1.0,NoMusic
1623778153.3,stimulus,1,100,,0.0,NoMusic
1623778154.1399999,fixation,1,100,0.34,1.0,NoMusic
1623778155.3,stimulus,1,101,,0.0,NoMusic
1623778155.971,fixation,1,101,0.171,0.0,NoMusic
1623778157.707,stimulus,1,102,0.407,1.0,NoMusic
1623778157.8,fixation,1,102,,0.0,NoMusic
1623778159.767,stimulus,1,103,0.467,1.0,NoMusic
1623778159.8,fixation,1,103,,0.0,NoMusic
1623778161.737,stimulus,1,104,0.437,0.0,NoMusic
1623778161.8,fixation,1,104,,0.0,NoMusic
1623778163.3,stimulus,1,105,,0.0,NoMusic
1623778163.962,fixation,1,105,0.162,1.0,NoMusic
1623778165.3,stimulus,1,106,,0.0,NoMusic
1623778165.819,fixation,1,106,0.019,1.0,NoMusic
1623778167.675,stimulus,1,107,0.375,1.0,NoMusic
1623778167.8,fixation,1,107,,0.0,NoMusic
1623778169.748,stimulus,1,108,0.448,1.0,NoMusic
1623778169.8,fixation,1,108,,0.0,NoMusic
1623778171.3,stimulus,1,109,,0.0,NoMusic
1623778171.911,fixation,1,109,0.111,1.0,NoMusic
1623778173.3,stimulus,1,110,,0.0,NoMusic
1623778174.2849998,fixation,1,110,0.485,1.0,NoMusic
1623778175.3,stimulus,1,111,,0.0,NoMusic
1623778176.3,fixation,1,111,0.5,1.0,NoMusic
1623778177.3,stimulus,1,112,,0.0,NoMusic
1623778178.221,fixation,1,112,0.421,1.0,NoMusic
1623778179.3,stimulus,1,113,,0.0,NoMusic
1623778179.906,fixation,1,113,0.106,1.0,NoMusic
1623778181.6729999,stimulus,1,114,0.373,1.0,NoMusic
1623778181.8,fixation,1,114,,0.0,NoMusic
1623778183.715,stimulus,1,115,0.415,1.0,NoMusic
1623778183.8,fixation,1,115,,0.0,NoMusic
1623778185.3,stimulus,1,116,,0.0,NoMusic
1623778185.842,fixation,1,116,0.042,1.0,NoMusic
1623778187.701,stimulus,1,117,0.401,1.0,NoMusic
1623778187.8,fixation,1,117,,0.0,NoMusic
1623778189.735,stimulus,1,118,0.435,1.0,NoMusic
1623778189.8,fixation,1,118,,0.0,NoMusic
1623778191.3,stimulus,1,119,,0.0,NoMusic
1623778191.938,fixation,1,119,0.138,1.0,NoMusic
1623778193.753,stimulus,1,120,0.453,1.0,NoMusic
1623778193.8,fixation,1,120,,0.0,NoMusic
1623778195.622,stimulus,1,121,0.322,1.0,NoMusic
1623778195.8,fixation,1,121,,0.0,NoMusic
1623778197.702,stimulus,1,122,0.402,1.0,NoMusic
1623778197.8,fixation,1,122,,0.0,NoMusic
1623778199.6239998,stimulus,1,123,0.324,1.0,NoMusic
1623778199.8,fixation,1,123,,0.0,NoMusic
1623778201.726,stimulus,1,124,0.426,1.0,NoMusic
1623778201.8,fixation,1,124,,0.0,NoMusic
1623778203.671,stimulus,1,125,0.371,1.0,NoMusic
1623778203.8,fixation,1,125,,0.0,NoMusic
1623778205.3,stimulus,1,126,,0.0,NoMusic
1623778205.9029999,fixation,1,126,0.103,1.0,NoMusic
1623778207.7779999,stimulus,1,127,0.478,1.0,NoMusic
1623778207.8,fixation,1,127,,0.0,NoMusic
1623778209.6139998,stimulus,1,128,0.314,1.0,NoMusic
1623778209.8,fixation,1,128,,0.0,NoMusic
1623778211.687,stimulus,1,129,0.387,1.0,NoMusic
1623778211.8,fixation,1,129,,0.0,NoMusic
1623778213.68,stimulus,1,130,0.38,1.0,NoMusic
1623778213.8,fixation,1,130,,0.0,NoMusic
1623778215.666,stimulus,1,131,0.366,1.0,NoMusic
1623778215.8,fixation,1,131,,0.0,NoMusic
1623778217.3,stimulus,1,132,,0.0,NoMusic
1623778217.813,fixation,1,132,0.013,1.0,NoMusic
1623778219.3,stimulus,1,133,,0.0,NoMusic
1623778220.2949998,fixation,1,133,0.495,1.0,NoMusic
1623778221.7489998,stimulus,1,134,0.449,1.0,NoMusic
1623778221.8,fixation,1,134,,0.0,NoMusic
1623778223.677,stimulus,1,135,0.377,1.0,NoMusic
1623778223.8,fixation,1,135,,0.0,NoMusic
1623778225.794,stimulus,1,136,0.494,1.0,NoMusic
1623778225.8,fixation,1,136,,0.0,NoMusic
1623778227.3,stimulus,1,137,,0.0,NoMusic
1623778227.902,fixation,1,137,0.102,1.0,NoMusic
1623778229.3,stimulus,1,138,,0.0,NoMusic
1623778230.3899999,fixation,1,138,0.59,1.0,NoMusic
1623778231.3,stimulus,1,139,,0.0,NoMusic
1623778232.132,fixation,1,139,0.332,1.0,NoMusic
1623778233.3,stimulus,1,140,,0.0,NoMusic
1623778234.1629999,fixation,1,140,0.363,1.0,NoMusic
1623778235.3,stimulus,1,141,,0.0,NoMusic
1623778235.994,fixation,1,141,0.194,1.0,NoMusic
1623778237.3,stimulus,1,142,,0.0,NoMusic
1623778238.389,fixation,1,142,0.589,1.0,NoMusic
1623778239.3,stimulus,1,143,,0.0,NoMusic
1623778240.033,fixation,1,143,0.233,1.0,NoMusic
1623778241.7949998,stimulus,1,144,0.495,1.0,NoMusic
1623778241.8,fixation,1,144,,0.0,NoMusic
1623778243.3,stimulus,1,145,,0.0,NoMusic
1623778243.963,fixation,1,145,0.163,0.0,NoMusic
1623778245.3,stimulus,1,146,,0.0,NoMusic
1623778246.123,fixation,1,146,0.323,0.0,NoMusic
1623778247.3,stimulus,1,147,,0.0,NoMusic
1623778248.464,fixation,1,147,0.664,1.0,NoMusic
1623778249.3,stimulus,1,148,,0.0,NoMusic
1623778250.215,fixation,1,148,0.415,1.0,NoMusic
1623778251.3,stimulus,1,149,,0.0,NoMusic
1623778251.8,fixation,1,149,,0.0,NoMusic
1623778253.3,stimulus,1,150,,0.0,NoMusic
1623778254.101,fixation,1,150,0.301,1.0,NoMusic
1623778255.3,stimulus,1,151,,0.0,NoMusic
1623778256.491,fixation,1,151,0.691,1.0,NoMusic
1623778257.3,stimulus,1,152,,0.0,NoMusic
1623778258.131,fixation,1,152,0.331,1.0,NoMusic
1623778259.3,stimulus,1,153,,0.0,NoMusic
1623778259.996,fixation,1,153,0.196,1.0,NoMusic
1623778261.3,stimulus,1,154,,0.0,NoMusic
1623778261.961,fixation,1,154,0.161,1.0,NoMusic
1623778263.3,stimulus,1,155,,0.0,NoMusic
1623778264.178,fixation,1,155,0.378,1.0,NoMusic
1623778265.787,stimulus,1,156,0.487,1.0,NoMusic
1623778265.8,fixation,1,156,,0.0,NoMusic
1623778267.747,stimulus,1,157,0.447,1.0,NoMusic
1623778267.8,fixation,1,157,,0.0,NoMusic
1623778269.724,stimulus,1,158,0.424,1.0,NoMusic
1623778269.8,fixation,1,158,,0.0,NoMusic
1623778271.3,stimulus,1,159,,0.0,NoMusic
1623778271.8899999,fixation,1,159,0.09,1.0,NoMusic
1623778273.7,stimulus,1,160,0.4,1.0,NoMusic
1623778273.8,fixation,1,160,,0.0,NoMusic
1623778275.697,stimulus,1,161,0.397,1.0,NoMusic
1623778275.8,fixation,1,161,,0.0,NoMusic
1623778277.799,stimulus,1,162,0.499,1.0,NoMusic
1623778277.8,fixation,1,162,,0.0,NoMusic
1623778279.3,stimulus,1,163,,0.0,NoMusic
1623778279.8,fixation,1,163,,0.0,NoMusic
1623778281.7949998,stimulus,1,164,0.495,1.0,NoMusic
1623778281.8,fixation,1,164,,0.0,NoMusic
1623778283.629,stimulus,1,165,0.329,1.0,NoMusic
1623778283.8,fixation,1,165,,0.0,NoMusic
1623778285.3,stimulus,1,166,,0.0,NoMusic
1623778285.931,fixation,1,166,0.131,1.0,NoMusic
1623778287.721,stimulus,1,167,0.421,1.0,NoMusic
1623778287.8,fixation,1,167,,0.0,NoMusic
1623778289.738,stimulus,1,168,0.438,1.0,NoMusic
1623778289.8,fixation,1,168,,0.0,NoMusic
1623778291.664,stimulus,1,169,0.364,1.0,NoMusic
1623778291.8,fixation,1,169,,0.0,NoMusic
1623778293.711,stimulus,1,170,0.411,1.0,NoMusic
1623778293.8,fixation,1,170,,0.0,NoMusic
1623778295.712,stimulus,1,171,0.412,1.0,NoMusic
1623778295.8,fixation,1,171,,0.0,NoMusic
1623778297.754,stimulus,1,172,0.454,1.0,NoMusic
1623778297.8,fixation,1,172,,0.0,NoMusic
1623778299.757,stimulus,1,173,0.457,1.0,NoMusic
1623778299.8,fixation,1,173,,0.0,NoMusic
1623778301.679,stimulus,1,174,0.379,1.0,NoMusic
1623778301.8,fixation,1,174,,0.0,NoMusic
1623778303.642,stimulus,1,175,0.342,0.0,NoMusic
1623778303.8,fixation,1,175,,0.0,NoMusic
1623778305.3,stimulus,1,176,,0.0,NoMusic
1623778305.896,fixation,1,176,0.096,1.0,NoMusic
1623778307.3,stimulus,1,177,,0.0,NoMusic
1623778308.134,fixation,1,177,0.334,1.0,NoMusic
1623778309.7159998,stimulus,1,178,0.416,1.0,NoMusic
1623778309.8,fixation,1,178,,0.0,NoMusic
1623778311.666,stimulus,1,179,0.366,1.0,NoMusic
1623778311.8,fixation,1,179,,0.0,NoMusic
1623778313.745,stimulus,1,180,0.445,1.0,NoMusic
1623778313.8,fixation,1,180,,0.0,NoMusic
1623778315.3,stimulus,1,181,,0.0,NoMusic
1623778315.839,fixation,1,181,0.039,1.0,NoMusic
1623778317.675,stimulus,1,182,0.375,1.0,NoMusic
1623778317.8,fixation,1,182,,0.0,NoMusic
1623778319.733,stimulus,1,183,0.433,1.0,NoMusic
1623778319.8,fixation,1,183,,0.0,NoMusic
1623778321.682,stimulus,1,184,0.382,1.0,NoMusic
1623778321.8,fixation,1,184,,0.0,NoMusic
1623778323.692,stimulus,1,185,0.392,1.0,NoMusic
1623778323.8,fixation,1,185,,0.0,NoMusic
1623778325.774,stimulus,1,186,0.474,1.0,NoMusic
1623778325.8,fixation,1,186,,0.0,NoMusic
1623778327.726,stimulus,1,187,0.426,1.0,NoMusic
1623778327.8,fixation,1,187,,0.0,NoMusic
1623778329.69,stimulus,1,188,0.39,1.0,NoMusic
1623778329.8,fixation,1,188,,0.0,NoMusic
1623778331.3,stimulus,1,189,,0.0,NoMusic
1623778331.813,fixation,1,189,0.013,1.0,NoMusic
1623778333.629,stimulus,1,190,0.329,1.0,NoMusic
1623778333.8,fixation,1,190,,0.0,NoMusic
1623778335.595,stimulus,1,191,0.295,1.0,NoMusic
1623778335.8,fixation,1,191,,0.0,NoMusic
1623778337.672,stimulus,1,192,0.372,1.0,NoMusic
1623778337.8,fixation,1,192,,0.0,NoMusic
1623778339.7159998,stimulus,1,193,0.416,1.0,NoMusic
1623778339.8,fixation,1,193,,0.0,NoMusic
1623778341.682,stimulus,1,194,0.382,1.0,NoMusic
1623778341.8,fixation,1,194,,0.0,NoMusic
1623778343.3,stimulus,1,195,,0.0,NoMusic
1623778343.87,fixation,1,195,0.07,1.0,NoMusic
1623778345.632,stimulus,1,196,0.332,1.0,NoMusic
1623778345.8,fixation,1,196,,0.0,NoMusic
1623778347.631,stimulus,1,197,0.331,1.0,NoMusic
1623778347.8,fixation,1,197,,0.0,NoMusic
1623778349.721,stimulus,1,198,0.421,1.0,NoMusic
1623778349.8,fixation,1,198,,0.0,NoMusic
1623778351.3,stimulus,1,199,,0.0,NoMusic
1623778352.182,fixation,1,199,0.382,1.0,NoMusic
1623778353.674,stimulus,1,200,0.374,1.0,NoMusic
1623778353.8,fixation,1,200,,0.0,NoMusic
1623778355.723,stimulus,1,201,0.423,1.0,NoMusic
1623778355.8,fixation,1,201,,0.0,NoMusic
1623778357.672,stimulus,1,202,0.372,1.0,NoMusic
1623778357.8,fixation,1,202,,0.0,NoMusic
1623778359.3,stimulus,1,203,,0.0,NoMusic
1623778360.347,fixation,1,203,0.547,1.0,NoMusic
1623778361.737,stimulus,1,204,0.437,1.0,NoMusic
1623778361.8,fixation,1,204,,0.0,NoMusic
1623778363.766,stimulus,1,205,0.466,1.0,NoMusic
1623778363.8,fixation,1,205,,0.0,NoMusic
1623778365.3,stimulus,1,206,,0.0,NoMusic
1623778365.843,fixation,1,206,0.043,1.0,NoMusic
1623778367.3,stimulus,1,207,,0.0,NoMusic
1623778367.861,fixation,1,207,0.061,0.0,NoMusic
1623778369.3,stimulus,1,208,,0.0,NoMusic
1623778369.833,fixation,1,208,0.033,1.0,NoMusic
1623778371.3,stimulus,1,209,,0.0,NoMusic
1623778371.8439999,fixation,1,209,0.044,1.0,NoMusic
1623778373.3,stimulus,1,210,,0.0,NoMusic
1623778373.846,fixation,1,210,0.046,1.0,NoMusic
1623778375.3,stimulus,1,211,,0.0,NoMusic
1623778375.873,fixation,1,211,0.073,0.0,NoMusic
1623778377.3,stimulus,1,212,,0.0,NoMusic
1623778377.8,fixation,1,212,,0.0,NoMusic
1623778379.3,stimulus,1,213,,0.0,NoMusic
1623778379.937,fixation,1,213,0.137,1.0,NoMusic
1623778381.3,stimulus,1,214,,0.0,NoMusic
1623778381.975,fixation,1,214,0.175,0.0,NoMusic
1623778383.702,stimulus,1,215,0.402,1.0,NoMusic
1623778383.8,fixation,1,215,,0.0,NoMusic
1623778385.679,stimulus,1,216,0.379,1.0,NoMusic
1623778385.8,fixation,1,216,,0.0,NoMusic
1623778387.3,stimulus,1,217,,0.0,NoMusic
1623778388.1729999,fixation,1,217,0.373,0.0,NoMusic
1623778389.7419999,stimulus,1,218,0.442,1.0,NoMusic
1623778389.8,fixation,1,218,,0.0,NoMusic
1623778391.761,stimulus,1,219,0.461,1.0,NoMusic
1623778391.8,fixation,1,219,,0.0,NoMusic
1623778393.3,stimulus,1,220,,0.0,NoMusic
1623778393.927,fixation,1,220,0.127,1.0,NoMusic
1623778395.3,stimulus,1,221,,,NoMusic
1623778395.8,fixation,1,221,,,NoMusic
1623778397.3,stimulus,1,222,,0.0,NoMusic
1623778398.228,fixation,1,222,0.428,1.0,NoMusic
1623778399.714,stimulus,1,223,0.414,1.0,NoMusic
1623778399.8,fixation,1,223,,0.0,NoMusic
1623778401.6399999,stimulus,1,224,0.34,1.0,NoMusic
1623778401.8,fixation,1,224,,0.0,NoMusic
1623778403.7189999,stimulus,1,225,0.419,1.0,NoMusic
1623778403.8,fixation,1,225,,0.0,NoMusic
1623778405.3,stimulus,1,226,,0.0,NoMusic
1623778405.8309999,fixation,1,226,0.031,1.0,NoMusic
1623778407.3,stimulus,1,227,,0.0,NoMusic
1623778407.8179998,fixation,1,227,0.018,1.0,NoMusic
1623778409.3,stimulus,1,228,,0.0,NoMusic
1623778409.868,fixation,1,228,0.068,1.0,NoMusic
1623778411.7319999,stimulus,1,229,0.432,1.0,NoMusic
1623778411.8,fixation,1,229,,0.0,NoMusic
1623778413.6729999,stimulus,1,230,0.373,0.0,NoMusic
1623778413.8,fixation,1,230,,0.0,NoMusic
1623778415.664,stimulus,1,231,0.364,1.0,NoMusic
1623778415.8,fixation,1,231,,0.0,NoMusic
1623778417.718,stimulus,1,232,0.418,1.0,NoMusic
1623778417.8,fixation,1,232,,0.0,NoMusic
1623778419.745,stimulus,1,233,0.445,1.0,NoMusic
1623778420.07,fixation,1,233,0.27,0.0,NoMusic
1623778421.3,stimulus,1,234,,0.0,NoMusic
1623778422.079,fixation,1,234,0.279,1.0,NoMusic
1623778423.764,stimulus,1,235,0.464,0.0,NoMusic
1623778423.8,fixation,1,235,,0.0,NoMusic
1623778425.3,stimulus,1,236,,0.0,NoMusic
1623778426.018,fixation,1,236,0.218,0.0,NoMusic
1623778427.3,stimulus,1,237,,0.0,NoMusic
1623778427.813,fixation,1,237,0.013,1.0,NoMusic
1623778429.3,stimulus,1,238,,0.0,NoMusic
1623778429.9659998,fixation,1,238,0.166,1.0,NoMusic
1623778431.3,stimulus,1,239,,0.0,NoMusic
1623778432.093,fixation,1,239,0.293,1.0,NoMusic
1623778433.3,stimulus,1,240,,0.0,NoMusic
1623778434.145,fixation,1,240,0.345,0.0,NoMusic
1623778435.3,stimulus,1,241,,0.0,NoMusic
1623778436.325,fixation,1,241,0.525,1.0,NoMusic
1623778437.3,stimulus,1,242,,0.0,NoMusic
1623778437.935,fixation,1,242,0.135,1.0,NoMusic
1623778439.3,stimulus,1,243,,0.0,NoMusic
1623778440.212,fixation,1,243,0.412,0.0,NoMusic
1623778441.3,stimulus,1,244,,0.0,NoMusic
1623778441.994,fixation,1,244,0.194,1.0,NoMusic
1623778443.744,stimulus,1,245,0.444,1.0,NoMusic
1623778443.8,fixation,1,245,,0.0,NoMusic
1623778445.7,stimulus,1,246,0.4,1.0,NoMusic
1623778445.8,fixation,1,246,,0.0,NoMusic
1623778447.6759999,stimulus,1,247,0.376,1.0,NoMusic
1623778447.8,fixation,1,247,,0.0,NoMusic
1623778449.692,stimulus,1,248,0.392,1.0,NoMusic
1623778449.8,fixation,1,248,,0.0,NoMusic
1623778451.779,stimulus,1,249,0.479,1.0,NoMusic
1623778451.8,fixation,1,249,,0.0,NoMusic
1623778453.712,stimulus,1,250,0.412,1.0,NoMusic
1623778453.8,fixation,1,250,,0.0,NoMusic
1623778455.3,stimulus,1,251,,0.0,NoMusic
1623778455.8179998,fixation,1,251,0.018,1.0,NoMusic
1623778457.7289999,stimulus,1,252,0.429,1.0,NoMusic
1623778457.8,fixation,1,252,,0.0,NoMusic
1623778459.6469998,stimulus,1,253,0.347,1.0,NoMusic
1623778459.8,fixation,1,253,,0.0,NoMusic
1623778461.642,stimulus,1,254,0.342,1.0,NoMusic
1623778461.8,fixation,1,254,,0.0,NoMusic
1623778463.708,stimulus,1,255,0.408,1.0,NoMusic
1623778463.8,fixation,1,255,,0.0,NoMusic
1623778465.3,stimulus,1,256,,0.0,NoMusic
1623778465.901,fixation,1,256,0.101,1.0,NoMusic
1623778467.3,stimulus,1,257,,0.0,NoMusic
1623778467.846,fixation,1,257,0.046,1.0,NoMusic
1623778469.687,stimulus,1,258,0.387,1.0,NoMusic
1623778469.8,fixation,1,258,,0.0,NoMusic
1623778471.7619998,stimulus,1,259,0.462,1.0,NoMusic
1623778471.8,fixation,1,259,,0.0,NoMusic
1623778473.667,stimulus,1,260,0.367,1.0,NoMusic
1623778473.8,fixation,1,260,,0.0,NoMusic
1623778475.6759999,stimulus,1,261,0.376,1.0,NoMusic
1623778475.8,fixation,1,261,,0.0,NoMusic
1623778477.69,stimulus,1,262,0.39,1.0,NoMusic
1623778477.8,fixation,1,262,,0.0,NoMusic
1623778479.6829998,stimulus,1,263,0.383,1.0,NoMusic
1623778479.8,fixation,1,263,,0.0,NoMusic
1623778481.649,stimulus,1,264,0.349,1.0,NoMusic
1623778481.8,fixation,1,264,,0.0,NoMusic
1623778483.689,stimulus,1,265,0.389,1.0,NoMusic
1623778483.8,fixation,1,265,,0.0,NoMusic
1623778485.3,stimulus,1,266,,0.0,NoMusic
1623778485.97,fixation,1,266,0.17,1.0,NoMusic
1623778487.797,stimulus,1,267,0.497,1.0,NoMusic
1623778487.8,fixation,1,267,,0.0,NoMusic
1623778489.3,stimulus,1,268,,0.0,NoMusic
1623778489.883,fixation,1,268,0.083,1.0,NoMusic
1623778491.645,stimulus,1,269,0.345,1.0,NoMusic
1623778491.8,fixation,1,269,,0.0,NoMusic
1623778493.717,stimulus,1,270,0.417,1.0,NoMusic
1623778493.8,fixation,1,270,,0.0,NoMusic
1623778495.767,stimulus,1,271,0.467,1.0,NoMusic
1623778495.8,fixation,1,271,,0.0,NoMusic
1623778497.639,stimulus,1,272,0.339,0.0,NoMusic
1623778497.8,fixation,1,272,,0.0,NoMusic
1623778499.767,stimulus,1,273,0.467,1.0,NoMusic
1623778499.8,fixation,1,273,,0.0,NoMusic
1623778501.6829998,stimulus,1,274,0.383,1.0,NoMusic
1623778501.8,fixation,1,274,,0.0,NoMusic
1623778503.748,stimulus,1,275,0.448,1.0,NoMusic
1623778503.8,fixation,1,275,,0.0,NoMusic
1623778505.3,stimulus,1,276,,0.0,NoMusic
1623778505.832,fixation,1,276,0.032,1.0,NoMusic
1623778507.793,stimulus,1,277,0.493,1.0,NoMusic
1623778507.8,fixation,1,277,,0.0,NoMusic
1623778509.767,stimulus,1,278,0.467,1.0,NoMusic
1623778509.8,fixation,1,278,,0.0,NoMusic
1623778511.697,stimulus,1,279,0.397,1.0,NoMusic
1623778511.8,fixation,1,279,,0.0,NoMusic
1623778513.714,stimulus,1,280,0.414,1.0,NoMusic
1623778513.8,fixation,1,280,,0.0,NoMusic
1623778515.657,stimulus,1,281,0.357,1.0,NoMusic
1623778515.8,fixation,1,281,,0.0,NoMusic
1623778517.6929998,stimulus,1,282,0.393,1.0,NoMusic
1623778517.8,fixation,1,282,,0.0,NoMusic
1623778519.687,stimulus,1,283,0.387,1.0,NoMusic
1623778519.8,fixation,1,283,,0.0,NoMusic
1623778521.76,stimulus,1,284,0.46,1.0,NoMusic
1623778521.8,fixation,1,284,,0.0,NoMusic
1623778523.6499999,stimulus,1,285,0.35,1.0,NoMusic
1623778523.8,fixation,1,285,,0.0,NoMusic
1623778525.688,stimulus,1,286,0.388,0.0,NoMusic
1623778525.8,fixation,1,286,,0.0,NoMusic
1623778527.688,stimulus,1,287,0.388,1.0,NoMusic
1623778527.8,fixation,1,287,,0.0,NoMusic
1623778529.3,stimulus,1,288,,0.0,NoMusic
1623778530.54,fixation,1,288,0.74,1.0,NoMusic
1623778531.3,stimulus,1,289,,0.0,NoMusic
1623778531.8569999,fixation,1,289,0.057,1.0,NoMusic
1623778533.701,stimulus,1,290,0.401,1.0,NoMusic
1623778533.8,fixation,1,290,,0.0,NoMusic
1623778535.759,stimulus,1,291,0.459,1.0,NoMusic
1623778535.8,fixation,1,291,,0.0,NoMusic
1623778537.3,stimulus,1,292,,0.0,NoMusic
1623778538.092,fixation,1,292,0.292,1.0,NoMusic
1623778539.3,stimulus,1,293,,0.0,NoMusic
1623778539.9029999,fixation,1,293,0.103,1.0,NoMusic
1623778541.3,stimulus,1,294,,0.0,NoMusic
1623778541.978,fixation,1,294,0.178,0.0,NoMusic
1623778543.3,stimulus,1,295,,0.0,NoMusic
1623778544.335,fixation,1,295,0.535,1.0,NoMusic
1623778545.725,stimulus,1,296,0.425,1.0,NoMusic
1623778545.8,fixation,1,296,,0.0,NoMusic
1623778547.3,stimulus,1,297,,0.0,NoMusic
1623778548.077,fixation,1,297,0.277,0.0,NoMusic
1623778549.78,stimulus,1,298,0.48,1.0,NoMusic
1623778549.8,fixation,1,298,,0.0,NoMusic
1623778551.73,stimulus,1,299,0.43,1.0,NoMusic
1623778551.8,fixation,1,299,,0.0,NoMusic
1623778553.3,stimulus,1,300,,0.0,NoMusic
1623778553.911,fixation,1,300,0.111,1.0,NoMusic
1623778555.3,stimulus,1,301,,0.0,NoMusic
1623778555.968,fixation,1,301,0.168,1.0,NoMusic
1623778557.3,stimulus,1,302,,0.0,NoMusic
1623778558.043,fixation,1,302,0.243,1.0,NoMusic
1623778559.3,stimulus,1,303,,0.0,NoMusic
1623778560.05,fixation,1,303,0.25,1.0,NoMusic
1623778561.3,stimulus,1,304,,0.0,NoMusic
1623778562.1369998,fixation,1,304,0.337,1.0,NoMusic
1623778563.3,stimulus,1,305,,0.0,NoMusic
1623778564.61,fixation,1,305,0.81,1.0,NoMusic
1623778565.3,stimulus,1,306,,0.0,NoMusic
1623778565.973,fixation,1,306,0.173,1.0,NoMusic
1623778567.3,stimulus,1,307,,0.0,NoMusic
1623778568.063,fixation,1,307,0.263,1.0,NoMusic
1623778569.3,stimulus,1,308,,0.0,NoMusic
1623778569.8109999,fixation,1,308,0.011,1.0,NoMusic
1623778571.3,stimulus,1,309,,0.0,NoMusic
1623778571.907,fixation,1,309,0.107,1.0,NoMusic
1623778573.3,stimulus,1,310,,0.0,NoMusic
1623778573.925,fixation,1,310,0.125,1.0,NoMusic
1623778575.3,stimulus,1,311,,0.0,NoMusic
1623778575.847,fixation,1,311,0.047,1.0,NoMusic
1623778577.737,stimulus,1,312,0.437,1.0,NoMusic
1623778577.8,fixation,1,312,,0.0,NoMusic
1623778579.3,stimulus,1,313,,0.0,NoMusic
1623778579.895,fixation,1,313,0.095,1.0,NoMusic
1623778581.3,stimulus,1,314,,0.0,NoMusic
1623778582.113,fixation,1,314,0.313,1.0,NoMusic
1623778583.3,stimulus,1,315,,0.0,NoMusic
1623778583.985,fixation,1,315,0.185,1.0,NoMusic
1623778585.3,stimulus,1,316,,0.0,NoMusic
1623778586.043,fixation,1,316,0.243,1.0,NoMusic
1623778587.3,stimulus,1,317,,0.0,NoMusic
1623778588.016,fixation,1,317,0.216,1.0,NoMusic
1623778589.3,stimulus,1,318,,0.0,NoMusic
1623778590.143,fixation,1,318,0.343,1.0,NoMusic
1623778591.3,stimulus,1,319,,0.0,NoMusic
1623778592.0609999,fixation,1,319,0.261,0.0,NoMusic
1623778593.3,stimulus,1,320,,0.0,NoMusic
1623778594.325,fixation,1,320,0.525,1.0,NoMusic
1623778595.3,stimulus,1,321,,0.0,NoMusic
1623778596.095,fixation,1,321,0.295,1.0,NoMusic
1623778597.79,stimulus,1,322,0.49,1.0,NoMusic
1623778597.8,fixation,1,322,,0.0,NoMusic
1623778599.3,stimulus,1,323,,0.0,NoMusic
1623778600.054,fixation,1,323,0.254,1.0,NoMusic
1623778601.75,stimulus,1,324,0.45,0.0,NoMusic
1623778601.8,fixation,1,324,,0.0,NoMusic
1623778603.3,stimulus,1,325,,0.0,NoMusic
1623778603.814,fixation,1,325,0.014,1.0,NoMusic
1623778605.3,stimulus,1,326,,0.0,NoMusic
1623778605.998,fixation,1,326,0.198,1.0,NoMusic
1623778607.3,stimulus,1,327,,0.0,NoMusic
1623778607.962,fixation,1,327,0.162,1.0,NoMusic
1623778609.3,stimulus,1,328,,0.0,NoMusic
1623778610.034,fixation,1,328,0.234,1.0,NoMusic
1623778611.711,stimulus,1,329,0.411,1.0,NoMusic
1623778611.8,fixation,1,329,,0.0,NoMusic
1623778613.3,stimulus,1,330,,0.0,NoMusic
1623778614.041,fixation,1,330,0.241,1.0,NoMusic
1623778615.3,stimulus,1,331,,0.0,NoMusic
1623778616.052,fixation,1,331,0.252,1.0,NoMusic
1623778617.3,stimulus,1,332,,0.0,NoMusic
1623778618.115,fixation,1,332,0.315,1.0,NoMusic
1623778619.649,stimulus,1,333,0.349,1.0,NoMusic
1623778619.8,fixation,1,333,,0.0,NoMusic
1623778621.678,stimulus,1,334,0.378,1.0,NoMusic
1623778621.8,fixation,1,334,,0.0,NoMusic
1623778623.3,stimulus,1,335,,0.0,NoMusic
1623778624.18,fixation,1,335,0.38,1.0,NoMusic
1623778625.7549999,stimulus,1,336,0.455,1.0,NoMusic
1623778625.8,fixation,1,336,,0.0,NoMusic
1623778627.684,stimulus,1,337,0.384,1.0,NoMusic
1623778627.8,fixation,1,337,,0.0,NoMusic
1623778629.641,stimulus,1,338,0.341,1.0,NoMusic
1623778629.8,fixation,1,338,,0.0,NoMusic
1623778631.72,stimulus,1,339,0.42,0.0,NoMusic
1623778631.8,fixation,1,339,,0.0,NoMusic
1623778633.703,stimulus,1,340,0.403,1.0,NoMusic
1623778633.8,fixation,1,340,,0.0,NoMusic
1623778635.6959999,stimulus,1,341,0.396,1.0,NoMusic
1623778635.8,fixation,1,341,,0.0,NoMusic
1623778637.6959999,stimulus,1,342,0.396,1.0,NoMusic
1623778637.8,fixation,1,342,,0.0,NoMusic
1623778639.75,stimulus,1,343,0.45,1.0,NoMusic
1623778639.8,fixation,1,343,,0.0,NoMusic
1623778641.71,stimulus,1,344,0.41,1.0,NoMusic
1623778641.8,fixation,1,344,,0.0,NoMusic
1623778643.3,stimulus,1,345,,0.0,NoMusic
1623778644.089,fixation,1,345,0.289,0.0,NoMusic
1623778645.3,stimulus,1,346,,0.0,NoMusic
1623778645.9129999,fixation,1,346,0.113,1.0,NoMusic
1623778647.681,stimulus,1,347,0.381,1.0,NoMusic
1623778647.8,fixation,1,347,,0.0,NoMusic
1623778649.7419999,stimulus,1,348,0.442,0.0,NoMusic
1623778649.8,fixation,1,348,,0.0,NoMusic
1623778651.7979999,stimulus,1,349,0.498,1.0,NoMusic
1623778651.8,fixation,1,349,,0.0,NoMusic
1623778653.3,stimulus,1,350,,0.0,NoMusic
1623778653.8009999,fixation,1,350,0.001,1.0,NoMusic
1623778655.3,stimulus,1,351,,0.0,NoMusic
1623778655.838,fixation,1,351,0.038,1.0,NoMusic
1623778657.748,stimulus,1,352,0.448,1.0,NoMusic
1623778657.8,fixation,1,352,,0.0,NoMusic
1623778659.3,stimulus,1,353,,0.0,NoMusic
1623778659.8309999,fixation,1,353,0.031,1.0,NoMusic
1623778661.3,stimulus,1,354,,0.0,NoMusic
1623778662.312,fixation,1,354,0.512,1.0,NoMusic
1623778663.689,stimulus,1,355,0.389,1.0,NoMusic
1623778663.8,fixation,1,355,,0.0,NoMusic
1623778665.728,stimulus,1,356,0.428,1.0,NoMusic
1623778665.8,fixation,1,356,,0.0,NoMusic
1623778667.3,stimulus,1,357,,0.0,NoMusic
1623778667.8079998,fixation,1,357,0.008,1.0,NoMusic
1623778669.3,stimulus,1,358,,0.0,NoMusic
1623778670.366,fixation,1,358,0.566,0.0,NoMusic
1623778671.3,stimulus,1,359,,0.0,NoMusic
1623778671.973,fixation,1,359,0.173,1.0,NoMusic
1623778673.3,stimulus,1,360,,0.0,NoMusic
1623778673.9819999,fixation,1,360,0.182,1.0,NoMusic
1623778675.3,stimulus,1,361,,0.0,NoMusic
1623778675.8,fixation,1,361,,0.0,NoMusic
1623778677.3,stimulus,1,362,,0.0,NoMusic
1623778677.827,fixation,1,362,0.027,1.0,NoMusic
1623778679.3,stimulus,1,363,,0.0,NoMusic
1623778680.253,fixation,1,363,0.453,1.0,NoMusic
1623778681.3,stimulus,1,364,,0.0,NoMusic
1623778681.85,fixation,1,364,0.05,0.0,NoMusic
1623778683.761,stimulus,1,365,0.461,1.0,NoMusic
1623778683.8,fixation,1,365,,0.0,NoMusic
1623778685.3,stimulus,1,366,,0.0,NoMusic
1623778685.907,fixation,1,366,0.107,1.0,NoMusic
1623778687.3,stimulus,1,367,,0.0,NoMusic
1623778687.852,fixation,1,367,0.052,1.0,NoMusic
1623778689.3,stimulus,1,368,,0.0,NoMusic
1623778689.832,fixation,1,368,0.032,1.0,NoMusic
1623778691.3,stimulus,1,369,,0.0,NoMusic
1623778691.807,fixation,1,369,0.007,1.0,NoMusic
1623778693.7949998,stimulus,1,370,0.495,1.0,NoMusic
1623778693.8,fixation,1,370,,0.0,NoMusic
1623778695.77,stimulus,1,371,0.47,1.0,NoMusic
1623778695.8,fixation,1,371,,0.0,NoMusic
1623778697.3,stimulus,1,372,,0.0,NoMusic
1623778698.225,fixation,1,372,0.425,0.0,NoMusic
1623778699.3,stimulus,1,373,,0.0,NoMusic
1623778699.951,fixation,1,373,0.151,1.0,NoMusic
1623778701.3,stimulus,1,374,,0.0,NoMusic
1623778702.3439999,fixation,1,374,0.544,0.0,NoMusic
1623778703.3,stimulus,1,375,,0.0,NoMusic
1623778704.394,fixation,1,375,0.594,1.0,NoMusic
1623778705.3,stimulus,1,376,,0.0,NoMusic
1623778706.087,fixation,1,376,0.287,1.0,NoMusic
1623778707.3,stimulus,1,377,,0.0,NoMusic
1623778707.8669999,fixation,1,377,0.067,1.0,NoMusic
1623778709.7,stimulus,1,378,0.4,1.0,NoMusic
1623778709.8,fixation,1,378,,0.0,NoMusic
1623778711.3,stimulus,1,379,,0.0,NoMusic
1623778711.8409998,fixation,1,379,0.041,1.0,NoMusic
1623778713.644,stimulus,1,380,0.344,1.0,NoMusic
1623778713.8,fixation,1,380,,0.0,NoMusic
1623778715.671,stimulus,1,381,0.371,1.0,NoMusic
1623778715.8,fixation,1,381,,0.0,NoMusic
1623778717.761,stimulus,1,382,0.461,1.0,NoMusic
1623778717.8,fixation,1,382,,0.0,NoMusic
1623778719.699,stimulus,1,383,0.399,1.0,NoMusic
1623778719.8,fixation,1,383,,0.0,NoMusic
1623778721.648,stimulus,1,384,0.348,1.0,NoMusic
1623778721.8,fixation,1,384,,0.0,NoMusic
1623778723.77,stimulus,1,385,0.47,1.0,NoMusic
1623778723.8,fixation,1,385,,0.0,NoMusic
1623778725.6269999,stimulus,1,386,0.327,1.0,NoMusic
1623778725.8,fixation,1,386,,0.0,NoMusic
1623778727.665,stimulus,1,387,0.365,1.0,NoMusic
1623778727.8,fixation,1,387,,0.0,NoMusic
1623778729.672,stimulus,1,388,0.372,1.0,NoMusic
1623778729.8,fixation,1,388,,0.0,NoMusic
1623778731.668,stimulus,1,389,0.368,1.0,NoMusic
1623778731.8,fixation,1,389,,0.0,NoMusic
1623778733.6629999,stimulus,1,390,0.363,1.0,NoMusic
1623778733.8,fixation,1,390,,0.0,NoMusic
1623778735.6239998,stimulus,1,391,0.324,1.0,NoMusic
1623778735.8,fixation,1,391,,0.0,NoMusic
1623778737.745,stimulus,1,392,0.445,1.0,NoMusic
1623778737.8,fixation,1,392,,0.0,NoMusic
1623778739.574,stimulus,1,393,0.274,1.0,NoMusic
1623778739.8,fixation,1,393,,0.0,NoMusic
1623778741.658,stimulus,1,394,0.358,1.0,NoMusic
1623778741.8,fixation,1,394,,0.0,NoMusic
1623778743.567,stimulus,1,395,0.267,1.0,NoMusic
1623778743.8,fixation,1,395,,0.0,NoMusic
1623778745.3,stimulus,1,396,,0.0,NoMusic
1623778745.827,fixation,1,396,0.027,1.0,NoMusic
1623778747.654,stimulus,1,397,0.354,1.0,NoMusic
1623778747.8,fixation,1,397,,0.0,NoMusic
1623778749.3,stimulus,1,398,,,RelaxSession
1623778749.8,fixation,1,398,,,RelaxSession
1623778751.3,stimulus,1,399,,,RelaxSession
1623778751.8,fixation,1,399,,,RelaxSession
1623778753.3,stimulus,1,400,,,RelaxSession
1623778753.8,fixation,1,400,,,RelaxSession
1623778755.3,stimulus,1,401,,,RelaxSession
1623778755.8,fixation,1,401,,,RelaxSession
1623778757.3,stimulus,1,402,,,RelaxSession
1623778757.8,fixation,1,402,,,RelaxSession
1623778759.3,stimulus,1,403,,,RelaxSession
1623778759.8,fixation,1,403,,,RelaxSession
1623778761.3,stimulus,1,404,,,RelaxSession
1623778761.8,fixation,1,404,,,RelaxSession
1623778763.3,stimulus,1,405,,,RelaxSession
1623778763.8,fixation,1,405,,,RelaxSession
1623778765.3,stimulus,1,406,,,RelaxSession
1623778765.8,fixation,1,406,,,RelaxSession
1623778767.3,stimulus,1,407,,,RelaxSession
1623778767.8,fixation,1,407,,,RelaxSession
1623778769.3,stimulus,1,408,,,RelaxSession
1623778769.8,fixation,1,408,,,RelaxSession
1623778771.3,stimulus,1,409,,,RelaxSession
1623778771.8,fixation,1,409,,,RelaxSession
1623778773.3,stimulus,1,410,,,RelaxSession
1623778773.8,fixation,1,410,,,RelaxSession
1623778775.3,stimulus,1,411,,,RelaxSession
1623778775.8,fixation,1,411,,,RelaxSession
1623778777.3,stimulus,1,412,,,RelaxSession
1623778777.8,fixation,1,412,,,RelaxSession
1623778779.3,stimulus,1,413,,,RelaxSession
1623778779.8,fixation,1,413,,,RelaxSession
1623778781.3,stimulus,1,414,,,RelaxSession
1623778781.8,fixation,1,414,,,RelaxSession
1623778783.3,stimulus,1,415,,,RelaxSession
1623778783.8,fixation,1,415,,,RelaxSession
1623778785.3,stimulus,1,416,,,RelaxSession
1623778785.8,fixation,1,416,,,RelaxSession
1623778787.3,stimulus,1,417,,,RelaxSession
1623778787.8,fixation,1,417,,,RelaxSession
1623778789.3,stimulus,1,418,,,RelaxSession
1623778789.8,fixation,1,418,,,RelaxSession
1623778791.3,stimulus,1,419,,,RelaxSession
1623778791.8,fixation,1,419,,,RelaxSession
1623778793.3,stimulus,1,420,,,RelaxSession
1623778793.8,fixation,1,420,,,RelaxSession
1623778795.3,stimulus,1,421,,,RelaxSession
1623778795.8,fixation,1,421,,,RelaxSession
1623778797.3,stimulus,1,422,,,RelaxSession
1623778797.8,fixation,1,422,,,RelaxSession
1623778799.3,stimulus,1,423,,,RelaxSession
1623778799.8,fixation,1,423,,,RelaxSession
1623778801.3,stimulus,1,424,,,RelaxSession
1623778801.8,fixation,1,424,,,RelaxSession
1623778803.3,stimulus,1,425,,,RelaxSession
1623778803.8,fixation,1,425,,,RelaxSession
1623778805.3,stimulus,1,426,,,RelaxSession
1623778805.8,fixation,1,426,,,RelaxSession
1623778807.3,stimulus,1,427,,,RelaxSession
1623778807.8,fixation,1,427,,,RelaxSession
1623778809.3,stimulus,1,428,,,RelaxSession
1623778809.8,fixation,1,428,,,RelaxSession
1623778811.3,stimulus,1,429,,,RelaxSession
1623778811.8,fixation,1,429,,,RelaxSession
1623778813.3,stimulus,1,430,,,RelaxSession
1623778813.8,fixation,1,430,,,RelaxSession
1623778815.3,stimulus,1,431,,,RelaxSession
1623778815.8,fixation,1,431,,,RelaxSession
1623778817.3,stimulus,1,432,,,RelaxSession
1623778817.8,fixation,1,432,,,RelaxSession
1623778819.3,stimulus,1,433,,,RelaxSession
1623778819.8,fixation,1,433,,,RelaxSession
1623778821.3,stimulus,1,434,,,RelaxSession
1623778821.8,fixation,1,434,,,RelaxSession
1623778823.3,stimulus,1,435,,,RelaxSession
1623778823.8,fixation,1,435,,,RelaxSession
1623778825.3,stimulus,1,436,,,RelaxSession
1623778825.8,fixation,1,436,,,RelaxSession
1623778827.3,stimulus,1,437,,,RelaxSession
1623778827.8,fixation,1,437,,,RelaxSession
1623778829.3,stimulus,1,438,,,RelaxSession
1623778829.8,fixation,1,438,,,RelaxSession
1623778831.3,stimulus,1,439,,,RelaxSession
1623778831.8,fixation,1,439,,,RelaxSession
1623778833.3,stimulus,1,440,,,RelaxSession
1623778833.8,fixation,1,440,,,RelaxSession
1623778835.3,stimulus,1,441,,,RelaxSession
1623778835.8,fixation,1,441,,,RelaxSession
1623778837.3,stimulus,1,442,,,RelaxSession
1623778837.8,fixation,1,442,,,RelaxSession
1623778839.3,stimulus,1,443,,,RelaxSession
1623778839.8,fixation,1,443,,,RelaxSession
1623778841.3,stimulus,1,444,,,RelaxSession
1623778841.8,fixation,1,444,,,RelaxSession
1623778843.3,stimulus,1,445,,,RelaxSession
1623778843.8,fixation,1,445,,,RelaxSession
1623778845.3,stimulus,1,446,,,RelaxSession
1623778845.8,fixation,1,446,,,RelaxSession
1623778847.3,stimulus,1,447,,,RelaxSession
1623778847.8,fixation,1,447,,,RelaxSession
1623778849.3,stimulus,1,448,,,RelaxSession
1623778849.8,fixation,1,448,,,RelaxSession
1623778851.3,stimulus,1,449,,,RelaxSession
1623778851.8,fixation,1,449,,,RelaxSession
1623778853.3,stimulus,1,450,,,RelaxSession
1623778853.8,fixation,1,450,,,RelaxSession
1623778855.3,stimulus,1,451,,,RelaxSession
1623778855.8,fixation,1,451,,,RelaxSession
1623778857.3,stimulus,1,452,,,RelaxSession
1623778857.8,fixation,1,452,,,RelaxSession
1623778859.3,stimulus,1,453,,,RelaxSession
1623778859.8,fixation,1,453,,,RelaxSession
1623778861.3,stimulus,1,454,,,RelaxSession
1623778861.8,fixation,1,454,,,RelaxSession
1623778863.3,stimulus,1,455,,,RelaxSession
1623778863.8,fixation,1,455,,,RelaxSession
1623778865.3,stimulus,1,456,,,RelaxSession
1623778865.8,fixation,1,456,,,RelaxSession
1623778867.3,stimulus,1,457,,,RelaxSession
1623778867.8,fixation,1,457,,,RelaxSession
1623778869.3,stimulus,1,458,,,RelaxSession
1623778869.8,fixation,1,458,,,RelaxSession
1623778871.3,stimulus,1,459,,,RelaxSession
1623778871.8,fixation,1,459,,,RelaxSession
1623778873.3,stimulus,1,460,,,RelaxSession
1623778873.8,fixation,1,460,,,RelaxSession
1623778875.3,stimulus,1,461,,,RelaxSession
1623778875.8,fixation,1,461,,,RelaxSession
1623778877.3,stimulus,1,462,,,RelaxSession
1623778877.8,fixation,1,462,,,RelaxSession
1623778879.3,stimulus,1,463,,,RelaxSession
1623778879.8,fixation,1,463,,,RelaxSession
1623778881.3,stimulus,1,464,,,RelaxSession
1623778881.8,fixation,1,464,,,RelaxSession
1623778883.3,stimulus,1,465,,,RelaxSession
1623778883.8,fixation,1,465,,,RelaxSession
1623778885.3,stimulus,1,466,,,RelaxSession
1623778885.8,fixation,1,466,,,RelaxSession
1623778887.3,stimulus,1,467,,,RelaxSession
1623778887.8,fixation,1,467,,,RelaxSession
1623778889.3,stimulus,1,468,,,RelaxSession
1623778889.8,fixation,1,468,,,RelaxSession
1623778891.3,stimulus,1,469,,,RelaxSession
1623778891.8,fixation,1,469,,,RelaxSession
1623778893.3,stimulus,1,470,,,RelaxSession
1623778893.8,fixation,1,470,,,RelaxSession
1623778895.3,stimulus,1,471,,,RelaxSession
1623778895.8,fixation,1,471,,,RelaxSession
1623778897.3,stimulus,1,472,,,RelaxSession
1623778897.8,fixation,1,472,,,RelaxSession
1623778899.3,stimulus,1,473,,,RelaxSession
1623778899.8,fixation,1,473,,,RelaxSession
1623778901.3,stimulus,1,474,,,RelaxSession
1623778901.8,fixation,1,474,,,RelaxSession
1623778903.3,stimulus,1,475,,,RelaxSession
1623778903.8,fixation,1,475,,,RelaxSession
1623778905.3,stimulus,1,476,,,RelaxSession
1623778905.8,fixation,1,476,,,RelaxSession
1623778907.3,stimulus,1,477,,,RelaxSession
1623778907.8,fixation,1,477,,,RelaxSession
1623778909.3,stimulus,1,478,,,RelaxSession
1623778909.8,fixation,1,478,,,RelaxSession
1623778911.3,stimulus,1,479,,,RelaxSession
1623778911.8,fixation,1,479,,,RelaxSession
1623778913.3,stimulus,1,480,,,RelaxSession
1623778913.8,fixation,1,480,,,RelaxSession
1623778915.3,stimulus,1,481,,,RelaxSession
1623778915.8,fixation,1,481,,,RelaxSession
1623778917.3,stimulus,1,482,,,RelaxSession
1623778917.8,fixation,1,482,,,RelaxSession
1623778919.3,stimulus,1,483,,,RelaxSession
1623778919.8,fixation,1,483,,,RelaxSession
1623778921.3,stimulus,1,484,,,RelaxSession
1623778921.8,fixation,1,484,,,RelaxSession
1623778923.3,stimulus,1,485,,,RelaxSession
1623778923.8,fixation,1,485,,,RelaxSession
1623778925.3,stimulus,1,486,,,RelaxSession
1623778925.8,fixation,1,486,,,RelaxSession
1623778927.3,stimulus,1,487,,,RelaxSession
1623778927.8,fixation,1,487,,,RelaxSession
1623778929.3,stimulus,1,488,,,RelaxSession
1623778929.8,fixation,1,488,,,RelaxSession
1623778931.3,stimulus,1,489,,,RelaxSession
1623778931.8,fixation,1,489,,,RelaxSession
1623778933.3,stimulus,1,490,,,RelaxSession
1623778933.8,fixation,1,490,,,RelaxSession
1623778935.3,stimulus,1,491,,,RelaxSession
1623778935.8,fixation,1,491,,,RelaxSession
1623778937.3,stimulus,1,492,,,RelaxSession
1623778937.8,fixation,1,492,,,RelaxSession
1623778938.8,stimulus,2,1,,,PracticeSession
1623778939.3,stimulus,1,493,,,RelaxSession
1623778939.3,fixation,2,1,,,PracticeSession
1623778939.8,fixation,1,493,,,RelaxSession
1623778940.8,stimulus,2,2,,,PracticeSession
1623778941.3,stimulus,1,494,,,RelaxSession
1623778941.3,fixation,2,2,,,PracticeSession
1623778941.8,fixation,1,494,,,RelaxSession
1623778942.8,stimulus,2,3,,,PracticeSession
1623778943.3,stimulus,1,495,,,RelaxSession
1623778943.3,fixation,2,3,,,PracticeSession
1623778943.8,fixation,1,495,,,RelaxSession
1623778944.8,stimulus,2,4,,,PracticeSession
1623778945.3,stimulus,1,496,,,RelaxSession
1623778945.3,fixation,2,4,,,PracticeSession
1623778945.8,fixation,1,496,,,RelaxSession
1623778946.8,stimulus,2,5,,,PracticeSession
1623778947.3,stimulus,1,497,,,RelaxSession
1623778947.3,fixation,2,5,,,PracticeSession
1623778947.8,fixation,1,497,,,RelaxSession
1623778948.8,stimulus,2,6,,,PracticeSession
1623778949.3,stimulus,1,498,,,RelaxSession
1623778949.3,fixation,2,6,,,PracticeSession
1623778949.8,fixation,1,498,,,RelaxSession
1623778950.8,stimulus,2,7,,,PracticeSession
1623778951.3,stimulus,1,499,,,RelaxSession
1623778951.3,fixation,2,7,,,PracticeSession
1623778951.8,fixation,1,499,,,RelaxSession
1623778952.8,stimulus,2,8,,,PracticeSession
1623778953.3,stimulus,1,500,,,RelaxSession
1623778953.3,fixation,2,8,,,PracticeSession
1623778953.8,fixation,1,500,,,RelaxSession
1623778954.8,stimulus,2,9,,,PracticeSession
1623778955.3,stimulus,1,501,,,RelaxSession
1623778955.3,fixation,2,9,,,PracticeSession
1623778955.8,fixation,1,501,,,RelaxSession
1623778956.8,stimulus,2,10,,,PracticeSession
1623778957.3,stimulus,1,502,,,RelaxSession
1623778957.3,fixation,2,10,,,PracticeSession
1623778957.8,fixation,1,502,,,RelaxSession
1623778958.8,stimulus,2,11,,,PracticeSession
1623778959.3,stimulus,1,503,,,RelaxSession
1623778959.3,fixation,2,11,,,PracticeSession
1623778959.8,fixation,1,503,,,RelaxSession
1623778960.8,stimulus,2,12,,,PracticeSession
1623778961.3,stimulus,1,504,,,RelaxSession
1623778961.3,fixation,2,12,,,PracticeSession
1623778961.8,fixation,1,504,,,RelaxSession
1623778962.8,stimulus,2,13,,,PracticeSession
1623778963.3,stimulus,1,505,,,RelaxSession
1623778963.3,fixation,2,13,,,PracticeSession
1623778963.8,fixation,1,505,,,RelaxSession
1623778964.8,stimulus,2,14,,,PracticeSession
1623778965.3,stimulus,1,506,,,RelaxSession
1623778965.3,fixation,2,14,,,PracticeSession
1623778965.8,fixation,1,506,,,RelaxSession
1623778966.8,stimulus,2,15,,,PracticeSession
1623778967.3,stimulus,1,507,,,RelaxSession
1623778967.3,fixation,2,15,,,PracticeSession
1623778967.8,fixation,1,507,,,RelaxSession
1623778968.8,stimulus,2,16,,,PracticeSession
1623778969.3,stimulus,1,508,,,RelaxSession
1623778969.3,fixation,2,16,,,PracticeSession
1623778969.8,fixation,1,508,,,RelaxSession
1623778970.8,stimulus,2,17,,,PracticeSession
1623778971.3,stimulus,1,509,,,RelaxSession
1623778971.3,fixation,2,17,,,PracticeSession
1623778971.8,fixation,1,509,,,RelaxSession
1623778972.8,stimulus,2,18,,,PracticeSession
1623778973.3,stimulus,1,510,,,RelaxSession
1623778973.3,fixation,2,18,,,PracticeSession
1623778973.8,fixation,1,510,,,RelaxSession
1623778974.8,stimulus,2,19,,,PracticeSession
1623778975.3,stimulus,1,511,,,RelaxSession
1623778975.3,fixation,2,19,,,PracticeSession
1623778975.8,fixation,1,511,,,RelaxSession
1623778976.8,stimulus,2,20,,,PracticeSession
1623778977.3,stimulus,1,512,,,RelaxSession
1623778977.3,fixation,2,20,,,PracticeSession
1623778977.8,fixation,1,512,,,RelaxSession
1623778978.8,stimulus,2,21,,,PracticeSession
1623778979.3,stimulus,1,513,,,RelaxSession
1623778979.3,fixation,2,21,,,PracticeSession
1623778979.8,fixation,1,513,,,RelaxSession
1623778980.8,stimulus,2,22,,,PracticeSession
1623778981.3,stimulus,1,514,,,RelaxSession
1623778981.3,fixation,2,22,,,PracticeSession
1623778981.8,fixation,1,514,,,RelaxSession
1623778982.8,stimulus,2,23,,,PracticeSession
1623778983.3,stimulus,1,515,,,RelaxSession
1623778983.3,fixation,2,23,,,PracticeSession
1623778983.8,fixation,1,515,,,RelaxSession
1623778984.8,stimulus,2,24,,,PracticeSession
1623778985.3,stimulus,1,516,,,RelaxSession
1623778985.3,fixation,2,24,,,PracticeSession
1623778985.8,fixation,1,516,,,RelaxSession
1623778986.8,stimulus,2,25,,,PracticeSession
1623778987.3,fixation,2,25,,,PracticeSession
1623778987.3,stimulus,1,517,,,RelaxSession
1623778987.8,fixation,1,517,,,RelaxSession
1623778988.8,stimulus,2,26,,,PracticeSession
1623778989.3,stimulus,1,518,,,RelaxSession
1623778989.3,fixation,2,26,,,PracticeSession
1623778989.8,fixation,1,518,,,RelaxSession
1623778990.8,stimulus,2,27,,,PracticeSession
1623778991.3,stimulus,1,519,,,RelaxSession
1623778991.3,fixation,2,27,,,PracticeSession
1623778991.8,fixation,1,519,,,RelaxSession
1623778992.8,stimulus,2,28,,,PracticeSession
1623778993.3,stimulus,1,520,,,RelaxSession
1623778993.3,fixation,2,28,,,PracticeSession
1623778993.8,fixation,1,520,,,RelaxSession
1623778994.8,stimulus,2,29,,,PracticeSession
1623778995.3,stimulus,1,521,,,RelaxSession
1623778995.3,fixation,2,29,,,PracticeSession
1623778995.8,fixation,1,521,,,RelaxSession
1623778996.8,stimulus,2,30,,,PracticeSession
1623778997.3,stimulus,1,522,,,RelaxSession
1623778997.3,fixation,2,30,,,PracticeSession
1623778997.8,fixation,1,522,,,RelaxSession
1623778998.8,stimulus,2,31,,,PracticeSession
1623778999.3,stimulus,1,523,,,RelaxSession
1623778999.3,fixation,2,31,,,PracticeSession
1623778999.8,fixation,1,523,,,RelaxSession
1623779000.8,stimulus,2,32,,,PracticeSession
1623779001.3,stimulus,1,524,,,RelaxSession
1623779001.3,fixation,2,32,,,PracticeSession
1623779001.8,fixation,1,524,,,RelaxSession
1623779002.8,stimulus,2,33,,,PracticeSession
1623779003.3,fixation,2,33,,,PracticeSession
1623779003.3,stimulus,1,525,,,RelaxSession
1623779003.8,fixation,1,525,,,RelaxSession
1623779004.8,stimulus,2,34,,,PracticeSession
1623779005.3,fixation,2,34,,,PracticeSession
1623779005.3,stimulus,1,526,,,RelaxSession
1623779005.8,fixation,1,526,,,RelaxSession
1623779006.8,stimulus,2,35,,,PracticeSession
1623779007.3,stimulus,1,527,,,RelaxSession
1623779007.3,fixation,2,35,,,PracticeSession
1623779007.8,fixation,1,527,,,RelaxSession
1623779008.8,stimulus,2,36,,,PracticeSession
1623779009.3,fixation,2,36,,,PracticeSession
1623779009.3,stimulus,1,528,,,RelaxSession
1623779009.8,fixation,1,528,,,RelaxSession
1623779010.8,stimulus,2,37,,,PracticeSession
1623779011.3,stimulus,1,529,,,RelaxSession
1623779011.3,fixation,2,37,,,PracticeSession
1623779011.8,fixation,1,529,,,RelaxSession
1623779012.8,stimulus,2,38,,,PracticeSession
1623779013.3,stimulus,1,530,,,RelaxSession
1623779013.3,fixation,2,38,,,PracticeSession
1623779013.8,fixation,1,530,,,RelaxSession
1623779014.8,stimulus,2,39,,,PracticeSession
1623779015.3,stimulus,1,531,,,RelaxSession
1623779015.3,fixation,2,39,,,PracticeSession
1623779015.8,fixation,1,531,,,RelaxSession
1623779016.8,stimulus,2,40,,,PracticeSession
1623779017.3,stimulus,1,532,,,RelaxSession
1623779017.3,fixation,2,40,,,PracticeSession
1623779017.8,fixation,1,532,,,RelaxSession
1623779018.8,stimulus,2,41,,,PracticeSession
1623779019.3,fixation,2,41,,,PracticeSession
1623779019.3,stimulus,1,533,,,RelaxSession
1623779019.8,fixation,1,533,,,RelaxSession
1623779020.8,stimulus,2,42,,,PracticeSession
1623779021.3,stimulus,1,534,,,RelaxSession
1623779021.3,fixation,2,42,,,PracticeSession
1623779021.8,fixation,1,534,,,RelaxSession
1623779022.8,stimulus,2,43,,,PracticeSession
1623779023.3,stimulus,1,535,,,RelaxSession
1623779023.3,fixation,2,43,,,PracticeSession
1623779023.8,fixation,1,535,,,RelaxSession
1623779024.8,stimulus,2,44,,,PracticeSession
1623779025.3,stimulus,1,536,,,RelaxSession
1623779025.3,fixation,2,44,,,PracticeSession
1623779025.8,fixation,1,536,,,RelaxSession
1623779026.8,stimulus,2,45,,,NoMusic
1623779027.3,stimulus,1,537,,,RelaxSession
1623779027.3,fixation,2,45,,,NoMusic
1623779027.8,fixation,1,537,,,RelaxSession
1623779028.8,stimulus,2,46,,,NoMusic
1623779029.3,stimulus,1,538,,,RelaxSession
1623779029.3,fixation,2,46,,,NoMusic
1623779029.8,fixation,1,538,,,RelaxSession
1623779030.8,stimulus,2,47,,,NoMusic
1623779031.3,stimulus,1,539,,,RelaxSession
1623779031.3,fixation,2,47,,,NoMusic
1623779031.8,fixation,1,539,,,RelaxSession
1623779032.8,stimulus,2,48,,,NoMusic
1623779033.3,stimulus,1,540,,,RelaxSession
1623779033.3,fixation,2,48,,,NoMusic
1623779033.8,fixation,1,540,,,RelaxSession
1623779034.8,stimulus,2,49,,,NoMusic
1623779035.3,fixation,2,49,,,NoMusic
1623779035.3,stimulus,1,541,,,RelaxSession
1623779035.8,fixation,1,541,,,RelaxSession
1623779036.8,stimulus,2,50,,,NoMusic
1623779037.3,stimulus,1,542,,,RelaxSession
1623779037.3,fixation,2,50,,,NoMusic
1623779037.8,fixation,1,542,,,RelaxSession
1623779038.8,stimulus,2,51,,,NoMusic
1623779039.3,fixation,2,51,,,NoMusic
1623779039.3,stimulus,1,543,,,RelaxSession
1623779039.8,fixation,1,543,,,RelaxSession
1623779040.8,stimulus,2,52,,,NoMusic
1623779041.3,stimulus,1,544,,,RelaxSession
1623779041.3,fixation,2,52,,,NoMusic
1623779041.8,fixation,1,544,,,RelaxSession
1623779042.8,stimulus,2,53,,,NoMusic
1623779043.3,fixation,2,53,,,NoMusic
1623779043.3,stimulus,1,545,,,RelaxSession
1623779043.8,fixation,1,545,,,RelaxSession
1623779044.8,stimulus,2,54,,,NoMusic
1623779045.3,fixation,2,54,,,NoMusic
1623779045.3,stimulus,1,546,,,RelaxSession
1623779045.8,fixation,1,546,,,RelaxSession
1623779046.8,stimulus,2,55,,,NoMusic
1623779047.3,fixation,2,55,,,NoMusic
1623779047.3,stimulus,1,547,,,RelaxSession
1623779047.8,fixation,1,547,,,RelaxSession
1623779048.8,stimulus,2,56,,,NoMusic
1623779049.3,fixation,2,56,,,NoMusic
1623779049.3,stimulus,1,548,,,RelaxSession
1623779049.8,fixation,1,548,,,RelaxSession
1623779050.8,stimulus,2,57,,,NoMusic
1623779051.3,fixation,2,57,,,NoMusic
1623779051.3,stimulus,1,549,,,RelaxSession
1623779051.8,fixation,1,549,,,RelaxSession
1623779052.8,stimulus,2,58,,,NoMusic
1623779053.3,stimulus,1,550,,,RelaxSession
1623779053.3,fixation,2,58,,,NoMusic
1623779053.8,fixation,1,550,,,RelaxSession
1623779054.8,stimulus,2,59,,,NoMusic
1623779055.3,stimulus,1,551,,,RelaxSession
1623779055.3,fixation,2,59,,,NoMusic
1623779055.8,fixation,1,551,,,RelaxSession
1623779056.8,stimulus,2,60,,,NoMusic
1623779057.3,stimulus,1,552,,,RelaxSession
1623779057.3,fixation,2,60,,,NoMusic
1623779057.8,fixation,1,552,,,RelaxSession
1623779058.8,stimulus,2,61,,,NoMusic
1623779059.3,fixation,2,61,,,NoMusic
1623779059.3,stimulus,1,553,,,RelaxSession
1623779059.8,fixation,1,553,,,RelaxSession
1623779060.8,stimulus,2,62,,,NoMusic
1623779061.3,fixation,2,62,,,NoMusic
1623779061.3,stimulus,1,554,,,RelaxSession
1623779061.8,fixation,1,554,,,RelaxSession
1623779062.8,stimulus,2,63,,,NoMusic
1623779063.3,fixation,2,63,,,NoMusic
1623779063.3,stimulus,1,555,,,RelaxSession
1623779063.8,fixation,1,555,,,RelaxSession
1623779064.8,stimulus,2,64,,,NoMusic
1623779065.3,fixation,2,64,,,NoMusic
1623779065.3,stimulus,1,556,,,RelaxSession
1623779065.8,fixation,1,556,,,RelaxSession
1623779066.8,stimulus,2,65,,,NoMusic
1623779067.3,fixation,2,65,,,NoMusic
1623779067.3,stimulus,1,557,,,RelaxSession
1623779067.8,fixation,1,557,,,RelaxSession
1623779068.8,stimulus,2,66,,,NoMusic
1623779069.3,fixation,2,66,,,NoMusic
1623779069.3,stimulus,1,558,,,RelaxSession
1623779069.8,fixation,1,558,,,RelaxSession
1623779070.8,stimulus,2,67,,,NoMusic
1623779071.3,fixation,2,67,,,NoMusic
1623779071.3,stimulus,1,559,,,RelaxSession
1623779071.8,fixation,1,559,,,RelaxSession
1623779072.8,stimulus,2,68,,,NoMusic
1623779073.3,fixation,2,68,,,NoMusic
1623779073.3,stimulus,1,560,,,RelaxSession
1623779073.8,fixation,1,560,,,RelaxSession
1623779074.8,stimulus,2,69,,,NoMusic
1623779075.3,fixation,2,69,,,NoMusic
1623779075.3,stimulus,1,561,,,RelaxSession
1623779075.8,fixation,1,561,,,RelaxSession
1623779076.8,stimulus,2,70,,,NoMusic
1623779077.3,fixation,2,70,,,NoMusic
1623779077.3,stimulus,1,562,,,RelaxSession
1623779077.8,fixation,1,562,,,RelaxSession
1623779078.8,stimulus,2,71,,,NoMusic
1623779079.3,fixation,2,71,,,NoMusic
1623779079.3,stimulus,1,563,,,RelaxSession
1623779079.8,fixation,1,563,,,RelaxSession
1623779080.8,stimulus,2,72,,,NoMusic
1623779081.3,fixation,2,72,,,NoMusic
1623779081.3,stimulus,1,564,,,RelaxSession
1623779081.8,fixation,1,564,,,RelaxSession
1623779082.8,stimulus,2,73,,,NoMusic
1623779083.3,fixation,2,73,,,NoMusic
1623779083.3,stimulus,1,565,,,RelaxSession
1623779083.8,fixation,1,565,,,RelaxSession
1623779084.8,stimulus,2,74,,,NoMusic
1623779085.3,fixation,2,74,,,NoMusic
1623779085.3,stimulus,1,566,,,RelaxSession
1623779085.8,fixation,1,566,,,RelaxSession
1623779086.8,stimulus,2,75,,,NoMusic
1623779087.3,fixation,2,75,,,NoMusic
1623779087.3,stimulus,1,567,,,RelaxSession
1623779087.8,fixation,1,567,,,RelaxSession
1623779088.8,stimulus,2,76,,,NoMusic
1623779089.3,fixation,2,76,,,NoMusic
1623779089.3,stimulus,1,568,,,RelaxSession
1623779089.8,fixation,1,568,,,RelaxSession
1623779090.8,stimulus,2,77,,,NoMusic
1623779091.3,fixation,2,77,,,NoMusic
1623779091.3,stimulus,1,569,,,RelaxSession
1623779091.8,fixation,1,569,,,RelaxSession
1623779092.8,stimulus,2,78,,,NoMusic
1623779093.3,fixation,2,78,,,NoMusic
1623779093.3,stimulus,1,570,,,RelaxSession
1623779093.8,fixation,1,570,,,RelaxSession
1623779094.8,stimulus,2,79,,,NoMusic
1623779095.3,fixation,2,79,,,NoMusic
1623779095.3,stimulus,1,571,,,RelaxSession
1623779095.8,fixation,1,571,,,RelaxSession
1623779096.8,stimulus,2,80,,,NoMusic
1623779097.3,fixation,2,80,,,NoMusic
1623779097.3,stimulus,1,572,,,RelaxSession
1623779097.8,fixation,1,572,,,RelaxSession
1623779098.8,stimulus,2,81,,,NoMusic
1623779099.3,fixation,2,81,,,NoMusic
1623779099.3,stimulus,1,573,,,RelaxSession
1623779099.8,fixation,1,573,,,RelaxSession
1623779100.8,stimulus,2,82,,,NoMusic
1623779101.3,fixation,2,82,,,NoMusic
1623779101.3,stimulus,1,574,,,RelaxSession
1623779101.8,fixation,1,574,,,RelaxSession
1623779102.8,stimulus,2,83,,,NoMusic
1623779103.3,fixation,2,83,,,NoMusic
1623779103.3,stimulus,1,575,,,RelaxSession
1623779103.8,fixation,1,575,,,RelaxSession
1623779104.8,stimulus,2,84,,,NoMusic
1623779105.3,fixation,2,84,,,NoMusic
1623779105.3,stimulus,1,576,,,RelaxSession
1623779105.8,fixation,1,576,,,RelaxSession
1623779106.8,stimulus,2,85,,,NoMusic
1623779107.3,fixation,2,85,,,NoMusic
1623779107.3,stimulus,1,577,,,RelaxSession
1623779107.8,fixation,1,577,,,RelaxSession
1623779108.8,stimulus,2,86,,,NoMusic
1623779109.3,fixation,2,86,,,NoMusic
1623779109.3,stimulus,1,578,,,RelaxSession
1623779109.8,fixation,1,578,,,RelaxSession
1623779110.8,stimulus,2,87,,,NoMusic
1623779111.3,fixation,2,87,,,NoMusic
1623779111.3,stimulus,1,579,,,RelaxSession
1623779111.8,fixation,1,579,,,RelaxSession
1623779112.8,stimulus,2,88,,,NoMusic
1623779113.3,fixation,2,88,,,NoMusic
1623779113.3,stimulus,1,580,,,RelaxSession
1623779113.8,fixation,1,580,,,RelaxSession
1623779114.8,stimulus,2,89,,,NoMusic
1623779115.3,stimulus,1,581,,,RelaxSession
1623779115.3,fixation,2,89,,,NoMusic
1623779115.8,fixation,1,581,,,RelaxSession
1623779116.8,stimulus,2,90,,,NoMusic
1623779117.3,fixation,2,90,,,NoMusic
1623779117.3,stimulus,1,582,,,RelaxSession
1623779117.8,fixation,1,582,,,RelaxSession
1623779118.8,stimulus,2,91,,,NoMusic
1623779119.3,stimulus,1,583,,,RelaxSession
1623779119.3,fixation,2,91,,,NoMusic
1623779119.8,fixation,1,583,,,RelaxSession
1623779120.8,stimulus,2,92,,,NoMusic
1623779121.3,fixation,2,92,,,NoMusic
1623779121.3,stimulus,1,584,,,RelaxSession
1623779121.8,fixation,1,584,,,RelaxSession
1623779122.8,stimulus,2,93,,,NoMusic
1623779123.3,stimulus,1,585,,,RelaxSession
1623779123.3,fixation,2,93,,,NoMusic
1623779123.8,fixation,1,585,,,RelaxSession
1623779124.8,stimulus,2,94,,,NoMusic
1623779125.11,stimulus,3,1,,,PracticeSession
1623779125.3,fixation,2,94,,,NoMusic
1623779125.3,stimulus,1,586,,,RelaxSession
1623779125.61,fixation,3,1,,,PracticeSession
1623779125.8,fixation,1,586,,,RelaxSession
1623779126.8,stimulus,2,95,,,NoMusic
1623779127.11,stimulus,3,2,,,PracticeSession
1623779127.3,fixation,2,95,,,NoMusic
1623779127.3,stimulus,1,587,,,RelaxSession
1623779127.61,fixation,3,2,,,PracticeSession
1623779127.8,fixation,1,587,,,RelaxSession
1623779128.8,stimulus,2,96,,,NoMusic
1623779129.11,stimulus,3,3,,,PracticeSession
1623779129.3,fixation,2,96,,,NoMusic
1623779129.3,stimulus,1,588,,,RelaxSession
1623779129.61,fixation,3,3,,,PracticeSession
1623779129.8,fixation,1,588,,,RelaxSession
1623779130.8,stimulus,2,97,,,NoMusic
1623779131.11,stimulus,3,4,,,PracticeSession
1623779131.3,fixation,2,97,,,NoMusic
1623779131.3,stimulus,1,589,,,RelaxSession
1623779131.61,fixation,3,4,,,PracticeSession
1623779131.8,fixation,1,589,,,RelaxSession
1623779132.8,stimulus,2,98,,,NoMusic
1623779133.11,stimulus,3,5,,,PracticeSession
1623779133.3,fixation,2,98,,,NoMusic
1623779133.3,stimulus,1,590,,,RelaxSession
1623779133.61,fixation,3,5,,,PracticeSession
1623779133.8,fixation,1,590,,,RelaxSession
1623779134.8,stimulus,2,99,,,NoMusic
1623779135.11,stimulus,3,6,,,PracticeSession
1623779135.3,stimulus,1,591,,,RelaxSession
1623779135.3,fixation,2,99,,,NoMusic
1623779135.61,fixation,3,6,,,PracticeSession
1623779135.8,fixation,1,591,,,RelaxSession
1623779136.8,stimulus,2,100,,,NoMusic
1623779137.11,stimulus,3,7,,,PracticeSession
1623779137.3,fixation,2,100,,,NoMusic
1623779137.3,stimulus,1,592,,,RelaxSession
1623779137.61,fixation,3,7,,,PracticeSession
1623779137.8,fixation,1,592,,,RelaxSession
1623779138.8,stimulus,2,101,,,NoMusic
1623779139.11,stimulus,3,8,,,PracticeSession
1623779139.3,stimulus,1,593,,,RelaxSession
1623779139.3,fixation,2,101,,,NoMusic
1623779139.61,fixation,3,8,,,PracticeSession
1623779139.8,fixation,1,593,,,RelaxSession
1623779140.8,stimulus,2,102,,,NoMusic
1623779141.11,stimulus,3,9,,,PracticeSession
1623779141.3,fixation,2,102,,,NoMusic
1623779141.3,stimulus,1,594,,,RelaxSession
1623779141.61,fixation,3,9,,,PracticeSession
1623779141.8,fixation,1,594,,,RelaxSession
1623779142.8,stimulus,2,103,,,NoMusic
1623779143.11,stimulus,3,10,,,PracticeSession
1623779143.3,fixation,2,103,,,NoMusic
1623779143.3,stimulus,1,595,,,RelaxSession
1623779143.61,fixation,3,10,,,PracticeSession
1623779143.8,fixation,1,595,,,RelaxSession
1623779144.8,stimulus,2,104,,,NoMusic
1623779145.11,stimulus,3,11,,,PracticeSession
1623779145.3,fixation,2,104,,,NoMusic
1623779145.3,stimulus,1,596,,,RelaxSession
1623779145.61,fixation,3,11,,,PracticeSession
1623779145.8,fixation,1,596,,,RelaxSession
1623779146.8,stimulus,2,105,,,NoMusic
1623779147.11,stimulus,3,12,,,PracticeSession
1623779147.3,fixation,2,105,,,NoMusic
1623779147.3,stimulus,1,597,,,RelaxSession
1623779147.61,fixation,3,12,,,PracticeSession
1623779147.8,fixation,1,597,,,RelaxSession
1623779148.8,stimulus,2,106,,,NoMusic
1623779149.11,stimulus,3,13,,,PracticeSession
1623779149.3,fixation,2,106,,,NoMusic
1623779149.3,stimulus,1,598,,,RelaxSession
1623779149.61,fixation,3,13,,,PracticeSession
1623779149.8,fixation,1,598,,,RelaxSession
1623779150.8,stimulus,2,107,,,NoMusic
1623779151.11,stimulus,3,14,,,PracticeSession
1623779151.3,fixation,2,107,,,NoMusic
1623779151.3,stimulus,1,599,,,RelaxSession
1623779151.61,fixation,3,14,,,PracticeSession
1623779151.8,fixation,1,599,,,RelaxSession
1623779152.8,stimulus,2,108,,,NoMusic
1623779153.11,stimulus,3,15,,,PracticeSession
1623779153.3,fixation,2,108,,,NoMusic
1623779153.3,stimulus,1,600,,,RelaxSession
1623779153.61,fixation,3,15,,,PracticeSession
1623779153.8,fixation,1,600,,,RelaxSession
1623779154.8,stimulus,2,109,,,NoMusic
1623779155.11,stimulus,3,16,,,PracticeSession
1623779155.3,fixation,2,109,,,NoMusic
1623779155.3,stimulus,1,601,,,RelaxSession
1623779155.61,fixation,3,16,,,PracticeSession
1623779155.8,fixation,1,601,,,RelaxSession
1623779156.8,stimulus,2,110,,,NoMusic
1623779157.11,stimulus,3,17,,,PracticeSession
1623779157.3,fixation,2,110,,,NoMusic
1623779157.3,stimulus,1,602,,,RelaxSession
1623779157.61,fixation,3,17,,,PracticeSession
1623779157.8,fixation,1,602,,,RelaxSession
1623779158.8,stimulus,2,111,,,NoMusic
1623779159.11,stimulus,3,18,,,PracticeSession
1623779159.3,stimulus,1,603,,,RelaxSession
1623779159.3,fixation,2,111,,,NoMusic
1623779159.61,fixation,3,18,,,PracticeSession
1623779159.8,fixation,1,603,,,RelaxSession
1623779160.8,stimulus,2,112,,,NoMusic
1623779161.11,stimulus,3,19,,,PracticeSession
1623779161.3,stimulus,1,604,,,RelaxSession
1623779161.3,fixation,2,112,,,NoMusic
1623779161.61,fixation,3,19,,,PracticeSession
1623779161.8,fixation,1,604,,,RelaxSession
1623779162.8,stimulus,2,113,,,NoMusic
1623779163.11,stimulus,3,20,,,PracticeSession
1623779163.3,stimulus,1,605,,,RelaxSession
1623779163.3,fixation,2,113,,,NoMusic
1623779163.61,fixation,3,20,,,PracticeSession
1623779163.8,fixation,1,605,,,RelaxSession
1623779164.8,stimulus,2,114,,,NoMusic
1623779165.11,stimulus,3,21,,,PracticeSession
1623779165.3,stimulus,1,606,,,RelaxSession
1623779165.3,fixation,2,114,,,NoMusic
1623779165.61,fixation,3,21,,,PracticeSession
1623779165.8,fixation,1,606,,,RelaxSession
1623779166.8,stimulus,2,115,,,NoMusic
1623779167.11,stimulus,3,22,,,PracticeSession
1623779167.3,stimulus,1,607,,,RelaxSession
1623779167.3,fixation,2,115,,,NoMusic
1623779167.61,fixation,3,22,,,PracticeSession
1623779167.8,fixation,1,607,,,RelaxSession
1623779168.8,stimulus,2,116,,,NoMusic
1623779169.11,stimulus,3,23,,,PracticeSession
1623779169.3,stimulus,1,608,,,RelaxSession
1623779169.3,fixation,2,116,,,NoMusic
1623779169.61,fixation,3,23,,,PracticeSession
1623779169.8,fixation,1,608,,,RelaxSession
1623779170.8,stimulus,2,117,,,NoMusic
1623779171.11,stimulus,3,24,,,PracticeSession
1623779171.3,stimulus,1,609,,,RelaxSession
1623779171.3,fixation,2,117,,,NoMusic
1623779171.61,fixation,3,24,,,PracticeSession
1623779171.8,fixation,1,609,,,RelaxSession
1623779172.8,stimulus,2,118,,,NoMusic
1623779173.11,stimulus,3,25,,,PracticeSession
1623779173.3,fixation,2,118,,,NoMusic
1623779173.3,stimulus,1,610,,,RelaxSession
1623779173.61,fixation,3,25,,,PracticeSession
1623779173.8,fixation,1,610,,,RelaxSession
1623779174.8,stimulus,2,119,,,NoMusic
1623779175.11,stimulus,3,26,,,PracticeSession
1623779175.3,stimulus,1,611,,,RelaxSession
1623779175.3,fixation,2,119,,,NoMusic
1623779175.61,fixation,3,26,,,PracticeSession
1623779175.8,fixation,1,611,,,RelaxSession
1623779176.8,stimulus,2,120,,,NoMusic
1623779177.11,stimulus,3,27,,,PracticeSession
1623779177.3,stimulus,1,612,,,RelaxSession
1623779177.3,fixation,2,120,,,NoMusic
1623779177.61,fixation,3,27,,,PracticeSession
1623779177.8,fixation,1,612,,,RelaxSession
1623779178.8,stimulus,2,121,,,NoMusic
1623779179.11,stimulus,3,28,,,PracticeSession
1623779179.3,stimulus,1,613,,,RelaxSession
1623779179.3,fixation,2,121,,,NoMusic
1623779179.61,fixation,3,28,,,PracticeSession
1623779179.8,fixation,1,613,,,RelaxSession
1623779180.8,stimulus,2,122,,,NoMusic
1623779181.11,stimulus,3,29,,,PracticeSession
1623779181.3,stimulus,1,614,,,RelaxSession
1623779181.3,fixation,2,122,,,NoMusic
1623779181.61,fixation,3,29,,,PracticeSession
1623779181.8,fixation,1,614,,,RelaxSession
1623779182.8,stimulus,2,123,,,NoMusic
1623779183.11,stimulus,3,30,,,PracticeSession
1623779183.3,stimulus,1,615,,,RelaxSession
1623779183.3,fixation,2,123,,,NoMusic
1623779183.61,fixation,3,30,,,PracticeSession
1623779183.8,fixation,1,615,,,RelaxSession
1623779184.8,stimulus,2,124,,,NoMusic
1623779185.11,stimulus,3,31,,,PracticeSession
1623779185.3,fixation,2,124,,,NoMusic
1623779185.3,stimulus,1,616,,,RelaxSession
1623779185.61,fixation,3,31,,,PracticeSession
1623779185.8,fixation,1,616,,,RelaxSession
1623779186.8,stimulus,2,125,,,NoMusic
1623779187.11,stimulus,3,32,,,PracticeSession
1623779187.3,stimulus,1,617,,,RelaxSession
1623779187.3,fixation,2,125,,,NoMusic
1623779187.61,fixation,3,32,,,PracticeSession
1623779187.8,fixation,1,617,,,RelaxSession
1623779188.8,stimulus,2,126,,,NoMusic
1623779189.11,stimulus,3,33,,,PracticeSession
1623779189.3,stimulus,1,618,,,RelaxSession
1623779189.3,fixation,2,126,,,NoMusic
1623779189.61,fixation,3,33,,,PracticeSession
1623779189.8,fixation,1,618,,,RelaxSession
1623779190.8,stimulus,2,127,,,NoMusic
1623779191.11,stimulus,3,34,,,PracticeSession
1623779191.3,fixation,2,127,,,NoMusic
1623779191.3,stimulus,1,619,,,RelaxSession
1623779191.61,fixation,3,34,,,PracticeSession
1623779191.8,fixation,1,619,,,RelaxSession
1623779192.8,stimulus,2,128,,,NoMusic
1623779193.11,stimulus,3,35,,,PracticeSession
1623779193.3,fixation,2,128,,,NoMusic
1623779193.3,stimulus,1,620,,,RelaxSession
1623779193.61,fixation,3,35,,,PracticeSession
1623779193.8,fixation,1,620,,,RelaxSession
1623779194.8,stimulus,2,129,,,NoMusic
1623779195.11,stimulus,3,36,,,PracticeSession
1623779195.3,stimulus,1,621,,,RelaxSession
1623779195.3,fixation,2,129,,,NoMusic
1623779195.61,fixation,3,36,,,PracticeSession
1623779195.8,fixation,1,621,,,RelaxSession
1623779196.8,stimulus,2,130,,,NoMusic
1623779197.11,stimulus,3,37,,,PracticeSession
1623779197.3,stimulus,1,622,,,RelaxSession
1623779197.3,fixation,2,130,,,NoMusic
1623779197.61,fixation,3,37,,,PracticeSession
1623779197.8,fixation,1,622,,,RelaxSession
1623779198.8,stimulus,2,131,,,NoMusic
1623779199.11,stimulus,3,38,,,PracticeSession
1623779199.3,stimulus,1,623,,,RelaxSession
1623779199.3,fixation,2,131,,,NoMusic
1623779199.61,fixation,3,38,,,PracticeSession
1623779199.8,fixation,1,623,,,RelaxSession
1623779200.8,stimulus,2,132,,,NoMusic
1623779201.11,stimulus,3,39,,,PracticeSession
1623779201.3,stimulus,1,624,,,RelaxSession
1623779201.3,fixation,2,132,,,NoMusic
1623779201.61,fixation,3,39,,,PracticeSession
1623779201.8,fixation,1,624,,,RelaxSession
1623779202.8,stimulus,2,133,,,NoMusic
1623779203.11,stimulus,3,40,,,PracticeSession
1623779203.3,fixation,2,133,,,NoMusic
1623779203.3,stimulus,1,625,,,RelaxSession
1623779203.61,fixation,3,40,,,PracticeSession
1623779203.8,fixation,1,625,,,RelaxSession
1623779204.8,stimulus,2,134,,,NoMusic
1623779205.11,stimulus,3,41,,,PracticeSession
1623779205.3,fixation,2,134,,,NoMusic
1623779205.3,stimulus,1,626,,,RelaxSession
1623779205.61,fixation,3,41,,,PracticeSession
1623779205.8,fixation,1,626,,,RelaxSession
1623779206.8,stimulus,2,135,,,NoMusic
1623779207.11,stimulus,3,42,,,PracticeSession
1623779207.3,fixation,2,135,,,NoMusic
1623779207.3,stimulus,1,627,,,RelaxSession
1623779207.61,fixation,3,42,,,PracticeSession
1623779207.8,fixation,1,627,,,RelaxSession
1623779208.8,stimulus,2,136,,,NoMusic
1623779209.11,stimulus,3,43,,,PracticeSession
1623779209.3,stimulus,1,628,,,RelaxSession
1623779209.3,fixation,2,136,,,NoMusic
1623779209.61,fixation,3,43,,,PracticeSession
1623779209.8,fixation,1,628,,,RelaxSession
1623779210.8,stimulus,2,137,,,NoMusic
1623779211.11,stimulus,3,44,,,PracticeSession
1623779211.3,stimulus,1,629,,,RelaxSession
1623779211.3,fixation,2,137,,,NoMusic
1623779211.61,fixation,3,44,,,PracticeSession
1623779211.8,fixation,1,629,,,RelaxSession
1623779212.8,stimulus,2,138,,,NoMusic
1623779213.11,stimulus,3,45,,,NoMusic
1623779213.3,stimulus,1,630,,,RelaxSession
1623779213.3,fixation,2,138,,,NoMusic
1623779213.61,fixation,3,45,,,NoMusic
1623779213.8,fixation,1,630,,,RelaxSession
1623779214.8,stimulus,2,139,,,NoMusic
1623779215.11,stimulus,3,46,,,NoMusic
1623779215.3,stimulus,1,631,,,RelaxSession
1623779215.3,fixation,2,139,,,NoMusic
1623779215.61,fixation,3,46,,,NoMusic
1623779215.8,fixation,1,631,,,RelaxSession
1623779216.8,stimulus,2,140,,,NoMusic
1623779217.11,stimulus,3,47,,,NoMusic
1623779217.3,stimulus,1,632,,,RelaxSession
1623779217.3,fixation,2,140,,,NoMusic
1623779217.61,fixation,3,47,,,NoMusic
1623779217.8,fixation,1,632,,,RelaxSession
1623779218.8,stimulus,2,141,,,NoMusic
1623779219.11,stimulus,3,48,,,NoMusic
1623779219.3,fixation,2,141,,,NoMusic
1623779219.3,stimulus,1,633,,,RelaxSession
1623779219.61,fixation,3,48,,,NoMusic
1623779219.8,fixation,1,633,,,RelaxSession
1623779220.8,stimulus,2,142,,,NoMusic
1623779221.11,stimulus,3,49,,,NoMusic
1623779221.3,stimulus,1,634,,,RelaxSession
1623779221.3,fixation,2,142,,,NoMusic
1623779221.61,fixation,3,49,,,NoMusic
1623779221.8,fixation,1,634,,,RelaxSession
1623779222.8,stimulus,2,143,,,NoMusic
1623779223.11,stimulus,3,50,,,NoMusic
1623779223.3,stimulus,1,635,,,RelaxSession
1623779223.3,fixation,2,143,,,NoMusic
1623779223.61,fixation,3,50,,,NoMusic
1623779223.8,fixation,1,635,,,RelaxSession
1623779224.8,stimulus,2,144,,,NoMusic
1623779225.11,stimulus,3,51,,,NoMusic
1623779225.3,stimulus,1,636,,,RelaxSession
1623779225.3,fixation,2,144,,,NoMusic
1623779225.61,fixation,3,51,,,NoMusic
1623779225.8,fixation,1,636,,,RelaxSession
1623779226.8,stimulus,2,145,,,NoMusic
1623779227.11,stimulus,3,52,,,NoMusic
1623779227.3,stimulus,1,637,,,RelaxSession
1623779227.3,fixation,2,145,,,NoMusic
1623779227.61,fixation,3,52,,,NoMusic
1623779227.8,fixation,1,637,,,RelaxSession
1623779228.8,stimulus,2,146,,,NoMusic
1623779229.11,stimulus,3,53,,,NoMusic
1623779229.3,stimulus,1,638,,,RelaxSession
1623779229.3,fixation,2,146,,,NoMusic
1623779229.61,fixation,3,53,,,NoMusic
1623779229.8,fixation,1,638,,,RelaxSession
1623779230.8,stimulus,2,147,,,NoMusic
1623779231.11,stimulus,3,54,,,NoMusic
1623779231.3,stimulus,1,639,,,RelaxSession
1623779231.3,fixation,2,147,,,NoMusic
1623779231.61,fixation,3,54,,,NoMusic
1623779231.8,fixation,1,639,,,RelaxSession
1623779232.8,stimulus,2,148,,,NoMusic
1623779233.11,stimulus,3,55,,,NoMusic
1623779233.3,stimulus,1,640,,,RelaxSession
1623779233.3,fixation,2,148,,,NoMusic
1623779233.61,fixation,3,55,,,NoMusic
1623779233.8,fixation,1,640,,,RelaxSession
1623779234.8,stimulus,2,149,,,NoMusic
1623779235.11,stimulus,3,56,,,NoMusic
1623779235.3,stimulus,1,641,,,RelaxSession
1623779235.3,fixation,2,149,,,NoMusic
1623779235.61,fixation,3,56,,,NoMusic
1623779235.8,fixation,1,641,,,RelaxSession
1623779236.8,stimulus,2,150,,,NoMusic
1623779237.11,stimulus,3,57,,,NoMusic
1623779237.3,fixation,2,150,,,NoMusic
1623779237.3,stimulus,1,642,,,RelaxSession
1623779237.61,fixation,3,57,,,NoMusic
1623779237.8,fixation,1,642,,,RelaxSession
1623779238.8,stimulus,2,151,,,NoMusic
1623779239.11,stimulus,3,58,,,NoMusic
1623779239.3,stimulus,1,643,,,RelaxSession
1623779239.3,fixation,2,151,,,NoMusic
1623779239.61,fixation,3,58,,,NoMusic
1623779239.8,fixation,1,643,,,RelaxSession
1623779240.8,stimulus,2,152,,,NoMusic
1623779241.11,stimulus,3,59,,,NoMusic
1623779241.3,stimulus,1,644,,,RelaxSession
1623779241.3,fixation,2,152,,,NoMusic
1623779241.61,fixation,3,59,,,NoMusic
1623779241.8,fixation,1,644,,,RelaxSession
1623779242.8,stimulus,2,153,,,NoMusic
1623779243.11,stimulus,3,60,,,NoMusic
1623779243.3,stimulus,1,645,,,RelaxSession
1623779243.3,fixation,2,153,,,NoMusic
1623779243.61,fixation,3,60,,,NoMusic
1623779243.8,fixation,1,645,,,RelaxSession
1623779244.8,stimulus,2,154,,,NoMusic
1623779245.11,stimulus,3,61,,,NoMusic
1623779245.3,stimulus,1,646,,,RelaxSession
1623779245.3,fixation,2,154,,,NoMusic
1623779245.61,fixation,3,61,,,NoMusic
1623779245.8,fixation,1,646,,,RelaxSession
1623779246.8,stimulus,2,155,,,NoMusic
1623779247.11,stimulus,3,62,,,NoMusic
1623779247.3,stimulus,1,647,,,RelaxSession
1623779247.3,fixation,2,155,,,NoMusic
1623779247.61,fixation,3,62,,,NoMusic
1623779247.8,fixation,1,647,,,RelaxSession
1623779248.8,stimulus,2,156,,,NoMusic
1623779249.11,stimulus,3,63,,,NoMusic
1623779249.3,fixation,2,156,,,NoMusic
1623779249.3,stimulus,1,648,,,RelaxSession
1623779249.61,fixation,3,63,,,NoMusic
1623779249.8,fixation,1,648,,,RelaxSession
1623779250.8,stimulus,2,157,,,NoMusic
1623779251.11,stimulus,3,64,,,NoMusic
1623779251.3,fixation,2,157,,,NoMusic
1623779251.3,stimulus,1,649,,,RelaxSession
1623779251.61,fixation,3,64,,,NoMusic
1623779251.8,fixation,1,649,,,RelaxSession
1623779252.8,stimulus,2,158,,,NoMusic
1623779253.11,stimulus,3,65,,,NoMusic
1623779253.3,fixation,2,158,,,NoMusic
1623779253.3,stimulus,1,650,,,RelaxSession
1623779253.61,fixation,3,65,,,NoMusic
1623779253.8,fixation,1,650,,,RelaxSession
1623779254.8,stimulus,2,159,,,NoMusic
1623779255.11,stimulus,3,66,,,NoMusic
1623779255.3,fixation,2,159,,,NoMusic
1623779255.3,stimulus,1,651,,,RelaxSession
1623779255.61,fixation,3,66,,,NoMusic
1623779255.8,fixation,1,651,,,RelaxSession
1623779256.8,stimulus,2,160,,,NoMusic
1623779257.11,stimulus,3,67,,,NoMusic
1623779257.3,stimulus,1,652,,,RelaxSession
1623779257.3,fixation,2,160,,,NoMusic
1623779257.61,fixation,3,67,,,NoMusic
1623779257.8,fixation,1,652,,,RelaxSession
1623779258.8,stimulus,2,161,,,NoMusic
1623779259.11,stimulus,3,68,,,NoMusic
1623779259.3,fixation,2,161,,,NoMusic
1623779259.3,stimulus,1,653,,,RelaxSession
1623779259.61,fixation,3,68,,,NoMusic
1623779259.8,fixation,1,653,,,RelaxSession
1623779260.8,stimulus,2,162,,,NoMusic
1623779261.11,stimulus,3,69,,,NoMusic
1623779261.3,fixation,2,162,,,NoMusic
1623779261.3,stimulus,1,654,,,RelaxSession
1623779261.61,fixation,3,69,,,NoMusic
1623779261.8,fixation,1,654,,,RelaxSession
1623779262.8,stimulus,2,163,,,NoMusic
1623779263.11,stimulus,3,70,,,NoMusic
1623779263.3,fixation,2,163,,,NoMusic
1623779263.3,stimulus,1,655,,,RelaxSession
1623779263.61,fixation,3,70,,,NoMusic
1623779263.8,fixation,1,655,,,RelaxSession
1623779264.8,stimulus,2,164,,,NoMusic
1623779265.11,stimulus,3,71,,,NoMusic
1623779265.3,fixation,2,164,,,NoMusic
1623779265.3,stimulus,1,656,,,RelaxSession
1623779265.61,fixation,3,71,,,NoMusic
1623779265.8,fixation,1,656,,,RelaxSession
1623779266.8,stimulus,2,165,,,NoMusic
1623779267.11,stimulus,3,72,,,NoMusic
1623779267.3,fixation,2,165,,,NoMusic
1623779267.3,stimulus,1,657,,,RelaxSession
1623779267.61,fixation,3,72,,,NoMusic
1623779267.8,fixation,1,657,,,RelaxSession
1623779268.8,stimulus,2,166,,,NoMusic
1623779269.11,stimulus,3,73,,,NoMusic
1623779269.3,fixation,2,166,,,NoMusic
1623779269.3,stimulus,1,658,,,RelaxSession
1623779269.61,fixation,3,73,,,NoMusic
1623779269.8,fixation,1,658,,,RelaxSession
1623779270.8,stimulus,2,167,,,NoMusic
1623779271.11,stimulus,3,74,,,NoMusic
1623779271.3,stimulus,1,659,,,RelaxSession
1623779271.3,fixation,2,167,,,NoMusic
1623779271.61,fixation,3,74,,,NoMusic
1623779271.8,fixation,1,659,,,RelaxSession
1623779272.8,stimulus,2,168,,,NoMusic
1623779273.11,stimulus,3,75,,,NoMusic
1623779273.3,fixation,2,168,,,NoMusic
1623779273.3,stimulus,1,660,,,RelaxSession
1623779273.61,fixation,3,75,,,NoMusic
1623779273.8,fixation,1,660,,,RelaxSession
1623779274.8,stimulus,2,169,,,NoMusic
1623779275.11,stimulus,3,76,,,NoMusic
1623779275.3,fixation,2,169,,,NoMusic
1623779275.3,stimulus,1,661,,,RelaxSession
1623779275.61,fixation,3,76,,,NoMusic
1623779275.8,fixation,1,661,,,RelaxSession
1623779276.8,stimulus,2,170,,,NoMusic
1623779277.11,stimulus,3,77,,,NoMusic
1623779277.3,fixation,2,170,,,NoMusic
1623779277.3,stimulus,1,662,,,RelaxSession
1623779277.61,fixation,3,77,,,NoMusic
1623779277.8,fixation,1,662,,,RelaxSession
1623779278.8,stimulus,2,171,,,NoMusic
1623779279.11,stimulus,3,78,,,NoMusic
1623779279.3,stimulus,1,663,,,RelaxSession
1623779279.3,fixation,2,171,,,NoMusic
1623779279.61,fixation,3,78,,,NoMusic
1623779279.8,fixation,1,663,,,RelaxSession
1623779280.8,stimulus,2,172,,,NoMusic
1623779281.11,stimulus,3,79,,,NoMusic
1623779281.3,stimulus,1,664,,,RelaxSession
1623779281.3,fixation,2,172,,,NoMusic
1623779281.61,fixation,3,79,,,NoMusic
1623779281.8,fixation,1,664,,,RelaxSession
1623779282.8,stimulus,2,173,,,NoMusic
1623779283.11,stimulus,3,80,,,NoMusic
1623779283.3,fixation,2,173,,,NoMusic
1623779283.3,stimulus,1,665,,,RelaxSession
1623779283.61,fixation,3,80,,,NoMusic
1623779283.8,fixation,1,665,,,RelaxSession
1623779284.8,stimulus,2,174,,,NoMusic
1623779285.11,stimulus,3,81,,,NoMusic
1623779285.3,stimulus,1,666,,,RelaxSession
1623779285.3,fixation,2,174,,,NoMusic
1623779285.61,fixation,3,81,,,NoMusic
1623779285.8,fixation,1,666,,,RelaxSession
1623779286.8,stimulus,2,175,,,NoMusic
1623779287.11,stimulus,3,82,,,NoMusic
1623779287.3,stimulus,1,667,,,RelaxSession
1623779287.3,fixation,2,175,,,NoMusic
1623779287.61,fixation,3,82,,,NoMusic
1623779287.8,fixation,1,667,,,RelaxSession
1623779288.8,stimulus,2,176,,,NoMusic
1623779289.11,stimulus,3,83,,,NoMusic
1623779289.3,fixation,2,176,,,NoMusic
1623779289.3,stimulus,1,668,,,RelaxSession
1623779289.61,fixation,3,83,,,NoMusic
1623779289.8,fixation,1,668,,,RelaxSession
1623779290.8,stimulus,2,177,,,NoMusic
1623779291.11,stimulus,3,84,,,NoMusic
1623779291.3,stimulus,1,669,,,RelaxSession
1623779291.3,fixation,2,177,,,NoMusic
1623779291.61,fixation,3,84,,,NoMusic
1623779291.8,fixation,1,669,,,RelaxSession
1623779292.8,stimulus,2,178,,,NoMusic
1623779293.11,stimulus,3,85,,,NoMusic
1623779293.3,stimulus,1,670,,,RelaxSession
1623779293.3,fixation,2,178,,,NoMusic
1623779293.61,fixation,3,85,,,NoMusic
1623779293.8,fixation,1,670,,,RelaxSession
1623779294.8,stimulus,2,179,,,NoMusic
1623779295.11,stimulus,3,86,,,NoMusic
1623779295.3,stimulus,1,671,,,RelaxSession
1623779295.3,fixation,2,179,,,NoMusic
1623779295.61,fixation,3,86,,,NoMusic
1623779295.8,fixation,1,671,,,RelaxSession
1623779296.8,stimulus,2,180,,,NoMusic
1623779297.11,stimulus,3,87,,,NoMusic
1623779297.3,fixation,2,180,,,NoMusic
1623779297.3,stimulus,1,672,,,RelaxSession
1623779297.61,fixation,3,87,,,NoMusic
1623779297.8,fixation,1,672,,,RelaxSession
1623779298.8,stimulus,2,181,,,NoMusic
1623779299.11,stimulus,3,88,,,NoMusic
1623779299.3,fixation,2,181,,,NoMusic
1623779299.3,stimulus,1,673,,,RelaxSession
1623779299.61,fixation,3,88,,,NoMusic
1623779299.8,fixation,1,673,,,RelaxSession
1623779300.8,stimulus,2,182,,,NoMusic
1623779301.11,stimulus,3,89,,,NoMusic
1623779301.3,stimulus,1,674,,,RelaxSession
1623779301.3,fixation,2,182,,,NoMusic
1623779301.61,fixation,3,89,,,NoMusic
1623779301.8,fixation,1,674,,,RelaxSession
1623779302.8,stimulus,2,183,,,NoMusic
1623779303.11,stimulus,3,90,,,NoMusic
1623779303.3,stimulus,1,675,,,RelaxSession
1623779303.3,fixation,2,183,,,NoMusic
1623779303.61,fixation,3,90,,,NoMusic
1623779303.8,fixation,1,675,,,RelaxSession
1623779304.8,stimulus,2,184,,,NoMusic
1623779305.11,stimulus,3,91,,,NoMusic
1623779305.3,fixation,2,184,,,NoMusic
1623779305.3,stimulus,1,676,,,RelaxSession
1623779305.61,fixation,3,91,,,NoMusic
1623779305.8,fixation,1,676,,,RelaxSession
1623779306.8,stimulus,2,185,,,NoMusic
1623779307.11,stimulus,3,92,,,NoMusic
1623779307.3,stimulus,1,677,,,RelaxSession
1623779307.3,fixation,2,185,,,NoMusic
1623779307.61,fixation,3,92,,,NoMusic
1623779307.8,fixation,1,677,,,RelaxSession
1623779308.8,stimulus,2,186,,,NoMusic
1623779309.11,stimulus,3,93,,,NoMusic
1623779309.3,fixation,2,186,,,NoMusic
1623779309.3,stimulus,1,678,,,RelaxSession
1623779309.61,fixation,3,93,,,NoMusic
1623779309.8,fixation,1,678,,,RelaxSession
1623779310.8,stimulus,2,187,,,NoMusic
1623779311.11,stimulus,3,94,,,NoMusic
1623779311.3,fixation,2,187,,,NoMusic
1623779311.3,stimulus,1,679,,,RelaxSession
1623779311.61,fixation,3,94,,,NoMusic
1623779311.8,fixation,1,679,,,RelaxSession
1623779312.8,stimulus,2,188,,,NoMusic
1623779313.11,stimulus,3,95,,,NoMusic
1623779313.3,fixation,2,188,,,NoMusic
1623779313.3,stimulus,1,680,,,RelaxSession
1623779313.61,fixation,3,95,,,NoMusic
1623779313.8,fixation,1,680,,,RelaxSession
1623779314.8,stimulus,2,189,,,NoMusic
1623779315.11,stimulus,3,96,,,NoMusic
1623779315.3,fixation,2,189,,,NoMusic
1623779315.3,stimulus,1,681,,,RelaxSession
1623779315.61,fixation,3,96,,,NoMusic
1623779315.8,fixation,1,681,,,RelaxSession
1623779316.8,stimulus,2,190,,,NoMusic
1623779317.11,stimulus,3,97,,,NoMusic
1623779317.3,fixation,2,190,,,NoMusic
1623779317.3,stimulus,1,682,,,RelaxSession
1623779317.61,fixation,3,97,,,NoMusic
1623779317.8,fixation,1,682,,,RelaxSession
1623779318.8,stimulus,2,191,,,NoMusic
1623779319.11,stimulus,3,98,,,NoMusic
1623779319.3,fixation,2,191,,,NoMusic
1623779319.3,stimulus,1,683,,,RelaxSession
1623779319.61,fixation,3,98,,,NoMusic
1623779319.8,fixation,1,683,,,RelaxSession
1623779320.8,stimulus,2,192,,,NoMusic
1623779321.11,stimulus,3,99,,,NoMusic
1623779321.3,fixation,2,192,,,NoMusic
1623779321.3,stimulus,1,684,,,RelaxSession
1623779321.61,fixation,3,99,,,NoMusic
1623779321.8,fixation,1,684,,,RelaxSession
1623779322.8,stimulus,2,193,,,NoMusic
1623779323.11,stimulus,3,100,,,NoMusic
1623779323.3,fixation,2,193,,,NoMusic
1623779323.3,stimulus,1,685,,,RelaxSession
1623779323.61,fixation,3,100,,,NoMusic
1623779323.8,fixation,1,685,,,RelaxSession
1623779324.8,stimulus,2,194,,,NoMusic
1623779325.11,stimulus,3,101,,,NoMusic
1623779325.3,fixation,2,194,,,NoMusic
1623779325.3,stimulus,1,686,,,RelaxSession
1623779325.61,fixation,3,101,,,NoMusic
1623779325.8,fixation,1,686,,,RelaxSession
1623779326.8,stimulus,2,195,,,NoMusic
1623779327.11,stimulus,3,102,,,NoMusic
1623779327.3,fixation,2,195,,,NoMusic
1623779327.3,stimulus,1,687,,,RelaxSession
1623779327.61,fixation,3,102,,,NoMusic
1623779327.8,fixation,1,687,,,RelaxSession
1623779328.8,stimulus,2,196,,,NoMusic
1623779329.11,stimulus,3,103,,,NoMusic
1623779329.3,fixation,2,196,,,NoMusic
1623779329.3,stimulus,1,688,,,RelaxSession
1623779329.61,fixation,3,103,,,NoMusic
1623779329.8,fixation,1,688,,,RelaxSession
1623779330.8,stimulus,2,197,,,NoMusic
1623779331.11,stimulus,3,104,,,NoMusic
1623779331.3,fixation,2,197,,,NoMusic
1623779331.3,stimulus,1,689,,,RelaxSession
1623779331.61,fixation,3,104,,,NoMusic
1623779331.8,fixation,1,689,,,RelaxSession
1623779332.8,stimulus,2,198,,,NoMusic
1623779333.11,stimulus,3,105,,,NoMusic
1623779333.3,stimulus,1,690,,,RelaxSession
1623779333.3,fixation,2,198,,,NoMusic
1623779333.61,fixation,3,105,,,NoMusic
1623779333.8,fixation,1,690,,,RelaxSession
1623779334.8,stimulus,2,199,,,NoMusic
1623779335.11,stimulus,3,106,,,NoMusic
1623779335.3,stimulus,1,691,,,RelaxSession
1623779335.3,fixation,2,199,,,NoMusic
1623779335.61,fixation,3,106,,,NoMusic
1623779335.8,fixation,1,691,,,RelaxSession
1623779336.8,stimulus,2,200,,,NoMusic
1623779337.11,stimulus,3,107,,,NoMusic
1623779337.3,stimulus,1,692,,,RelaxSession
1623779337.3,fixation,2,200,,,NoMusic
1623779337.61,fixation,3,107,,,NoMusic
1623779337.8,fixation,1,692,,,RelaxSession
1623779338.8,stimulus,2,201,,,NoMusic
1623779339.11,stimulus,3,108,,,NoMusic
1623779339.3,stimulus,1,693,,,RelaxSession
1623779339.3,fixation,2,201,,,NoMusic
1623779339.61,fixation,3,108,,,NoMusic
1623779339.8,fixation,1,693,,,RelaxSession
1623779340.8,stimulus,2,202,,,NoMusic
1623779341.11,stimulus,3,109,,,NoMusic
1623779341.3,stimulus,1,694,,,RelaxSession
1623779341.3,fixation,2,202,,,NoMusic
1623779341.61,fixation,3,109,,,NoMusic
1623779341.8,fixation,1,694,,,RelaxSession
1623779342.8,stimulus,2,203,,,NoMusic
1623779343.11,stimulus,3,110,,,NoMusic
1623779343.3,fixation,2,203,,,NoMusic
1623779343.3,stimulus,1,695,,,RelaxSession
1623779343.61,fixation,3,110,,,NoMusic
1623779343.8,fixation,1,695,,,RelaxSession
1623779344.8,stimulus,2,204,,,NoMusic
1623779345.11,stimulus,3,111,,,NoMusic
1623779345.3,fixation,2,204,,,NoMusic
1623779345.3,stimulus,1,696,,,RelaxSession
1623779345.61,fixation,3,111,,,NoMusic
1623779345.8,fixation,1,696,,,RelaxSession
1623779346.8,stimulus,2,205,,,NoMusic
1623779347.11,stimulus,3,112,,,NoMusic
1623779347.3,fixation,2,205,,,NoMusic
1623779347.3,stimulus,1,697,,,RelaxSession
1623779347.61,fixation,3,112,,,NoMusic
1623779347.8,fixation,1,697,,,RelaxSession
1623779348.8,stimulus,2,206,,,NoMusic
1623779349.11,stimulus,3,113,,,NoMusic
1623779349.3,fixation,2,206,,,NoMusic
1623779349.3,stimulus,1,698,,,RelaxSession
1623779349.61,fixation,3,113,,,NoMusic
1623779349.8,fixation,1,698,,,RelaxSession
1623779350.8,stimulus,2,207,,,NoMusic
1623779351.11,stimulus,3,114,,,NoMusic
1623779351.3,fixation,2,207,,,NoMusic
1623779351.3,stimulus,1,699,,,RelaxSession
1623779351.61,fixation,3,114,,,NoMusic
1623779351.8,fixation,1,699,,,RelaxSession
1623779352.8,stimulus,2,208,,,NoMusic
1623779353.11,stimulus,3,115,,,NoMusic
1623779353.3,fixation,2,208,,,NoMusic
1623779353.3,stimulus,1,700,,,RelaxSession
1623779353.61,fixation,3,115,,,NoMusic
1623779353.8,fixation,1,700,,,RelaxSession
1623779354.8,stimulus,2,209,,,NoMusic
1623779355.11,stimulus,3,116,,,NoMusic
1623779355.3,fixation,2,209,,,NoMusic
1623779355.3,stimulus,1,701,,,RelaxSession
1623779355.61,fixation,3,116,,,NoMusic
1623779355.8,fixation,1,701,,,RelaxSession
1623779356.8,stimulus,2,210,,,NoMusic
1623779357.11,stimulus,3,117,,,NoMusic
1623779357.3,fixation,2,210,,,NoMusic
1623779357.3,stimulus,1,702,,,RelaxSession
1623779357.61,fixation,3,117,,,NoMusic
1623779357.8,fixation,1,702,,,RelaxSession
1623779358.8,stimulus,2,211,,,NoMusic
1623779359.11,stimulus,3,118,,,NoMusic
1623779359.3,fixation,2,211,,,NoMusic
1623779359.3,stimulus,1,703,,,RelaxSession
1623779359.61,fixation,3,118,,,NoMusic
1623779359.8,fixation,1,703,,,RelaxSession
1623779360.8,stimulus,2,212,,,NoMusic
1623779361.11,stimulus,3,119,,,NoMusic
1623779361.3,fixation,2,212,,,NoMusic
1623779361.3,stimulus,1,704,,,RelaxSession
1623779361.61,fixation,3,119,,,NoMusic
1623779361.8,fixation,1,704,,,RelaxSession
1623779362.8,stimulus,2,213,,,NoMusic
1623779363.11,stimulus,3,120,,,NoMusic
1623779363.3,fixation,2,213,,,NoMusic
1623779363.3,stimulus,1,705,,,RelaxSession
1623779363.61,fixation,3,120,,,NoMusic
1623779363.8,fixation,1,705,,,RelaxSession
1623779364.8,stimulus,2,214,,,NoMusic
1623779365.11,stimulus,3,121,,,NoMusic
1623779365.3,stimulus,1,706,,,RelaxSession
1623779365.3,fixation,2,214,,,NoMusic
1623779365.61,fixation,3,121,,,NoMusic
1623779365.8,fixation,1,706,,,RelaxSession
1623779366.8,stimulus,2,215,,,NoMusic
1623779367.11,stimulus,3,122,,,NoMusic
1623779367.3,stimulus,1,707,,,RelaxSession
1623779367.3,fixation,2,215,,,NoMusic
1623779367.61,fixation,3,122,,,NoMusic
1623779367.8,fixation,1,707,,,RelaxSession
1623779368.8,stimulus,2,216,,,NoMusic
1623779369.11,stimulus,3,123,,,NoMusic
1623779369.3,stimulus,1,708,,,RelaxSession
1623779369.3,fixation,2,216,,,NoMusic
1623779369.61,fixation,3,123,,,NoMusic
1623779369.8,fixation,1,708,,,RelaxSession
1623779370.8,stimulus,2,217,,,NoMusic
1623779371.11,stimulus,3,124,,,NoMusic
1623779371.3,fixation,2,217,,,NoMusic
1623779371.3,stimulus,1,709,,,RelaxSession
1623779371.61,fixation,3,124,,,NoMusic
1623779371.8,fixation,1,709,,,RelaxSession
1623779372.8,stimulus,2,218,,,NoMusic
1623779373.11,stimulus,3,125,,,NoMusic
1623779373.3,stimulus,1,710,,,RelaxSession
1623779373.3,fixation,2,218,,,NoMusic
1623779373.61,fixation,3,125,,,NoMusic
1623779373.8,fixation,1,710,,,RelaxSession
1623779374.8,stimulus,2,219,,,NoMusic
1623779375.11,stimulus,3,126,,,NoMusic
1623779375.3,stimulus,1,711,,,RelaxSession
1623779375.3,fixation,2,219,,,NoMusic
1623779375.61,fixation,3,126,,,NoMusic
1623779375.8,fixation,1,711,,,RelaxSession
1623779376.8,stimulus,2,220,,,NoMusic
1623779377.11,stimulus,3,127,,,NoMusic
1623779377.3,stimulus,1,712,,,RelaxSession
1623779377.3,fixation,2,220,,,NoMusic
1623779377.61,fixation,3,127,,,NoMusic
1623779377.8,fixation,1,712,,,RelaxSession
1623779378.8,stimulus,2,221,,,NoMusic
1623779379.11,stimulus,3,128,,,NoMusic
1623779379.3,stimulus,1,713,,,RelaxSession
1623779379.3,fixation,2,221,,,NoMusic
1623779379.61,fixation,3,128,,,NoMusic
1623779379.8,fixation,1,713,,,RelaxSession
1623779380.8,stimulus,2,222,,,NoMusic
1623779381.11,stimulus,3,129,,,NoMusic
1623779381.3,stimulus,1,714,,,RelaxSession
1623779381.3,fixation,2,222,,,NoMusic
1623779381.61,fixation,3,129,,,NoMusic
1623779381.8,fixation,1,714,,,RelaxSession
1623779382.8,stimulus,2,223,,,NoMusic
1623779383.11,stimulus,3,130,,,NoMusic
1623779383.3,stimulus,1,715,,,RelaxSession
1623779383.3,fixation,2,223,,,NoMusic
1623779383.61,fixation,3,130,,,NoMusic
1623779383.8,fixation,1,715,,,RelaxSession
1623779384.8,stimulus,2,224,,,NoMusic
1623779385.11,stimulus,3,131,,,NoMusic
1623779385.3,stimulus,1,716,,,RelaxSession
1623779385.3,fixation,2,224,,,NoMusic
1623779385.61,fixation,3,131,,,NoMusic
1623779385.8,fixation,1,716,,,RelaxSession
1623779386.8,stimulus,2,225,,,NoMusic
1623779387.11,stimulus,3,132,,,NoMusic
1623779387.3,stimulus,1,717,,,RelaxSession
1623779387.3,fixation,2,225,,,NoMusic
1623779387.61,fixation,3,132,,,NoMusic
1623779387.8,fixation,1,717,,,RelaxSession
1623779388.8,stimulus,2,226,,,NoMusic
1623779389.11,stimulus,3,133,,,NoMusic
1623779389.3,stimulus,1,718,,,RelaxSession
1623779389.3,fixation,2,226,,,NoMusic
1623779389.61,fixation,3,133,,,NoMusic
1623779389.8,fixation,1,718,,,RelaxSession
1623779390.8,stimulus,2,227,,,NoMusic
1623779391.11,stimulus,3,134,,,NoMusic
1623779391.3,stimulus,1,719,,,RelaxSession
1623779391.3,fixation,2,227,,,NoMusic
1623779391.61,fixation,3,134,,,NoMusic
1623779391.8,fixation,1,719,,,RelaxSession
1623779392.8,stimulus,2,228,,,NoMusic
1623779393.11,stimulus,3,135,,,NoMusic
1623779393.3,fixation,2,228,,,NoMusic
1623779393.3,stimulus,1,720,,,RelaxSession
1623779393.61,fixation,3,135,,,NoMusic
1623779393.8,fixation,1,720,,,RelaxSession
1623779394.8,stimulus,2,229,,,NoMusic
1623779395.11,stimulus,3,136,,,NoMusic
1623779395.3,stimulus,1,721,,,RelaxSession
1623779395.3,fixation,2,229,,,NoMusic
1623779395.61,fixation,3,136,,,NoMusic
1623779395.8,fixation,1,721,,,RelaxSession
1623779396.8,stimulus,2,230,,,NoMusic
1623779397.11,stimulus,3,137,,,NoMusic
1623779397.3,stimulus,1,722,,,RelaxSession
1623779397.3,fixation,2,230,,,NoMusic
1623779397.61,fixation,3,137,,,NoMusic
1623779397.8,fixation,1,722,,,RelaxSession
1623779398.8,stimulus,2,231,,,NoMusic
1623779399.11,stimulus,3,138,,,NoMusic
1623779399.3,stimulus,1,723,,,RelaxSession
1623779399.3,fixation,2,231,,,NoMusic
1623779399.61,fixation,3,138,,,NoMusic
1623779399.8,fixation,1,723,,,RelaxSession
1623779400.8,stimulus,2,232,,,NoMusic
1623779401.11,stimulus,3,139,,,NoMusic
1623779401.3,stimulus,1,724,,,RelaxSession
1623779401.3,fixation,2,232,,,NoMusic
1623779401.61,fixation,3,139,,,NoMusic
1623779401.8,fixation,1,724,,,RelaxSession
1623779402.8,stimulus,2,233,,,NoMusic
1623779403.11,stimulus,3,140,,,NoMusic
1623779403.3,stimulus,1,725,,,RelaxSession
1623779403.3,fixation,2,233,,,NoMusic
1623779403.61,fixation,3,140,,,NoMusic
1623779403.8,fixation,1,725,,,RelaxSession
1623779404.8,stimulus,2,234,,,NoMusic
1623779405.11,stimulus,3,141,,,NoMusic
1623779405.3,stimulus,1,726,,,RelaxSession
1623779405.3,fixation,2,234,,,NoMusic
1623779405.61,fixation,3,141,,,NoMusic
1623779405.8,fixation,1,726,,,RelaxSession
1623779406.8,stimulus,2,235,,,NoMusic
1623779407.11,stimulus,3,142,,,NoMusic
1623779407.3,stimulus,1,727,,,RelaxSession
1623779407.3,fixation,2,235,,,NoMusic
1623779407.61,fixation,3,142,,,NoMusic
1623779407.8,fixation,1,727,,,RelaxSession
1623779408.8,stimulus,2,236,,,NoMusic
1623779409.11,stimulus,3,143,,,NoMusic
1623779409.3,stimulus,1,728,,,RelaxSession
1623779409.3,fixation,2,236,,,NoMusic
1623779409.61,fixation,3,143,,,NoMusic
1623779409.8,fixation,1,728,,,RelaxSession
1623779410.8,stimulus,2,237,,,NoMusic
1623779411.11,stimulus,3,144,,,NoMusic
1623779411.3,stimulus,1,729,,,RelaxSession
1623779411.3,fixation,2,237,,,NoMusic
1623779411.61,fixation,3,144,,,NoMusic
1623779411.8,fixation,1,729,,,RelaxSession
1623779412.8,stimulus,2,238,,,NoMusic
1623779413.11,stimulus,3,145,,,NoMusic
1623779413.3,fixation,2,238,,,NoMusic
1623779413.3,stimulus,1,730,,,RelaxSession
1623779413.61,fixation,3,145,,,NoMusic
1623779413.8,fixation,1,730,,,RelaxSession
1623779414.8,stimulus,2,239,,,NoMusic
1623779415.11,stimulus,3,146,,,NoMusic
1623779415.3,fixation,2,239,,,NoMusic
1623779415.3,stimulus,1,731,,,RelaxSession
1623779415.61,fixation,3,146,,,NoMusic
1623779415.8,fixation,1,731,,,RelaxSession
1623779416.8,stimulus,2,240,,,NoMusic
1623779417.11,stimulus,3,147,,,NoMusic
1623779417.3,stimulus,1,732,,,RelaxSession
1623779417.3,fixation,2,240,,,NoMusic
1623779417.61,fixation,3,147,,,NoMusic
1623779417.8,fixation,1,732,,,RelaxSession
1623779418.8,stimulus,2,241,,,NoMusic
1623779419.11,stimulus,3,148,,,NoMusic
1623779419.3,fixation,2,241,,,NoMusic
1623779419.3,stimulus,1,733,,,RelaxSession
1623779419.61,fixation,3,148,,,NoMusic
1623779419.8,fixation,1,733,,,RelaxSession
1623779420.8,stimulus,2,242,,,NoMusic
1623779421.11,stimulus,3,149,,,NoMusic
1623779421.3,stimulus,1,734,,,RelaxSession
1623779421.3,fixation,2,242,,,NoMusic
1623779421.61,fixation,3,149,,,NoMusic
1623779421.8,fixation,1,734,,,RelaxSession
1623779422.8,stimulus,2,243,,,NoMusic
1623779423.11,stimulus,3,150,,,NoMusic
1623779423.3,fixation,2,243,,,NoMusic
1623779423.3,stimulus,1,735,,,RelaxSession
1623779423.61,fixation,3,150,,,NoMusic
1623779423.8,fixation,1,735,,,RelaxSession
1623779424.8,stimulus,2,244,,,NoMusic
1623779425.11,stimulus,3,151,,,NoMusic
1623779425.3,fixation,2,244,,,NoMusic
1623779425.3,stimulus,1,736,,,RelaxSession
1623779425.61,fixation,3,151,,,NoMusic
1623779425.8,fixation,1,736,,,RelaxSession
1623779426.8,stimulus,2,245,,,NoMusic
1623779427.11,stimulus,3,152,,,NoMusic
1623779427.3,fixation,2,245,,,NoMusic
1623779427.3,stimulus,1,737,,,RelaxSession
1623779427.61,fixation,3,152,,,NoMusic
1623779427.8,fixation,1,737,,,RelaxSession
1623779428.8,stimulus,2,246,,,NoMusic
1623779429.11,stimulus,3,153,,,NoMusic
1623779429.3,stimulus,1,738,,,RelaxSession
1623779429.3,fixation,2,246,,,NoMusic
1623779429.61,fixation,3,153,,,NoMusic
1623779429.8,fixation,1,738,,,RelaxSession
1623779430.8,stimulus,2,247,,,NoMusic
1623779431.11,stimulus,3,154,,,NoMusic
1623779431.3,fixation,2,247,,,NoMusic
1623779431.3,stimulus,1,739,,,RelaxSession
1623779431.61,fixation,3,154,,,NoMusic
1623779431.8,fixation,1,739,,,RelaxSession
1623779432.8,stimulus,2,248,,,NoMusic
1623779433.11,stimulus,3,155,,,NoMusic
1623779433.3,fixation,2,248,,,NoMusic
1623779433.3,stimulus,1,740,,,RelaxSession
1623779433.61,fixation,3,155,,,NoMusic
1623779433.8,fixation,1,740,,,RelaxSession
1623779434.8,stimulus,2,249,,,NoMusic
1623779435.11,stimulus,3,156,,,NoMusic
1623779435.3,fixation,2,249,,,NoMusic
1623779435.3,stimulus,1,741,,,RelaxSession
1623779435.61,fixation,3,156,,,NoMusic
1623779435.8,fixation,1,741,,,RelaxSession
1623779436.8,stimulus,2,250,,,NoMusic
1623779437.11,stimulus,3,157,,,NoMusic
1623779437.3,stimulus,1,742,,,RelaxSession
1623779437.3,fixation,2,250,,,NoMusic
1623779437.61,fixation,3,157,,,NoMusic
1623779437.8,fixation,1,742,,,RelaxSession
1623779438.8,stimulus,2,251,,,NoMusic
1623779439.11,stimulus,3,158,,,NoMusic
1623779439.3,fixation,2,251,,,NoMusic
1623779439.3,stimulus,1,743,,,RelaxSession
1623779439.61,fixation,3,158,,,NoMusic
1623779439.8,fixation,1,743,,,RelaxSession
1623779440.8,stimulus,2,252,,,NoMusic
1623779441.11,stimulus,3,159,,,NoMusic
1623779441.3,fixation,2,252,,,NoMusic
1623779441.3,stimulus,1,744,,,RelaxSession
1623779441.61,fixation,3,159,,,NoMusic
1623779441.8,fixation,1,744,,,RelaxSession
1623779442.8,stimulus,2,253,,,NoMusic
1623779443.11,stimulus,3,160,,,NoMusic
1623779443.3,fixation,2,253,,,NoMusic
1623779443.3,stimulus,1,745,,,RelaxSession
1623779443.61,fixation,3,160,,,NoMusic
1623779443.8,fixation,1,745,,,RelaxSession
1623779444.8,stimulus,2,254,,,NoMusic
1623779445.11,stimulus,3,161,,,NoMusic
1623779445.3,stimulus,1,746,,,RelaxSession
1623779445.3,fixation,2,254,,,NoMusic
1623779445.61,fixation,3,161,,,NoMusic
1623779445.8,fixation,1,746,,,RelaxSession
1623779446.8,stimulus,2,255,,,NoMusic
1623779447.11,stimulus,3,162,,,NoMusic
1623779447.3,fixation,2,255,,,NoMusic
1623779447.3,stimulus,1,747,,,RelaxSession
1623779447.61,fixation,3,162,,,NoMusic
1623779447.8,fixation,1,747,,,RelaxSession
1623779448.8,stimulus,2,256,,,NoMusic
1623779449.11,stimulus,3,163,,,NoMusic
1623779449.3,stimulus,1,748,,,RelaxSession
1623779449.3,fixation,2,256,,,NoMusic
1623779449.61,fixation,3,163,,,NoMusic
1623779449.8,fixation,1,748,,,RelaxSession
1623779450.8,stimulus,2,257,,,NoMusic
1623779451.11,stimulus,3,164,,,NoMusic
1623779451.3,fixation,2,257,,,NoMusic
1623779451.3,stimulus,1,749,,,RelaxSession
1623779451.61,fixation,3,164,,,NoMusic
1623779451.8,fixation,1,749,,,RelaxSession
1623779452.8,stimulus,2,258,,,NoMusic
1623779453.11,stimulus,3,165,,,NoMusic
1623779453.3,stimulus,1,750,,,RelaxSession
1623779453.3,fixation,2,258,,,NoMusic
1623779453.61,fixation,3,165,,,NoMusic
1623779453.8,fixation,1,750,,,RelaxSession
1623779454.8,stimulus,2,259,,,NoMusic
1623779455.11,stimulus,3,166,,,NoMusic
1623779455.3,stimulus,1,751,,,StressSession
1623779455.3,fixation,2,259,,,NoMusic
1623779455.61,fixation,3,166,,,NoMusic
1623779455.8,fixation,1,751,,,StressSession
1623779456.8,stimulus,2,260,,,NoMusic
1623779457.11,stimulus,3,167,,,NoMusic
1623779457.3,fixation,2,260,,,NoMusic
1623779457.3,stimulus,1,752,,,StressSession
1623779457.61,fixation,3,167,,,NoMusic
1623779457.8,fixation,1,752,,,StressSession
1623779458.8,stimulus,2,261,,,NoMusic
1623779459.11,stimulus,3,168,,,NoMusic
1623779459.3,fixation,2,261,,,NoMusic
1623779459.3,stimulus,1,753,,,StressSession
1623779459.61,fixation,3,168,,,NoMusic
