event_time_s,trial_type,session_idx,trial_idx,RT_s,ACC,session_type
1628539894.36,stimulus,1,1,,,PracticeSession
1628539894.86,fixation,1,1,,,PracticeSession
1628539896.36,stimulus,1,2,,,PracticeSession
1628539896.86,fixation,1,2,,,PracticeSession
1628539898.36,stimulus,1,3,,,PracticeSession
1628539898.86,fixation,1,3,,,PracticeSession
1628539900.36,stimulus,1,4,,,PracticeSession
1628539900.86,fixation,1,4,,,PracticeSession
1628539902.36,stimulus,1,5,,,PracticeSession
1628539902.86,fixation,1,5,,,PracticeSession
1628539904.36,stimulus,1,6,,,PracticeSession
1628539904.86,fixation,1,6,,,PracticeSession
1628539906.36,stimulus,1,7,,,PracticeSession
1628539906.86,fixation,1,7,,,PracticeSession
1628539908.36,stimulus,1,8,,,PracticeSession
1628539908.86,fixation,1,8,,,PracticeSession
1628539910.36,stimulus,1,9,,,PracticeSession
1628539910.86,fixation,1,9,,,PracticeSession
1628539912.36,stimulus,1,10,,,PracticeSession
1628539912.86,fixation,1,10,,,PracticeSession
1628539914.36,stimulus,1,11,,,PracticeSession
1628539914.86,fixation,1,11,,,PracticeSession
1628539916.36,stimulus,1,12,,,PracticeSession
1628539916.86,fixation,1,12,,,PracticeSession
1628539918.36,stimulus,1,13,,,PracticeSession
1628539918.86,fixation,1,13,,,PracticeSession
1628539920.36,stimulus,1,14,,,PracticeSession
1628539920.86,fixation,1,14,,,PracticeSession
1628539922.36,stimulus,1,15,,,PracticeSession
1628539922.86,fixation,1,15,,,PracticeSession
1628539924.36,stimulus,1,16,,,PracticeSession
1628539924.86,fixation,1,16,,,PracticeSession
1628539926.36,stimulus,1,17,,,PracticeSession
1628539926.86,fixation,1,17,,,PracticeSession
1628539928.36,stimulus,1,18,,,PracticeSession
1628539928.86,fixation,1,18,,,PracticeSession
1628539930.36,stimulus,1,19,,,PracticeSession
1628539930.86,fixation,1,19,,,PracticeSession
1628539932.36,stimulus,1,20,,,PracticeSession
1628539932.86,fixation,1,20,,,PracticeSession
1628539934.36,stimulus,1,21,,,PracticeSession
1628539934.86,fixation,1,21,,,PracticeSession
1628539936.36,stimulus,1,22,,,PracticeSession
1628539936.86,fixation,1,22,,,PracticeSession
1628539938.36,stimulus,1,23,,,PracticeSession
1628539938.86,fixation,1,23,,,PracticeSession
1628539940.36,stimulus,1,24,,,PracticeSession
1628539940.86,fixation,1,24,,,PracticeSession
1628539942.36,stimulus,1,25,,,PracticeSession
1628539942.86,fixation,1,25,,,PracticeSession
1628539944.36,stimulus,1,26,,,PracticeSession
1628539944.86,fixation,1,26,,,PracticeSession
1628539946.36,stimulus,1,27,,,PracticeSession
1628539946.86,fixation,1,27,,,PracticeSession
1628539948.36,stimulus,1,28,,,PracticeSession
1628539948.86,fixation,1,28,,,PracticeSession
1628539950.36,stimulus,1,29,,,PracticeSession
1628539950.86,fixation,1,29,,,PracticeSession
1628539952.36,stimulus,1,30,,,PracticeSession
1628539952.86,fixation,1,30,,,PracticeSession
1628539954.36,stimulus,1,31,,,PracticeSession
1628539954.86,fixation,1,31,,,PracticeSession
1628539956.36,stimulus,1,32,,,PracticeSession
1628539956.86,fixation,1,32,,,PracticeSession
1628539958.36,stimulus,1,33,,,PracticeSession
1628539958.86,fixation,1,33,,,PracticeSession
1628539960.36,stimulus,1,34,,,PracticeSession
1628539960.86,fixation,1,34,,,PracticeSession
1628539962.36,stimulus,1,35,,,PracticeSession
1628539962.86,fixation,1,35,,,PracticeSession
1628539964.36,stimulus,1,36,,,PracticeSession
1628539964.86,fixation,1,36,,,PracticeSession
1628539966.36,stimulus,1,37,,,PracticeSession
1628539966.86,fixation,1,37,,,PracticeSession
1628539968.36,stimulus,1,38,,,PracticeSession
1628539968.86,fixation,1,38,,,PracticeSession
1628539970.36,stimulus,1,39,,,PracticeSession
1628539970.86,fixation,1,39,,,PracticeSession
1628539972.36,stimulus,1,40,,,PracticeSession
1628539972.86,fixation,1,40,,,PracticeSession
1628539974.36,stimulus,1,41,,,PracticeSession
1628539974.86,fixation,1,41,,,PracticeSession
1628539976.36,stimulus,1,42,,,PracticeSession
1628539976.86,fixation,1,42,,,PracticeSession
1628539978.36,stimulus,1,43,,,PracticeSession
1628539978.86,fixation,1,43,,,PracticeSession
1628539980.36,stimulus,1,44,,,PracticeSession
1628539980.86,fixation,1,44,,,PracticeSession
1628539982.36,stimulus,1,45,,0.0,NoMusic
1628539983.2029998,fixation,1,45,0.343,1.0,NoMusic
1628539984.36,stimulus,1,46,,0.0,NoMusic
1628539984.998,fixation,1,46,0.138,1.0,NoMusic
1628539986.36,stimulus,1,47,,0.0,NoMusic
1628539986.9889998,fixation,1,47,0.129,1.0,NoMusic
1628539988.36,stimulus,1,48,,0.0,NoMusic
1628539988.911,fixation,1,48,0.051,1.0,NoMusic
1628539990.36,stimulus,1,49,,0.0,NoMusic
1628539990.919,fixation,1,49,0.059,1.0,NoMusic
1628539992.36,stimulus,1,50,,0.0,NoMusic
1628539992.872,fixation,1,50,0.012,1.0,NoMusic
1628539994.36,stimulus,1,51,,0.0,NoMusic
1628539995.115,fixation,1,51,0.255,0.0,NoMusic
1628539996.36,stimulus,1,52,,0.0,NoMusic
1628539997.439,fixation,1,52,0.579,1.0,NoMusic
1628539998.36,stimulus,1,53,,0.0,NoMusic
1628539999.245,fixation,1,53,0.385,1.0,NoMusic
1628540000.36,stimulus,1,54,,0.0,NoMusic
1628540001.171,fixation,1,54,0.311,1.0,NoMusic
1628540002.36,stimulus,1,55,,0.0,NoMusic
1628540003.083,fixation,1,55,0.223,1.0,NoMusic
1628540004.36,stimulus,1,56,,0.0,NoMusic
1628540005.054,fixation,1,56,0.194,1.0,NoMusic
1628540006.36,stimulus,1,57,,0.0,NoMusic
1628540007.1009998,fixation,1,57,0.241,1.0,NoMusic
1628540008.36,stimulus,1,58,,0.0,NoMusic
1628540009.064,fixation,1,58,0.204,1.0,NoMusic
1628540010.36,stimulus,1,59,,0.0,NoMusic
1628540011.146,fixation,1,59,0.286,1.0,NoMusic
1628540012.36,stimulus,1,60,,0.0,NoMusic
1628540013.079,fixation,1,60,0.219,1.0,NoMusic
1628540014.36,stimulus,1,61,,0.0,NoMusic
1628540015.388,fixation,1,61,0.528,1.0,NoMusic
1628540016.36,stimulus,1,62,,0.0,NoMusic
1628540017.204,fixation,1,62,0.344,1.0,NoMusic
1628540018.36,stimulus,1,63,,0.0,NoMusic
1628540019.1929998,fixation,1,63,0.333,1.0,NoMusic
1628540020.36,stimulus,1,64,,0.0,NoMusic
1628540021.452,fixation,1,64,0.592,1.0,NoMusic
1628540022.36,stimulus,1,65,,0.0,NoMusic
1628540023.464,fixation,1,65,0.604,1.0,NoMusic
1628540024.36,stimulus,1,66,,0.0,NoMusic
1628540025.4559999,fixation,1,66,0.596,1.0,NoMusic
1628540026.36,stimulus,1,67,,0.0,NoMusic
1628540027.089,fixation,1,67,0.229,1.0,NoMusic
1628540028.36,stimulus,1,68,,0.0,NoMusic
1628540028.929,fixation,1,68,0.069,1.0,NoMusic
1628540030.36,stimulus,1,69,,0.0,NoMusic
1628540031.03,fixation,1,69,0.17,1.0,NoMusic
1628540032.36,stimulus,1,70,,0.0,NoMusic
1628540033.0579998,fixation,1,70,0.198,1.0,NoMusic
1628540034.36,stimulus,1,71,,0.0,NoMusic
1628540035.066,fixation,1,71,0.206,1.0,NoMusic
1628540036.36,stimulus,1,72,,0.0,NoMusic
1628540037.3319998,fixation,1,72,0.472,1.0,NoMusic
1628540038.36,stimulus,1,73,,0.0,NoMusic
1628540038.9399998,fixation,1,73,0.08,1.0,NoMusic
1628540040.36,stimulus,1,74,,0.0,NoMusic
1628540041.189,fixation,1,74,0.329,0.0,NoMusic
1628540042.36,stimulus,1,75,,0.0,NoMusic
1628540043.462,fixation,1,75,0.602,1.0,NoMusic
1628540044.36,stimulus,1,76,,0.0,NoMusic
1628540045.349,fixation,1,76,0.489,1.0,NoMusic
1628540046.36,stimulus,1,77,,0.0,NoMusic
1628540047.365,fixation,1,77,0.505,1.0,NoMusic
1628540048.36,stimulus,1,78,,0.0,NoMusic
1628540049.3109999,fixation,1,78,0.451,1.0,NoMusic
1628540050.36,stimulus,1,79,,0.0,NoMusic
1628540051.162,fixation,1,79,0.302,1.0,NoMusic
1628540052.36,stimulus,1,80,,0.0,NoMusic
1628540053.5579998,fixation,1,80,0.698,1.0,NoMusic
1628540054.36,stimulus,1,81,,0.0,NoMusic
1628540055.467,fixation,1,81,0.607,1.0,NoMusic
1628540056.36,stimulus,1,82,,0.0,NoMusic
1628540057.195,fixation,1,82,0.335,1.0,NoMusic
1628540058.36,stimulus,1,83,,0.0,NoMusic
1628540059.087,fixation,1,83,0.227,1.0,NoMusic
1628540060.36,stimulus,1,84,,0.0,NoMusic
1628540060.86,fixation,1,84,,0.0,NoMusic
1628540062.452,stimulus,1,85,0.092,1.0,NoMusic
1628540063.5259998,fixation,1,85,0.666,1.0,NoMusic
1628540064.36,stimulus,1,86,,0.0,NoMusic
1628540064.9759998,fixation,1,86,0.116,1.0,NoMusic
1628540066.36,stimulus,1,87,,0.0,NoMusic
1628540067.171,fixation,1,87,0.311,1.0,NoMusic
1628540068.36,stimulus,1,88,,0.0,NoMusic
1628540069.1499999,fixation,1,88,0.29,1.0,NoMusic
1628540070.36,stimulus,1,89,,0.0,NoMusic
1628540071.0059998,fixation,1,89,0.146,1.0,NoMusic
1628540072.36,stimulus,1,90,,0.0,NoMusic
1628540072.869,fixation,1,90,0.009,1.0,NoMusic
1628540074.36,stimulus,1,91,,0.0,NoMusic
1628540074.958,fixation,1,91,0.098,1.0,NoMusic
1628540076.36,stimulus,1,92,,0.0,NoMusic
1628540077.1169999,fixation,1,92,0.257,1.0,NoMusic
1628540078.36,stimulus,1,93,,0.0,NoMusic
1628540079.1829998,fixation,1,93,0.323,0.0,NoMusic
1628540080.504,stimulus,1,94,0.144,0.0,NoMusic
1628540080.86,fixation,1,94,,0.0,NoMusic
1628540082.36,stimulus,1,95,,0.0,NoMusic
1628540083.287,fixation,1,95,0.427,1.0,NoMusic
1628540084.36,stimulus,1,96,,0.0,NoMusic
1628540085.1959999,fixation,1,96,0.336,1.0,NoMusic
1628540086.36,stimulus,1,97,,0.0,NoMusic
1628540087.3089998,fixation,1,97,0.449,1.0,NoMusic
1628540088.36,stimulus,1,98,,0.0,NoMusic
1628540090.11,fixation,1,98,1.25,1.0,NoMusic
1628540090.36,stimulus,1,99,,0.0,NoMusic
1628540091.435,fixation,1,99,0.575,1.0,NoMusic
1628540092.36,stimulus,1,100,,0.0,NoMusic
1628540093.432,fixation,1,100,0.572,1.0,NoMusic
1628540094.36,stimulus,1,101,,0.0,NoMusic
1628540095.458,fixation,1,101,0.598,1.0,NoMusic
1628540096.7719998,stimulus,1,102,0.412,1.0,NoMusic
1628540096.86,fixation,1,102,,0.0,NoMusic
1628540098.36,stimulus,1,103,,0.0,NoMusic
1628540099.092,fixation,1,103,0.232,1.0,NoMusic
1628540100.36,stimulus,1,104,,0.0,NoMusic
1628540102.3449998,fixation,1,104,1.485,1.0,NoMusic
1628540102.36,stimulus,1,105,,0.0,NoMusic
1628540103.179,fixation,1,105,0.319,1.0,NoMusic
1628540104.36,stimulus,1,106,,0.0,NoMusic
1628540105.139,fixation,1,106,0.279,0.0,NoMusic
1628540106.36,stimulus,1,107,,0.0,NoMusic
1628540107.2779999,fixation,1,107,0.418,0.0,NoMusic
1628540108.36,stimulus,1,108,,0.0,NoMusic
1628540109.2779999,fixation,1,108,0.418,1.0,NoMusic
1628540110.36,stimulus,1,109,,0.0,NoMusic
1628540111.3279998,fixation,1,109,0.468,1.0,NoMusic
1628540112.36,stimulus,1,110,,0.0,NoMusic
1628540113.192,fixation,1,110,0.332,1.0,NoMusic
1628540114.36,stimulus,1,111,,0.0,NoMusic
1628540115.385,fixation,1,111,0.525,1.0,NoMusic
1628540116.36,stimulus,1,112,,0.0,NoMusic
1628540117.087,fixation,1,112,0.227,1.0,NoMusic
1628540118.36,stimulus,1,113,,0.0,NoMusic
1628540118.883,fixation,1,113,0.023,1.0,NoMusic
1628540120.717,stimulus,1,114,0.357,1.0,NoMusic
1628540120.86,fixation,1,114,,0.0,NoMusic
1628540122.737,stimulus,1,115,0.377,1.0,NoMusic
1628540122.86,fixation,1,115,,0.0,NoMusic
1628540124.819,stimulus,1,116,0.459,1.0,NoMusic
1628540124.86,fixation,1,116,,0.0,NoMusic
1628540126.836,stimulus,1,117,0.476,1.0,NoMusic
1628540126.86,fixation,1,117,,0.0,NoMusic
1628540128.36,stimulus,1,118,,0.0,NoMusic
1628540128.905,fixation,1,118,0.045,1.0,NoMusic
1628540130.36,stimulus,1,119,,0.0,NoMusic
1628540131.0279999,fixation,1,119,0.168,1.0,NoMusic
1628540132.36,stimulus,1,120,,0.0,NoMusic
1628540133.3549998,fixation,1,120,0.495,1.0,NoMusic
1628540134.36,stimulus,1,121,,0.0,NoMusic
1628540135.1629999,fixation,1,121,0.303,1.0,NoMusic
1628540136.36,stimulus,1,122,,0.0,NoMusic
1628540137.09,fixation,1,122,0.23,1.0,NoMusic
1628540138.36,stimulus,1,123,,0.0,NoMusic
1628540138.9789999,fixation,1,123,0.119,1.0,NoMusic
1628540140.36,stimulus,1,124,,0.0,NoMusic
1628540141.093,fixation,1,124,0.233,1.0,NoMusic
1628540142.36,stimulus,1,125,,0.0,NoMusic
1628540143.0289998,fixation,1,125,0.169,1.0,NoMusic
1628540144.36,stimulus,1,126,,0.0,NoMusic
1628540144.9269998,fixation,1,126,0.067,1.0,NoMusic
1628540146.859,stimulus,1,127,0.499,1.0,NoMusic
1628540146.86,fixation,1,127,,0.0,NoMusic
1628540148.36,stimulus,1,128,,0.0,NoMusic
1628540148.8899999,fixation,1,128,0.03,1.0,NoMusic
1628540150.36,stimulus,1,129,,0.0,NoMusic
1628540151.0819998,fixation,1,129,0.222,1.0,NoMusic
1628540152.36,stimulus,1,130,,0.0,NoMusic
1628540152.984,fixation,1,130,0.124,1.0,NoMusic
1628540154.36,stimulus,1,131,,0.0,NoMusic
1628540155.004,fixation,1,131,0.144,1.0,NoMusic
1628540156.36,stimulus,1,132,,0.0,NoMusic
1628540156.919,fixation,1,132,0.059,1.0,NoMusic
1628540158.36,stimulus,1,133,,0.0,NoMusic
1628540159.109,fixation,1,133,0.249,1.0,NoMusic
1628540160.36,stimulus,1,134,,0.0,NoMusic
1628540161.1009998,fixation,1,134,0.241,1.0,NoMusic
1628540162.36,stimulus,1,135,,0.0,NoMusic
1628540163.1079998,fixation,1,135,0.248,1.0,NoMusic
1628540164.36,stimulus,1,136,,0.0,NoMusic
1628540165.172,fixation,1,136,0.312,1.0,NoMusic
1628540166.36,stimulus,1,137,,0.0,NoMusic
1628540167.09,fixation,1,137,0.23,1.0,NoMusic
1628540168.36,stimulus,1,138,,0.0,NoMusic
1628540169.1509998,fixation,1,138,0.291,1.0,NoMusic
1628540170.36,stimulus,1,139,,0.0,NoMusic
1628540171.225,fixation,1,139,0.365,1.0,NoMusic
1628540172.36,stimulus,1,140,,0.0,NoMusic
1628540173.181,fixation,1,140,0.321,1.0,NoMusic
1628540174.36,stimulus,1,141,,0.0,NoMusic
1628540175.3769999,fixation,1,141,0.517,0.0,NoMusic
1628540176.36,stimulus,1,142,,0.0,NoMusic
1628540177.231,fixation,1,142,0.371,1.0,NoMusic
1628540178.36,stimulus,1,143,,0.0,NoMusic
1628540179.1469998,fixation,1,143,0.287,1.0,NoMusic
1628540180.36,stimulus,1,144,,0.0,NoMusic
1628540181.2559998,fixation,1,144,0.396,1.0,NoMusic
1628540182.36,stimulus,1,145,,0.0,NoMusic
1628540183.2459998,fixation,1,145,0.386,0.0,NoMusic
1628540184.36,stimulus,1,146,,0.0,NoMusic
1628540185.958,fixation,1,146,1.098,1.0,NoMusic
1628540186.36,stimulus,1,147,,0.0,NoMusic
1628540187.82,fixation,1,147,0.96,0.0,NoMusic
1628540188.36,stimulus,1,148,,0.0,NoMusic
1628540189.76,fixation,1,148,0.9,1.0,NoMusic
1628540190.36,stimulus,1,149,,0.0,NoMusic
1628540191.534,fixation,1,149,0.674,1.0,NoMusic
1628540192.36,stimulus,1,150,,0.0,NoMusic
1628540193.597,fixation,1,150,0.737,0.0,NoMusic
1628540194.36,stimulus,1,151,,0.0,NoMusic
1628540195.557,fixation,1,151,0.697,0.0,NoMusic
1628540196.36,stimulus,1,152,,0.0,NoMusic
1628540197.5519998,fixation,1,152,0.692,1.0,NoMusic
1628540198.36,stimulus,1,153,,0.0,NoMusic
1628540199.382,fixation,1,153,0.522,1.0,NoMusic
1628540200.36,stimulus,1,154,,0.0,NoMusic
1628540201.6049998,fixation,1,154,0.745,1.0,NoMusic
1628540202.36,stimulus,1,155,,0.0,NoMusic
1628540202.8899999,fixation,1,155,0.03,1.0,NoMusic
1628540204.36,stimulus,1,156,,0.0,NoMusic
1628540204.9229999,fixation,1,156,0.063,1.0,NoMusic
1628540206.8409998,stimulus,1,157,0.481,1.0,NoMusic
1628540206.86,fixation,1,157,,0.0,NoMusic
1628540208.843,stimulus,1,158,0.483,1.0,NoMusic
1628540208.86,fixation,1,158,,0.0,NoMusic
1628540210.36,stimulus,1,159,,0.0,NoMusic
1628540210.916,fixation,1,159,0.056,1.0,NoMusic
1628540212.846,stimulus,1,160,0.486,1.0,NoMusic
1628540212.86,fixation,1,160,,0.0,NoMusic
1628540214.77,stimulus,1,161,0.41,1.0,NoMusic
1628540214.86,fixation,1,161,,0.0,NoMusic
1628540216.827,stimulus,1,162,0.467,1.0,NoMusic
1628540216.86,fixation,1,162,,0.0,NoMusic
1628540218.36,stimulus,1,163,,0.0,NoMusic
1628540219.044,fixation,1,163,0.184,0.0,NoMusic
1628540220.36,stimulus,1,164,,0.0,NoMusic
1628540221.379,fixation,1,164,0.519,1.0,NoMusic
1628540222.36,stimulus,1,165,,0.0,NoMusic
1628540223.5,fixation,1,165,0.64,1.0,NoMusic
1628540224.36,stimulus,1,166,,0.0,NoMusic
1628540225.142,fixation,1,166,0.282,1.0,NoMusic
1628540226.36,stimulus,1,167,,0.0,NoMusic
1628540227.0449998,fixation,1,167,0.185,1.0,NoMusic
1628540228.36,stimulus,1,168,,0.0,NoMusic
1628540228.978,fixation,1,168,0.118,1.0,NoMusic
1628540230.36,stimulus,1,169,,0.0,NoMusic
1628540231.0549998,fixation,1,169,0.195,1.0,NoMusic
1628540232.36,stimulus,1,170,,0.0,NoMusic
1628540232.906,fixation,1,170,0.046,1.0,NoMusic
1628540234.8349998,stimulus,1,171,0.475,1.0,NoMusic
1628540234.86,fixation,1,171,,0.0,NoMusic
1628540236.36,stimulus,1,172,,0.0,NoMusic
1628540236.9699998,fixation,1,172,0.11,1.0,NoMusic
1628540238.36,stimulus,1,173,,0.0,NoMusic
1628540238.9989998,fixation,1,173,0.139,1.0,NoMusic
1628540240.36,stimulus,1,174,,0.0,NoMusic
1628540240.955,fixation,1,174,0.095,1.0,NoMusic
1628540242.36,stimulus,1,175,,0.0,NoMusic
1628540243.399,fixation,1,175,0.539,0.0,NoMusic
1628540244.36,stimulus,1,176,,0.0,NoMusic
1628540245.294,fixation,1,176,0.434,1.0,NoMusic
1628540246.36,stimulus,1,177,,0.0,NoMusic
1628540246.898,fixation,1,177,0.038,1.0,NoMusic
1628540248.36,stimulus,1,178,,0.0,NoMusic
1628540248.876,fixation,1,178,0.016,1.0,NoMusic
1628540250.36,stimulus,1,179,,0.0,NoMusic
1628540250.909,fixation,1,179,0.049,1.0,NoMusic
1628540252.847,stimulus,1,180,0.487,1.0,NoMusic
1628540252.86,fixation,1,180,,0.0,NoMusic
1628540254.36,stimulus,1,181,,0.0,NoMusic
1628540254.86,fixation,1,181,,0.0,NoMusic
1628540256.36,stimulus,1,182,,0.0,NoMusic
1628540256.86,fixation,1,182,,1.0,NoMusic
1628540258.36,stimulus,1,183,,0.0,NoMusic
1628540258.905,fixation,1,183,0.045,1.0,NoMusic
1628540260.36,stimulus,1,184,,0.0,NoMusic
1628540260.9129999,fixation,1,184,0.053,1.0,NoMusic
1628540262.36,stimulus,1,185,,0.0,NoMusic
1628540262.9129999,fixation,1,185,0.053,1.0,NoMusic
1628540264.36,stimulus,1,186,,0.0,NoMusic
1628540264.911,fixation,1,186,0.051,1.0,NoMusic
1628540266.36,stimulus,1,187,,0.0,NoMusic
1628540266.985,fixation,1,187,0.125,1.0,NoMusic
1628540268.8309999,stimulus,1,188,0.471,1.0,NoMusic
1628540268.86,fixation,1,188,,0.0,NoMusic
1628540270.826,stimulus,1,189,0.466,1.0,NoMusic
1628540270.86,fixation,1,189,,0.0,NoMusic
1628540272.36,stimulus,1,190,,0.0,NoMusic
1628540272.9569998,fixation,1,190,0.097,1.0,NoMusic
1628540274.36,stimulus,1,191,,0.0,NoMusic
1628540274.941,fixation,1,191,0.081,1.0,NoMusic
1628540276.36,stimulus,1,192,,0.0,NoMusic
1628540276.86,fixation,1,192,,0.0,NoMusic
1628540278.36,stimulus,1,193,,0.0,NoMusic
1628540279.034,fixation,1,193,0.174,1.0,NoMusic
1628540280.36,stimulus,1,194,,0.0,NoMusic
1628540280.905,fixation,1,194,0.045,1.0,NoMusic
1628540282.8479998,stimulus,1,195,0.488,1.0,NoMusic
1628540282.86,fixation,1,195,,0.0,NoMusic
1628540284.84,stimulus,1,196,0.48,1.0,NoMusic
1628540284.86,fixation,1,196,,0.0,NoMusic
1628540286.36,stimulus,1,197,,0.0,NoMusic
1628540286.9559999,fixation,1,197,0.096,1.0,NoMusic
1628540288.36,stimulus,1,198,,0.0,NoMusic
1628540288.865,fixation,1,198,0.005,1.0,NoMusic
1628540290.36,stimulus,1,199,,0.0,NoMusic
1628540291.125,fixation,1,199,0.265,1.0,NoMusic
1628540292.36,stimulus,1,200,,0.0,NoMusic
1628540292.978,fixation,1,200,0.118,1.0,NoMusic
1628540294.36,stimulus,1,201,,0.0,NoMusic
1628540295.099,fixation,1,201,0.239,1.0,NoMusic
1628540296.36,stimulus,1,202,,0.0,NoMusic
1628540297.0029998,fixation,1,202,0.143,1.0,NoMusic
1628540298.36,stimulus,1,203,,0.0,NoMusic
1628540299.0319998,fixation,1,203,0.172,1.0,NoMusic
1628540300.36,stimulus,1,204,,0.0,NoMusic
1628540300.964,fixation,1,204,0.104,1.0,NoMusic
1628540302.36,stimulus,1,205,,0.0,NoMusic
1628540303.054,fixation,1,205,0.194,1.0,NoMusic
1628540304.36,stimulus,1,206,,0.0,NoMusic
1628540305.102,fixation,1,206,0.242,1.0,NoMusic
1628540306.36,stimulus,1,207,,0.0,NoMusic
1628540307.192,fixation,1,207,0.332,1.0,NoMusic
1628540308.36,stimulus,1,208,,0.0,NoMusic
1628540309.3279998,fixation,1,208,0.468,1.0,NoMusic
1628540310.36,stimulus,1,209,,0.0,NoMusic
1628540311.0779998,fixation,1,209,0.218,1.0,NoMusic
1628540312.36,stimulus,1,210,,0.0,NoMusic
1628540313.1179998,fixation,1,210,0.258,1.0,NoMusic
1628540314.36,stimulus,1,211,,0.0,NoMusic
1628540315.0119998,fixation,1,211,0.152,1.0,NoMusic
1628540316.36,stimulus,1,212,,0.0,NoMusic
1628540317.057,fixation,1,212,0.197,1.0,NoMusic
1628540318.36,stimulus,1,213,,0.0,NoMusic
1628540318.9529998,fixation,1,213,0.093,1.0,NoMusic
1628540320.36,stimulus,1,214,,0.0,NoMusic
1628540321.258,fixation,1,214,0.398,1.0,NoMusic
1628540322.36,stimulus,1,215,,0.0,NoMusic
1628540323.093,fixation,1,215,0.233,1.0,NoMusic
1628540324.36,stimulus,1,216,,0.0,NoMusic
1628540325.123,fixation,1,216,0.263,1.0,NoMusic
1628540326.36,stimulus,1,217,,0.0,NoMusic
1628540327.235,fixation,1,217,0.375,1.0,NoMusic
1628540328.36,stimulus,1,218,,0.0,NoMusic
1628540329.2489998,fixation,1,218,0.389,1.0,NoMusic
1628540330.36,stimulus,1,219,,0.0,NoMusic
1628540331.409,fixation,1,219,0.549,1.0,NoMusic
1628540332.36,stimulus,1,220,,0.0,NoMusic
1628540333.359,fixation,1,220,0.499,1.0,NoMusic
1628540334.36,stimulus,1,221,,,NoMusic
1628540334.86,fixation,1,221,,,NoMusic
1628540336.36,stimulus,1,222,,0.0,NoMusic
1628540336.985,fixation,1,222,0.125,1.0,NoMusic
1628540338.36,stimulus,1,223,,0.0,NoMusic
1628540338.905,fixation,1,223,0.045,1.0,NoMusic
1628540340.8149998,stimulus,1,224,0.455,1.0,NoMusic
1628540340.86,fixation,1,224,,0.0,NoMusic
1628540342.36,stimulus,1,225,,0.0,NoMusic
1628540342.9919999,fixation,1,225,0.132,1.0,NoMusic
1628540344.36,stimulus,1,226,,0.0,NoMusic
1628540344.9259999,fixation,1,226,0.066,1.0,NoMusic
1628540346.36,stimulus,1,227,,0.0,NoMusic
1628540347.044,fixation,1,227,0.184,1.0,NoMusic
1628540348.36,stimulus,1,228,,0.0,NoMusic
1628540348.9729998,fixation,1,228,0.113,1.0,NoMusic
1628540350.36,stimulus,1,229,,0.0,NoMusic
1628540350.9889998,fixation,1,229,0.129,1.0,NoMusic
1628540352.36,stimulus,1,230,,0.0,NoMusic
1628540353.281,fixation,1,230,0.421,0.0,NoMusic
1628540354.36,stimulus,1,231,,0.0,NoMusic
1628540355.0949998,fixation,1,231,0.235,1.0,NoMusic
1628540356.36,stimulus,1,232,,0.0,NoMusic
1628540357.133,fixation,1,232,0.273,1.0,NoMusic
1628540358.36,stimulus,1,233,,0.0,NoMusic
1628540359.314,fixation,1,233,0.454,0.0,NoMusic
1628540360.36,stimulus,1,234,,0.0,NoMusic
1628540361.928,fixation,1,234,1.068,0.0,NoMusic
1628540362.36,stimulus,1,235,,0.0,NoMusic
1628540363.824,fixation,1,235,0.964,0.0,NoMusic
1628540364.36,stimulus,1,236,,0.0,NoMusic
1628540365.9819999,fixation,1,236,1.122,0.0,NoMusic
1628540366.36,stimulus,1,237,,0.0,NoMusic
1628540367.541,fixation,1,237,0.681,1.0,NoMusic
1628540368.36,stimulus,1,238,,0.0,NoMusic
1628540369.412,fixation,1,238,0.552,1.0,NoMusic
1628540370.36,stimulus,1,239,,0.0,NoMusic
1628540371.439,fixation,1,239,0.579,1.0,NoMusic
1628540372.36,stimulus,1,240,,0.0,NoMusic
1628540373.122,fixation,1,240,0.262,1.0,NoMusic
1628540374.36,stimulus,1,241,,0.0,NoMusic
1628540375.4959998,fixation,1,241,0.636,1.0,NoMusic
1628540376.36,stimulus,1,242,,0.0,NoMusic
1628540377.5779998,fixation,1,242,0.718,1.0,NoMusic
1628540378.36,stimulus,1,243,,0.0,NoMusic
1628540379.4199998,fixation,1,243,0.56,0.0,NoMusic
1628540380.36,stimulus,1,244,,0.0,NoMusic
1628540381.1969998,fixation,1,244,0.337,1.0,NoMusic
1628540382.36,stimulus,1,245,,0.0,NoMusic
1628540382.916,fixation,1,245,0.056,1.0,NoMusic
1628540384.36,stimulus,1,246,,0.0,NoMusic
1628540385.0259998,fixation,1,246,0.166,1.0,NoMusic
1628540386.36,stimulus,1,247,,0.0,NoMusic
1628540386.929,fixation,1,247,0.069,1.0,NoMusic
1628540388.8479998,stimulus,1,248,0.488,1.0,NoMusic
1628540388.86,fixation,1,248,,0.0,NoMusic
1628540390.36,stimulus,1,249,,0.0,NoMusic
1628540390.9259999,fixation,1,249,0.066,1.0,NoMusic
1628540392.787,stimulus,1,250,0.427,1.0,NoMusic
1628540392.86,fixation,1,250,,0.0,NoMusic
1628540394.8,stimulus,1,251,0.44,0.0,NoMusic
1628540395.1209998,fixation,1,251,0.261,1.0,NoMusic
1628540396.843,stimulus,1,252,0.483,1.0,NoMusic
1628540396.86,fixation,1,252,,0.0,NoMusic
1628540398.36,stimulus,1,253,,0.0,NoMusic
1628540398.981,fixation,1,253,0.121,1.0,NoMusic
1628540400.842,stimulus,1,254,0.482,1.0,NoMusic
1628540400.86,fixation,1,254,,0.0,NoMusic
1628540402.36,stimulus,1,255,,0.0,NoMusic
1628540402.922,fixation,1,255,0.062,1.0,NoMusic
1628540404.36,stimulus,1,256,,0.0,NoMusic
1628540404.9229999,fixation,1,256,0.063,1.0,NoMusic
1628540406.8569999,stimulus,1,257,0.497,1.0,NoMusic
1628540406.86,fixation,1,257,,0.0,NoMusic
1628540408.36,stimulus,1,258,,0.0,NoMusic
1628540408.862,fixation,1,258,0.002,1.0,NoMusic
1628540410.36,stimulus,1,259,,0.0,NoMusic
1628540411.205,fixation,1,259,0.345,1.0,NoMusic
1628540412.36,stimulus,1,260,,0.0,NoMusic
1628540412.967,fixation,1,260,0.107,1.0,NoMusic
1628540414.8079998,stimulus,1,261,0.448,1.0,NoMusic
1628540414.86,fixation,1,261,,0.0,NoMusic
1628540416.763,stimulus,1,262,0.403,1.0,NoMusic
1628540416.86,fixation,1,262,,0.0,NoMusic
1628540418.806,stimulus,1,263,0.446,1.0,NoMusic
1628540418.86,fixation,1,263,,0.0,NoMusic
1628540420.36,stimulus,1,264,,0.0,NoMusic
1628540420.998,fixation,1,264,0.138,1.0,NoMusic
1628540422.36,stimulus,1,265,,0.0,NoMusic
1628540423.093,fixation,1,265,0.233,1.0,NoMusic
1628540424.83,stimulus,1,266,0.47,1.0,NoMusic
1628540424.86,fixation,1,266,,0.0,NoMusic
1628540426.847,stimulus,1,267,0.487,1.0,NoMusic
1628540426.86,fixation,1,267,,0.0,NoMusic
1628540428.36,stimulus,1,268,,0.0,NoMusic
1628540428.895,fixation,1,268,0.035,1.0,NoMusic
1628540430.36,stimulus,1,269,,0.0,NoMusic
1628540430.929,fixation,1,269,0.069,1.0,NoMusic
1628540432.36,stimulus,1,270,,0.0,NoMusic
1628540432.902,fixation,1,270,0.042,1.0,NoMusic
1628540434.8,stimulus,1,271,0.44,1.0,NoMusic
1628540434.86,fixation,1,271,,0.0,NoMusic
1628540436.36,stimulus,1,272,,0.0,NoMusic
1628540436.876,fixation,1,272,0.016,1.0,NoMusic
1628540438.36,stimulus,1,273,,0.0,NoMusic
1628540438.919,fixation,1,273,0.059,1.0,NoMusic
1628540440.8409998,stimulus,1,274,0.481,1.0,NoMusic
1628540440.86,fixation,1,274,,0.0,NoMusic
1628540442.735,stimulus,1,275,0.375,1.0,NoMusic
1628540442.86,fixation,1,275,,0.0,NoMusic
1628540444.824,stimulus,1,276,0.464,1.0,NoMusic
1628540444.86,fixation,1,276,,0.0,NoMusic
1628540446.36,stimulus,1,277,,0.0,NoMusic
1628540446.8639998,fixation,1,277,0.004,1.0,NoMusic
1628540448.36,stimulus,1,278,,0.0,NoMusic
1628540448.8709998,fixation,1,278,0.011,1.0,NoMusic
1628540450.36,stimulus,1,279,,0.0,NoMusic
1628540450.9959998,fixation,1,279,0.136,1.0,NoMusic
1628540452.842,stimulus,1,280,0.482,1.0,NoMusic
1628540452.86,fixation,1,280,,0.0,NoMusic
1628540454.36,stimulus,1,281,,0.0,NoMusic
1628540454.9239998,fixation,1,281,0.064,1.0,NoMusic
1628540456.82,stimulus,1,282,0.46,1.0,NoMusic
1628540456.86,fixation,1,282,,0.0,NoMusic
1628540458.85,stimulus,1,283,0.49,1.0,NoMusic
1628540458.86,fixation,1,283,,0.0,NoMusic
1628540460.8479998,stimulus,1,284,0.488,1.0,NoMusic
1628540460.86,fixation,1,284,,0.0,NoMusic
1628540462.36,stimulus,1,285,,0.0,NoMusic
1628540462.905,fixation,1,285,0.045,1.0,NoMusic
1628540464.36,stimulus,1,286,,0.0,NoMusic
1628540464.932,fixation,1,286,0.072,0.0,NoMusic
1628540466.859,stimulus,1,287,0.499,1.0,NoMusic
1628540466.86,fixation,1,287,,0.0,NoMusic
1628540468.36,stimulus,1,288,,0.0,NoMusic
1628540468.918,fixation,1,288,0.058,1.0,NoMusic
1628540470.7319999,stimulus,1,289,0.372,1.0,NoMusic
1628540470.86,fixation,1,289,,0.0,NoMusic
1628540472.36,stimulus,1,290,,0.0,NoMusic
1628540472.9859998,fixation,1,290,0.126,1.0,NoMusic
1628540474.36,stimulus,1,291,,0.0,NoMusic
1628540475.087,fixation,1,291,0.227,1.0,NoMusic
1628540476.36,stimulus,1,292,,0.0,NoMusic
1628540477.063,fixation,1,292,0.203,1.0,NoMusic
1628540478.36,stimulus,1,293,,0.0,NoMusic
1628540479.2159998,fixation,1,293,0.356,1.0,NoMusic
1628540480.36,stimulus,1,294,,0.0,NoMusic
1628540481.439,fixation,1,294,0.579,1.0,NoMusic
1628540482.36,stimulus,1,295,,0.0,NoMusic
1628540483.1079998,fixation,1,295,0.248,0.0,NoMusic
1628540484.36,stimulus,1,296,,0.0,NoMusic
1628540484.9789999,fixation,1,296,0.119,1.0,NoMusic
1628540486.36,stimulus,1,297,,0.0,NoMusic
1628540487.02,fixation,1,297,0.16,1.0,NoMusic
1628540488.36,stimulus,1,298,,0.0,NoMusic
1628540489.3439999,fixation,1,298,0.484,0.0,NoMusic
1628540490.36,stimulus,1,299,,0.0,NoMusic
1628540491.021,fixation,1,299,0.161,1.0,NoMusic
1628540492.36,stimulus,1,300,,0.0,NoMusic
1628540492.9889998,fixation,1,300,0.129,1.0,NoMusic
1628540494.36,stimulus,1,301,,0.0,NoMusic
1628540494.8999999,fixation,1,301,0.04,1.0,NoMusic
1628540496.36,stimulus,1,302,,0.0,NoMusic
1628540497.066,fixation,1,302,0.206,1.0,NoMusic
1628540498.36,stimulus,1,303,,0.0,NoMusic
1628540499.109,fixation,1,303,0.249,1.0,NoMusic
1628540500.36,stimulus,1,304,,0.0,NoMusic
1628540501.1969998,fixation,1,304,0.337,0.0,NoMusic
1628540502.36,stimulus,1,305,,0.0,NoMusic
1628540503.057,fixation,1,305,0.197,1.0,NoMusic
1628540504.7389998,stimulus,1,306,0.379,1.0,NoMusic
1628540504.86,fixation,1,306,,0.0,NoMusic
1628540506.36,stimulus,1,307,,0.0,NoMusic
1628540507.2419999,fixation,1,307,0.382,1.0,NoMusic
1628540508.36,stimulus,1,308,,0.0,NoMusic
1628540509.1699998,fixation,1,308,0.31,1.0,NoMusic
1628540510.36,stimulus,1,309,,0.0,NoMusic
1628540512.0619998,fixation,1,309,1.202,1.0,NoMusic
1628540512.36,stimulus,1,310,,0.0,NoMusic
1628540512.879,fixation,1,310,0.019,1.0,NoMusic
1628540514.36,stimulus,1,311,,0.0,NoMusic
1628540515.293,fixation,1,311,0.433,1.0,NoMusic
1628540516.36,stimulus,1,312,,0.0,NoMusic
1628540517.1509998,fixation,1,312,0.291,1.0,NoMusic
1628540518.36,stimulus,1,313,,0.0,NoMusic
1628540519.1109998,fixation,1,313,0.251,1.0,NoMusic
1628540520.36,stimulus,1,314,,0.0,NoMusic
1628540521.643,fixation,1,314,0.783,1.0,NoMusic
1628540522.36,stimulus,1,315,,0.0,NoMusic
1628540523.258,fixation,1,315,0.398,1.0,NoMusic
1628540524.36,stimulus,1,316,,0.0,NoMusic
1628540525.62,fixation,1,316,0.76,1.0,NoMusic
1628540526.36,stimulus,1,317,,0.0,NoMusic
1628540527.327,fixation,1,317,0.467,1.0,NoMusic
1628540528.36,stimulus,1,318,,0.0,NoMusic
1628540529.468,fixation,1,318,0.608,1.0,NoMusic
1628540530.36,stimulus,1,319,,0.0,NoMusic
1628540532.115,fixation,1,319,1.255,0.0,NoMusic
1628540532.36,stimulus,1,320,,0.0,NoMusic
1628540533.399,fixation,1,320,0.539,1.0,NoMusic
1628540534.36,stimulus,1,321,,0.0,NoMusic
1628540535.6759999,fixation,1,321,0.816,1.0,NoMusic
1628540536.36,stimulus,1,322,,0.0,NoMusic
1628540537.0519998,fixation,1,322,0.192,1.0,NoMusic
1628540538.36,stimulus,1,323,,0.0,NoMusic
1628540539.1599998,fixation,1,323,0.3,1.0,NoMusic
1628540540.36,stimulus,1,324,,0.0,NoMusic
1628540541.343,fixation,1,324,0.483,1.0,NoMusic
1628540542.36,stimulus,1,325,,0.0,NoMusic
1628540542.915,fixation,1,325,0.055,1.0,NoMusic
1628540544.36,stimulus,1,326,,0.0,NoMusic
1628540545.116,fixation,1,326,0.256,1.0,NoMusic
1628540546.36,stimulus,1,327,,0.0,NoMusic
1628540547.0839999,fixation,1,327,0.224,1.0,NoMusic
1628540548.36,stimulus,1,328,,0.0,NoMusic
1628540549.161,fixation,1,328,0.301,1.0,NoMusic
1628540550.36,stimulus,1,329,,0.0,NoMusic
1628540551.031,fixation,1,329,0.171,1.0,NoMusic
1628540552.36,stimulus,1,330,,0.0,NoMusic
1628540553.046,fixation,1,330,0.186,1.0,NoMusic
1628540554.36,stimulus,1,331,,0.0,NoMusic
1628540554.9989998,fixation,1,331,0.139,1.0,NoMusic
1628540556.807,stimulus,1,332,0.447,1.0,NoMusic
1628540556.86,fixation,1,332,,0.0,NoMusic
1628540558.771,stimulus,1,333,0.411,1.0,NoMusic
1628540558.86,fixation,1,333,,0.0,NoMusic
1628540560.36,stimulus,1,334,,0.0,NoMusic
1628540560.8739998,fixation,1,334,0.014,1.0,NoMusic
1628540562.8019998,stimulus,1,335,0.442,1.0,NoMusic
1628540562.86,fixation,1,335,,0.0,NoMusic
1628540564.36,stimulus,1,336,,0.0,NoMusic
1628540564.9359999,fixation,1,336,0.076,1.0,NoMusic
1628540566.36,stimulus,1,337,,0.0,NoMusic
1628540566.9589999,fixation,1,337,0.099,1.0,NoMusic
1628540568.36,stimulus,1,338,,0.0,NoMusic
1628540568.8739998,fixation,1,338,0.014,1.0,NoMusic
1628540570.36,stimulus,1,339,,0.0,NoMusic
1628540570.86,fixation,1,339,,0.0,NoMusic
1628540572.8339999,stimulus,1,340,0.474,1.0,NoMusic
1628540572.86,fixation,1,340,,0.0,NoMusic
1628540574.36,stimulus,1,341,,0.0,NoMusic
1628540574.8709998,fixation,1,341,0.011,1.0,NoMusic
1628540576.8009999,stimulus,1,342,0.441,1.0,NoMusic
1628540576.86,fixation,1,342,,0.0,NoMusic
1628540578.8319998,stimulus,1,343,0.472,1.0,NoMusic
1628540578.86,fixation,1,343,,0.0,NoMusic
1628540580.849,stimulus,1,344,0.489,1.0,NoMusic
1628540580.86,fixation,1,344,,0.0,NoMusic
1628540582.36,stimulus,1,345,,0.0,NoMusic
1628540583.09,fixation,1,345,0.23,1.0,NoMusic
1628540584.36,stimulus,1,346,,0.0,NoMusic
1628540585.064,fixation,1,346,0.204,1.0,NoMusic
1628540586.843,stimulus,1,347,0.483,1.0,NoMusic
1628540586.86,fixation,1,347,,0.0,NoMusic
1628540588.36,stimulus,1,348,,0.0,NoMusic
1628540588.879,fixation,1,348,0.019,1.0,NoMusic
1628540590.36,stimulus,1,349,,0.0,NoMusic
1628540590.866,fixation,1,349,0.006,1.0,NoMusic
1628540592.36,stimulus,1,350,,0.0,NoMusic
1628540593.189,fixation,1,350,0.329,1.0,NoMusic
1628540594.36,stimulus,1,351,,0.0,NoMusic
1628540595.089,fixation,1,351,0.229,1.0,NoMusic
1628540596.816,stimulus,1,352,0.456,1.0,NoMusic
1628540596.86,fixation,1,352,,0.0,NoMusic
1628540598.74,stimulus,1,353,0.38,0.0,NoMusic
1628540599.1759999,fixation,1,353,0.316,1.0,NoMusic
1628540600.7659998,stimulus,1,354,0.406,1.0,NoMusic
1628540600.86,fixation,1,354,,0.0,NoMusic
1628540602.6739998,stimulus,1,355,0.314,1.0,NoMusic
1628540602.86,fixation,1,355,,0.0,NoMusic
1628540604.833,stimulus,1,356,0.473,1.0,NoMusic
1628540604.86,fixation,1,356,,0.0,NoMusic
1628540606.36,stimulus,1,357,,0.0,NoMusic
1628540607.0579998,fixation,1,357,0.198,1.0,NoMusic
1628540608.36,stimulus,1,358,,0.0,NoMusic
1628540608.9819999,fixation,1,358,0.122,0.0,NoMusic
1628540610.36,stimulus,1,359,,0.0,NoMusic
1628540610.955,fixation,1,359,0.095,1.0,NoMusic
1628540612.36,stimulus,1,360,,0.0,NoMusic
1628540613.143,fixation,1,360,0.283,1.0,NoMusic
1628540614.36,stimulus,1,361,,0.0,NoMusic
1628540615.086,fixation,1,361,0.226,1.0,NoMusic
1628540616.36,stimulus,1,362,,0.0,NoMusic
1628540617.2359998,fixation,1,362,0.376,1.0,NoMusic
1628540618.84,stimulus,1,363,0.48,0.0,NoMusic
1628540619.227,fixation,1,363,0.367,1.0,NoMusic
1628540620.36,stimulus,1,364,,0.0,NoMusic
1628540621.092,fixation,1,364,0.232,0.0,NoMusic
1628540622.36,stimulus,1,365,,0.0,NoMusic
1628540623.1669998,fixation,1,365,0.307,1.0,NoMusic
1628540624.36,stimulus,1,366,,0.0,NoMusic
1628540625.018,fixation,1,366,0.158,1.0,NoMusic
1628540626.36,stimulus,1,367,,0.0,NoMusic
1628540626.882,fixation,1,367,0.022,1.0,NoMusic
1628540628.36,stimulus,1,368,,0.0,NoMusic
1628540629.03,fixation,1,368,0.17,1.0,NoMusic
1628540630.36,stimulus,1,369,,0.0,NoMusic
1628540631.51,fixation,1,369,0.65,0.0,NoMusic
1628540632.36,stimulus,1,370,,0.0,NoMusic
1628540633.4259999,fixation,1,370,0.566,1.0,NoMusic
1628540634.36,stimulus,1,371,,0.0,NoMusic
1628540635.07,fixation,1,371,0.21,1.0,NoMusic
1628540636.36,stimulus,1,372,,0.0,NoMusic
1628540637.36,fixation,1,372,0.5,1.0,NoMusic
1628540638.36,stimulus,1,373,,0.0,NoMusic
1628540639.3909998,fixation,1,373,0.531,1.0,NoMusic
1628540640.36,stimulus,1,374,,0.0,NoMusic
1628540640.86,fixation,1,374,,0.0,NoMusic
1628540642.36,stimulus,1,375,,0.0,NoMusic
1628540642.9399998,fixation,1,375,0.08,1.0,NoMusic
1628540644.7519999,stimulus,1,376,0.392,1.0,NoMusic
1628540644.86,fixation,1,376,,0.0,NoMusic
1628540646.36,stimulus,1,377,,0.0,NoMusic
1628540646.929,fixation,1,377,0.069,1.0,NoMusic
1628540648.36,stimulus,1,378,,0.0,NoMusic
1628540648.86,fixation,1,378,,0.0,NoMusic
1628540650.36,stimulus,1,379,,0.0,NoMusic
1628540650.972,fixation,1,379,0.112,1.0,NoMusic
1628540652.36,stimulus,1,380,,0.0,NoMusic
1628540652.915,fixation,1,380,0.055,1.0,NoMusic
1628540654.36,stimulus,1,381,,0.0,NoMusic
1628540654.86,fixation,1,381,,0.0,NoMusic
1628540656.36,stimulus,1,382,,0.0,NoMusic
1628540656.9359999,fixation,1,382,0.076,1.0,NoMusic
1628540658.36,stimulus,1,383,,0.0,NoMusic
1628540658.9099998,fixation,1,383,0.05,1.0,NoMusic
1628540660.36,stimulus,1,384,,0.0,NoMusic
1628540660.939,fixation,1,384,0.079,1.0,NoMusic
1628540662.36,stimulus,1,385,,0.0,NoMusic
1628540662.9789999,fixation,1,385,0.119,1.0,NoMusic
1628540664.36,stimulus,1,386,,0.0,NoMusic
1628540665.007,fixation,1,386,0.147,1.0,NoMusic
1628540666.8539999,stimulus,1,387,0.494,1.0,NoMusic
1628540666.86,fixation,1,387,,0.0,NoMusic
1628540668.36,stimulus,1,388,,0.0,NoMusic
1628540668.872,fixation,1,388,0.012,1.0,NoMusic
1628540670.36,stimulus,1,389,,0.0,NoMusic
1628540671.155,fixation,1,389,0.295,1.0,NoMusic
1628540672.36,stimulus,1,390,,0.0,NoMusic
1628540673.074,fixation,1,390,0.214,1.0,NoMusic
1628540674.36,stimulus,1,391,,0.0,NoMusic
1628540675.067,fixation,1,391,0.207,1.0,NoMusic
1628540676.36,stimulus,1,392,,0.0,NoMusic
1628540676.8769999,fixation,1,392,0.017,1.0,NoMusic
1628540678.8349998,stimulus,1,393,0.475,1.0,NoMusic
1628540678.86,fixation,1,393,,0.0,NoMusic
1628540680.764,stimulus,1,394,0.404,1.0,NoMusic
1628540680.86,fixation,1,394,,0.0,NoMusic
1628540682.8479998,stimulus,1,395,0.488,1.0,NoMusic
1628540682.86,fixation,1,395,,0.0,NoMusic
1628540684.36,stimulus,1,396,,0.0,NoMusic
1628540685.0059998,fixation,1,396,0.146,1.0,NoMusic
1628540686.36,stimulus,1,397,,0.0,NoMusic
1628540687.076,fixation,1,397,0.216,1.0,NoMusic
1628540688.36,stimulus,1,398,,,RelaxSession
1628540688.86,fixation,1,398,,,RelaxSession
1628540690.36,stimulus,1,399,,,RelaxSession
1628540690.86,fixation,1,399,,,RelaxSession
1628540692.36,stimulus,1,400,,,RelaxSession
1628540692.86,fixation,1,400,,,RelaxSession
1628540694.36,stimulus,1,401,,,RelaxSession
1628540694.86,fixation,1,401,,,RelaxSession
1628540696.36,stimulus,1,402,,,RelaxSession
1628540696.86,fixation,1,402,,,RelaxSession
1628540698.36,stimulus,1,403,,,RelaxSession
1628540698.86,fixation,1,403,,,RelaxSession
1628540700.36,stimulus,1,404,,,RelaxSession
1628540700.86,fixation,1,404,,,RelaxSession
1628540702.36,stimulus,1,405,,,RelaxSession
1628540702.86,fixation,1,405,,,RelaxSession
1628540704.36,stimulus,1,406,,,RelaxSession
1628540704.86,fixation,1,406,,,RelaxSession
1628540706.36,stimulus,1,407,,,RelaxSession
1628540706.86,fixation,1,407,,,RelaxSession
1628540708.36,stimulus,1,408,,,RelaxSession
1628540708.86,fixation,1,408,,,RelaxSession
1628540710.36,stimulus,1,409,,,RelaxSession
1628540710.86,fixation,1,409,,,RelaxSession
1628540712.36,stimulus,1,410,,,RelaxSession
1628540712.86,fixation,1,410,,,RelaxSession
1628540714.36,stimulus,1,411,,,RelaxSession
1628540714.86,fixation,1,411,,,RelaxSession
1628540716.36,stimulus,1,412,,,RelaxSession
1628540716.86,fixation,1,412,,,RelaxSession
1628540718.36,stimulus,1,413,,,RelaxSession
1628540718.86,fixation,1,413,,,RelaxSession
1628540720.36,stimulus,1,414,,,RelaxSession
1628540720.86,fixation,1,414,,,RelaxSession
1628540722.36,stimulus,1,415,,,RelaxSession
1628540722.86,fixation,1,415,,,RelaxSession
1628540724.36,stimulus,1,416,,,RelaxSession
1628540724.86,fixation,1,416,,,RelaxSession
1628540726.36,stimulus,1,417,,,RelaxSession
1628540726.86,fixation,1,417,,,RelaxSession
1628540728.36,stimulus,1,418,,,RelaxSession
1628540728.86,fixation,1,418,,,RelaxSession
1628540730.36,stimulus,1,419,,,RelaxSession
1628540730.86,fixation,1,419,,,RelaxSession
1628540732.36,stimulus,1,420,,,RelaxSession
1628540732.86,fixation,1,420,,,RelaxSession
1628540734.36,stimulus,1,421,,,RelaxSession
1628540734.86,fixation,1,421,,,RelaxSession
1628540736.36,stimulus,1,422,,,RelaxSession
1628540736.86,fixation,1,422,,,RelaxSession
1628540738.36,stimulus,1,423,,,RelaxSession
1628540738.86,fixation,1,423,,,RelaxSession
1628540740.36,stimulus,1,424,,,RelaxSession
1628540740.86,fixation,1,424,,,RelaxSession
1628540742.36,stimulus,1,425,,,RelaxSession
1628540742.86,fixation,1,425,,,RelaxSession
1628540744.36,stimulus,1,426,,,RelaxSession
1628540744.86,fixation,1,426,,,RelaxSession
1628540746.36,stimulus,1,427,,,RelaxSession
1628540746.86,fixation,1,427,,,RelaxSession
1628540748.36,stimulus,1,428,,,RelaxSession
1628540748.86,fixation,1,428,,,RelaxSession
1628540750.36,stimulus,1,429,,,RelaxSession
1628540750.86,fixation,1,429,,,RelaxSession
1628540752.36,stimulus,1,430,,,RelaxSession
1628540752.86,fixation,1,430,,,RelaxSession
1628540754.36,stimulus,1,431,,,RelaxSession
1628540754.86,fixation,1,431,,,RelaxSession
1628540756.36,stimulus,1,432,,,RelaxSession
1628540756.86,fixation,1,432,,,RelaxSession
1628540758.36,stimulus,1,433,,,RelaxSession
1628540758.86,fixation,1,433,,,RelaxSession
1628540760.36,stimulus,1,434,,,RelaxSession
1628540760.86,fixation,1,434,,,RelaxSession
1628540762.36,stimulus,1,435,,,RelaxSession
1628540762.86,fixation,1,435,,,RelaxSession
1628540764.36,stimulus,1,436,,,RelaxSession
1628540764.86,fixation,1,436,,,RelaxSession
1628540766.36,stimulus,1,437,,,RelaxSession
1628540766.86,fixation,1,437,,,RelaxSession
1628540768.36,stimulus,1,438,,,RelaxSession
1628540768.86,fixation,1,438,,,RelaxSession
1628540770.36,stimulus,1,439,,,RelaxSession
1628540770.86,fixation,1,439,,,RelaxSession
1628540772.36,stimulus,1,440,,,RelaxSession
1628540772.86,fixation,1,440,,,RelaxSession
1628540774.36,stimulus,1,441,,,RelaxSession
1628540774.86,fixation,1,441,,,RelaxSession
1628540776.36,stimulus,1,442,,,RelaxSession
1628540776.86,fixation,1,442,,,RelaxSession
1628540778.36,stimulus,1,443,,,RelaxSession
1628540778.86,fixation,1,443,,,RelaxSession
1628540780.36,stimulus,1,444,,,RelaxSession
1628540780.86,fixation,1,444,,,RelaxSession
1628540782.36,stimulus,1,445,,,RelaxSession
1628540782.86,fixation,1,445,,,RelaxSession
1628540784.36,stimulus,1,446,,,RelaxSession
1628540784.86,fixation,1,446,,,RelaxSession
1628540786.36,stimulus,1,447,,,RelaxSession
1628540786.86,fixation,1,447,,,RelaxSession
1628540788.36,stimulus,1,448,,,RelaxSession
1628540788.86,fixation,1,448,,,RelaxSession
1628540790.36,stimulus,1,449,,,RelaxSession
1628540790.86,fixation,1,449,,,RelaxSession
1628540792.36,stimulus,1,450,,,RelaxSession
1628540792.86,fixation,1,450,,,RelaxSession
1628540794.36,stimulus,1,451,,,RelaxSession
1628540794.86,fixation,1,451,,,RelaxSession
1628540796.36,stimulus,1,452,,,RelaxSession
1628540796.86,fixation,1,452,,,RelaxSession
1628540798.36,stimulus,1,453,,,RelaxSession
1628540798.86,fixation,1,453,,,RelaxSession
1628540800.36,stimulus,1,454,,,RelaxSession
1628540800.86,fixation,1,454,,,RelaxSession
1628540802.36,stimulus,1,455,,,RelaxSession
1628540802.86,fixation,1,455,,,RelaxSession
1628540804.36,stimulus,1,456,,,RelaxSession
1628540804.86,fixation,1,456,,,RelaxSession
1628540806.36,stimulus,1,457,,,RelaxSession
1628540806.86,fixation,1,457,,,RelaxSession
1628540808.36,stimulus,1,458,,,RelaxSession
1628540808.86,fixation,1,458,,,RelaxSession
1628540810.36,stimulus,1,459,,,RelaxSession
1628540810.86,fixation,1,459,,,RelaxSession
1628540812.36,stimulus,1,460,,,RelaxSession
1628540812.86,fixation,1,460,,,RelaxSession
1628540814.36,stimulus,1,461,,,RelaxSession
1628540814.86,fixation,1,461,,,RelaxSession
1628540816.36,stimulus,1,462,,,RelaxSession
1628540816.86,fixation,1,462,,,RelaxSession
1628540818.36,stimulus,1,463,,,RelaxSession
1628540818.86,fixation,1,463,,,RelaxSession
1628540820.36,stimulus,1,464,,,RelaxSession
1628540820.86,fixation,1,464,,,RelaxSession
1628540822.36,stimulus,1,465,,,RelaxSession
1628540822.86,fixation,1,465,,,RelaxSession
1628540824.36,stimulus,1,466,,,RelaxSession
1628540824.86,fixation,1,466,,,RelaxSession
1628540826.36,stimulus,1,467,,,RelaxSession
1628540826.86,fixation,1,467,,,RelaxSession
1628540828.36,stimulus,1,468,,,RelaxSession
1628540828.86,fixation,1,468,,,RelaxSession
1628540830.36,stimulus,1,469,,,RelaxSession
1628540830.86,fixation,1,469,,,RelaxSession
1628540832.36,stimulus,1,470,,,RelaxSession
1628540832.86,fixation,1,470,,,RelaxSession
1628540834.36,stimulus,1,471,,,RelaxSession
1628540834.86,fixation,1,471,,,RelaxSession
1628540836.36,stimulus,1,472,,,RelaxSession
1628540836.86,fixation,1,472,,,RelaxSession
1628540838.36,stimulus,1,473,,,RelaxSession
1628540838.86,fixation,1,473,,,RelaxSession
1628540840.36,stimulus,1,474,,,RelaxSession
1628540840.86,fixation,1,474,,,RelaxSession
1628540842.36,stimulus,1,475,,,RelaxSession
1628540842.86,fixation,1,475,,,RelaxSession
1628540844.36,stimulus,1,476,,,RelaxSession
1628540844.86,fixation,1,476,,,RelaxSession
1628540846.36,stimulus,1,477,,,RelaxSession
1628540846.86,fixation,1,477,,,RelaxSession
1628540848.36,stimulus,1,478,,,RelaxSession
1628540848.86,fixation,1,478,,,RelaxSession
1628540850.36,stimulus,1,479,,,RelaxSession
1628540850.86,fixation,1,479,,,RelaxSession
1628540852.36,stimulus,1,480,,,RelaxSession
1628540852.86,fixation,1,480,,,RelaxSession
1628540854.36,stimulus,1,481,,,RelaxSession
1628540854.86,fixation,1,481,,,RelaxSession
1628540856.36,stimulus,1,482,,,RelaxSession
1628540856.86,fixation,1,482,,,RelaxSession
1628540858.36,stimulus,1,483,,,RelaxSession
1628540858.86,fixation,1,483,,,RelaxSession
1628540860.36,stimulus,1,484,,,RelaxSession
1628540860.86,fixation,1,484,,,RelaxSession
1628540862.36,stimulus,1,485,,,RelaxSession
1628540862.86,fixation,1,485,,,RelaxSession
1628540864.36,stimulus,1,486,,,RelaxSession
1628540864.86,fixation,1,486,,,RelaxSession
1628540866.36,stimulus,1,487,,,RelaxSession
1628540866.86,fixation,1,487,,,RelaxSession
1628540868.36,stimulus,1,488,,,RelaxSession
1628540868.86,fixation,1,488,,,RelaxSession
1628540870.36,stimulus,1,489,,,RelaxSession
1628540870.86,fixation,1,489,,,RelaxSession
1628540872.36,stimulus,1,490,,,RelaxSession
1628540872.86,fixation,1,490,,,RelaxSession
1628540873.2,stimulus,2,1,,,PracticeSession
1628540873.7,fixation,2,1,,,PracticeSession
1628540874.36,stimulus,1,491,,,RelaxSession
1628540874.86,fixation,1,491,,,RelaxSession
1628540875.2,stimulus,2,2,,,PracticeSession
1628540875.7,fixation,2,2,,,PracticeSession
1628540876.36,stimulus,1,492,,,RelaxSession
1628540876.86,fixation,1,492,,,RelaxSession
1628540877.2,stimulus,2,3,,,PracticeSession
1628540877.7,fixation,2,3,,,PracticeSession
1628540878.36,stimulus,1,493,,,RelaxSession
1628540878.86,fixation,1,493,,,RelaxSession
1628540879.2,stimulus,2,4,,,PracticeSession
1628540879.7,fixation,2,4,,,PracticeSession
1628540880.36,stimulus,1,494,,,RelaxSession
1628540880.86,fixation,1,494,,,RelaxSession
1628540881.2,stimulus,2,5,,,PracticeSession
1628540881.7,fixation,2,5,,,PracticeSession
1628540882.36,stimulus,1,495,,,RelaxSession
1628540882.86,fixation,1,495,,,RelaxSession
1628540883.2,stimulus,2,6,,,PracticeSession
1628540883.7,fixation,2,6,,,PracticeSession
1628540884.36,stimulus,1,496,,,RelaxSession
1628540884.86,fixation,1,496,,,RelaxSession
1628540885.2,stimulus,2,7,,,PracticeSession
1628540885.7,fixation,2,7,,,PracticeSession
1628540886.36,stimulus,1,497,,,RelaxSession
1628540886.86,fixation,1,497,,,RelaxSession
1628540887.2,stimulus,2,8,,,PracticeSession
1628540887.7,fixation,2,8,,,PracticeSession
1628540888.36,stimulus,1,498,,,RelaxSession
1628540888.86,fixation,1,498,,,RelaxSession
1628540889.2,stimulus,2,9,,,PracticeSession
1628540889.7,fixation,2,9,,,PracticeSession
1628540890.36,stimulus,1,499,,,RelaxSession
1628540890.86,fixation,1,499,,,RelaxSession
1628540891.2,stimulus,2,10,,,PracticeSession
1628540891.7,fixation,2,10,,,PracticeSession
1628540892.36,stimulus,1,500,,,RelaxSession
1628540892.86,fixation,1,500,,,RelaxSession
1628540893.2,stimulus,2,11,,,PracticeSession
1628540893.7,fixation,2,11,,,PracticeSession
1628540894.36,stimulus,1,501,,,RelaxSession
1628540894.86,fixation,1,501,,,RelaxSession
1628540895.2,stimulus,2,12,,,PracticeSession
1628540895.7,fixation,2,12,,,PracticeSession
1628540896.36,stimulus,1,502,,,RelaxSession
1628540896.86,fixation,1,502,,,RelaxSession
1628540897.2,stimulus,2,13,,,PracticeSession
1628540897.7,fixation,2,13,,,PracticeSession
1628540898.36,stimulus,1,503,,,RelaxSession
1628540898.86,fixation,1,503,,,RelaxSession
1628540899.2,stimulus,2,14,,,PracticeSession
1628540899.7,fixation,2,14,,,PracticeSession
1628540900.36,stimulus,1,504,,,RelaxSession
1628540900.86,fixation,1,504,,,RelaxSession
1628540901.2,stimulus,2,15,,,PracticeSession
1628540901.7,fixation,2,15,,,PracticeSession
1628540902.36,stimulus,1,505,,,RelaxSession
1628540902.86,fixation,1,505,,,RelaxSession
1628540903.2,stimulus,2,16,,,PracticeSession
1628540903.7,fixation,2,16,,,PracticeSession
1628540904.36,stimulus,1,506,,,RelaxSession
1628540904.86,fixation,1,506,,,RelaxSession
1628540905.2,stimulus,2,17,,,PracticeSession
1628540905.7,fixation,2,17,,,PracticeSession
1628540906.36,stimulus,1,507,,,RelaxSession
1628540906.86,fixation,1,507,,,RelaxSession
1628540907.2,stimulus,2,18,,,PracticeSession
1628540907.7,fixation,2,18,,,PracticeSession
1628540908.36,stimulus,1,508,,,RelaxSession
1628540908.86,fixation,1,508,,,RelaxSession
1628540909.2,stimulus,2,19,,,PracticeSession
1628540909.7,fixation,2,19,,,PracticeSession
1628540910.36,stimulus,1,509,,,RelaxSession
1628540910.86,fixation,1,509,,,RelaxSession
1628540911.2,stimulus,2,20,,,PracticeSession
1628540911.7,fixation,2,20,,,PracticeSession
1628540912.36,stimulus,1,510,,,RelaxSession
1628540912.86,fixation,1,510,,,RelaxSession
1628540913.2,stimulus,2,21,,,PracticeSession
1628540913.7,fixation,2,21,,,PracticeSession
1628540914.36,stimulus,1,511,,,RelaxSession
1628540914.86,fixation,1,511,,,RelaxSession
1628540915.2,stimulus,2,22,,,PracticeSession
1628540915.7,fixation,2,22,,,PracticeSession
1628540916.36,stimulus,1,512,,,RelaxSession
1628540916.86,fixation,1,512,,,RelaxSession
1628540917.2,stimulus,2,23,,,PracticeSession
1628540917.7,fixation,2,23,,,PracticeSession
1628540918.36,stimulus,1,513,,,RelaxSession
1628540918.86,fixation,1,513,,,RelaxSession
1628540919.2,stimulus,2,24,,,PracticeSession
1628540919.7,fixation,2,24,,,PracticeSession
1628540920.36,stimulus,1,514,,,RelaxSession
1628540920.86,fixation,1,514,,,RelaxSession
1628540921.2,stimulus,2,25,,,PracticeSession
1628540921.7,fixation,2,25,,,PracticeSession
1628540922.36,stimulus,1,515,,,RelaxSession
1628540922.86,fixation,1,515,,,RelaxSession
1628540923.2,stimulus,2,26,,,PracticeSession
1628540923.7,fixation,2,26,,,PracticeSession
1628540924.36,stimulus,1,516,,,RelaxSession
1628540924.86,fixation,1,516,,,RelaxSession
1628540925.2,stimulus,2,27,,,PracticeSession
1628540925.7,fixation,2,27,,,PracticeSession
1628540926.36,stimulus,1,517,,,RelaxSession
1628540926.86,fixation,1,517,,,RelaxSession
1628540927.2,stimulus,2,28,,,PracticeSession
1628540927.7,fixation,2,28,,,PracticeSession
1628540928.36,stimulus,1,518,,,RelaxSession
1628540928.86,fixation,1,518,,,RelaxSession
1628540929.2,stimulus,2,29,,,PracticeSession
1628540929.7,fixation,2,29,,,PracticeSession
1628540930.36,stimulus,1,519,,,RelaxSession
1628540930.86,fixation,1,519,,,RelaxSession
1628540931.2,stimulus,2,30,,,PracticeSession
1628540931.7,fixation,2,30,,,PracticeSession
1628540932.36,stimulus,1,520,,,RelaxSession
1628540932.86,fixation,1,520,,,RelaxSession
1628540933.2,stimulus,2,31,,,PracticeSession
1628540933.7,fixation,2,31,,,PracticeSession
1628540934.36,stimulus,1,521,,,RelaxSession
1628540934.86,fixation,1,521,,,RelaxSession
1628540935.2,stimulus,2,32,,,PracticeSession
1628540935.7,fixation,2,32,,,PracticeSession
1628540936.36,stimulus,1,522,,,RelaxSession
1628540936.86,fixation,1,522,,,RelaxSession
1628540937.2,stimulus,2,33,,,PracticeSession
1628540937.7,fixation,2,33,,,PracticeSession
1628540938.36,stimulus,1,523,,,RelaxSession
1628540938.86,fixation,1,523,,,RelaxSession
1628540939.2,stimulus,2,34,,,PracticeSession
1628540939.7,fixation,2,34,,,PracticeSession
1628540940.36,stimulus,1,524,,,RelaxSession
1628540940.86,fixation,1,524,,,RelaxSession
1628540941.2,stimulus,2,35,,,PracticeSession
1628540941.7,fixation,2,35,,,PracticeSession
1628540942.36,stimulus,1,525,,,RelaxSession
1628540942.86,fixation,1,525,,,RelaxSession
1628540943.2,stimulus,2,36,,,PracticeSession
1628540943.7,fixation,2,36,,,PracticeSession
1628540944.36,stimulus,1,526,,,RelaxSession
1628540944.86,fixation,1,526,,,RelaxSession
1628540945.2,stimulus,2,37,,,PracticeSession
1628540945.7,fixation,2,37,,,PracticeSession
1628540946.36,stimulus,1,527,,,RelaxSession
1628540946.86,fixation,1,527,,,RelaxSession
1628540947.2,stimulus,2,38,,,PracticeSession
1628540947.7,fixation,2,38,,,PracticeSession
1628540948.36,stimulus,1,528,,,RelaxSession
1628540948.86,fixation,1,528,,,RelaxSession
1628540949.2,stimulus,2,39,,,PracticeSession
1628540949.7,fixation,2,39,,,PracticeSession
1628540950.36,stimulus,1,529,,,RelaxSession
1628540950.86,fixation,1,529,,,RelaxSession
1628540951.2,stimulus,2,40,,,PracticeSession
1628540951.7,fixation,2,40,,,PracticeSession
1628540952.36,stimulus,1,530,,,RelaxSession
1628540952.86,fixation,1,530,,,RelaxSession
1628540953.2,stimulus,2,41,,,PracticeSession
1628540953.7,fixation,2,41,,,PracticeSession
1628540954.36,stimulus,1,531,,,RelaxSession
1628540954.86,fixation,1,531,,,RelaxSession
1628540955.2,stimulus,2,42,,,PracticeSession
1628540955.7,fixation,2,42,,,PracticeSession
1628540956.36,stimulus,1,532,,,RelaxSession
1628540956.86,fixation,1,532,,,RelaxSession
1628540957.2,stimulus,2,43,,,PracticeSession
1628540957.7,fixation,2,43,,,PracticeSession
1628540958.36,stimulus,1,533,,,RelaxSession
1628540958.86,fixation,1,533,,,RelaxSession
1628540959.2,stimulus,2,44,,,PracticeSession
1628540959.7,fixation,2,44,,,PracticeSession
1628540960.36,stimulus,1,534,,,RelaxSession
1628540960.86,fixation,1,534,,,RelaxSession
1628540961.2,stimulus,2,45,,,NoMusic
1628540961.7,fixation,2,45,,,NoMusic
1628540962.36,stimulus,1,535,,,RelaxSession
1628540962.86,fixation,1,535,,,RelaxSession
1628540963.2,stimulus,2,46,,,NoMusic
1628540963.7,fixation,2,46,,,NoMusic
1628540964.36,stimulus,1,536,,,RelaxSession
1628540964.86,fixation,1,536,,,RelaxSession
1628540965.2,stimulus,2,47,,,NoMusic
1628540965.7,fixation,2,47,,,NoMusic
1628540966.36,stimulus,1,537,,,RelaxSession
1628540966.86,fixation,1,537,,,RelaxSession
1628540967.2,stimulus,2,48,,,NoMusic
1628540967.7,fixation,2,48,,,NoMusic
1628540968.36,stimulus,1,538,,,RelaxSession
1628540968.86,fixation,1,538,,,RelaxSession
1628540969.2,stimulus,2,49,,,NoMusic
1628540969.7,fixation,2,49,,,NoMusic
1628540970.36,stimulus,1,539,,,RelaxSession
1628540970.86,fixation,1,539,,,RelaxSession
1628540971.2,stimulus,2,50,,,NoMusic
1628540971.7,fixation,2,50,,,NoMusic
1628540972.36,stimulus,1,540,,,RelaxSession
1628540972.86,fixation,1,540,,,RelaxSession
1628540973.2,stimulus,2,51,,,NoMusic
1628540973.7,fixation,2,51,,,NoMusic
1628540974.36,stimulus,1,541,,,RelaxSession
1628540974.86,fixation,1,541,,,RelaxSession
1628540975.2,stimulus,2,52,,,NoMusic
1628540975.7,fixation,2,52,,,NoMusic
1628540976.36,stimulus,1,542,,,RelaxSession
1628540976.86,fixation,1,542,,,RelaxSession
1628540977.2,stimulus,2,53,,,NoMusic
1628540977.7,fixation,2,53,,,NoMusic
1628540978.36,stimulus,1,543,,,RelaxSession
1628540978.86,fixation,1,543,,,RelaxSession
1628540979.2,stimulus,2,54,,,NoMusic
1628540979.7,fixation,2,54,,,NoMusic
1628540980.36,stimulus,1,544,,,RelaxSession
1628540980.86,fixation,1,544,,,RelaxSession
1628540981.2,stimulus,2,55,,,NoMusic
1628540981.7,fixation,2,55,,,NoMusic
1628540982.36,stimulus,1,545,,,RelaxSession
1628540982.86,fixation,1,545,,,RelaxSession
1628540983.2,stimulus,2,56,,,NoMusic
1628540983.7,fixation,2,56,,,NoMusic
1628540984.36,stimulus,1,546,,,RelaxSession
1628540984.86,fixation,1,546,,,RelaxSession
1628540985.2,stimulus,2,57,,,NoMusic
1628540985.7,fixation,2,57,,,NoMusic
1628540986.36,stimulus,1,547,,,RelaxSession
1628540986.86,fixation,1,547,,,RelaxSession
1628540987.2,stimulus,2,58,,,NoMusic
1628540987.7,fixation,2,58,,,NoMusic
1628540988.36,stimulus,1,548,,,RelaxSession
1628540988.86,fixation,1,548,,,RelaxSession
1628540989.2,stimulus,2,59,,,NoMusic
1628540989.7,fixation,2,59,,,NoMusic
1628540990.36,stimulus,1,549,,,RelaxSession
1628540990.86,fixation,1,549,,,RelaxSession
1628540991.2,stimulus,2,60,,,NoMusic
1628540991.7,fixation,2,60,,,NoMusic
1628540992.36,stimulus,1,550,,,RelaxSession
1628540992.86,fixation,1,550,,,RelaxSession
1628540993.2,stimulus,2,61,,,NoMusic
1628540993.7,fixation,2,61,,,NoMusic
1628540994.36,stimulus,1,551,,,RelaxSession
1628540994.86,fixation,1,551,,,RelaxSession
1628540995.2,stimulus,2,62,,,NoMusic
1628540995.7,fixation,2,62,,,NoMusic
1628540996.36,stimulus,1,552,,,RelaxSession
1628540996.86,fixation,1,552,,,RelaxSession
1628540997.2,stimulus,2,63,,,NoMusic
1628540997.7,fixation,2,63,,,NoMusic
1628540998.36,stimulus,1,553,,,RelaxSession
1628540998.86,fixation,1,553,,,RelaxSession
1628540999.2,stimulus,2,64,,,NoMusic
1628540999.7,fixation,2,64,,,NoMusic
1628541000.36,stimulus,1,554,,,RelaxSession
1628541000.86,fixation,1,554,,,RelaxSession
1628541001.2,stimulus,2,65,,,NoMusic
1628541001.7,fixation,2,65,,,NoMusic
1628541002.36,stimulus,1,555,,,RelaxSession
1628541002.86,fixation,1,555,,,RelaxSession
1628541003.2,stimulus,2,66,,,NoMusic
1628541003.7,fixation,2,66,,,NoMusic
1628541004.36,stimulus,1,556,,,RelaxSession
1628541004.86,fixation,1,556,,,RelaxSession
1628541005.2,stimulus,2,67,,,NoMusic
1628541005.7,fixation,2,67,,,NoMusic
1628541006.36,stimulus,1,557,,,RelaxSession
1628541006.86,fixation,1,557,,,RelaxSession
1628541007.2,stimulus,2,68,,,NoMusic
1628541007.7,fixation,2,68,,,NoMusic
1628541008.36,stimulus,1,558,,,RelaxSession
1628541008.86,fixation,1,558,,,RelaxSession
1628541009.2,stimulus,2,69,,,NoMusic
1628541009.7,fixation,2,69,,,NoMusic
1628541010.36,stimulus,1,559,,,RelaxSession
1628541010.86,fixation,1,559,,,RelaxSession
1628541011.2,stimulus,2,70,,,NoMusic
1628541011.7,fixation,2,70,,,NoMusic
1628541012.36,stimulus,1,560,,,RelaxSession
1628541012.86,fixation,1,560,,,RelaxSession
1628541013.2,stimulus,2,71,,,NoMusic
1628541013.7,fixation,2,71,,,NoMusic
1628541014.36,stimulus,1,561,,,RelaxSession
1628541014.86,fixation,1,561,,,RelaxSession
1628541015.2,stimulus,2,72,,,NoMusic
1628541015.7,fixation,2,72,,,NoMusic
1628541016.36,stimulus,1,562,,,RelaxSession
1628541016.86,fixation,1,562,,,RelaxSession
1628541017.2,stimulus,2,73,,,NoMusic
1628541017.7,fixation,2,73,,,NoMusic
1628541018.36,stimulus,1,563,,,RelaxSession
1628541018.86,fixation,1,563,,,RelaxSession
1628541019.2,stimulus,2,74,,,NoMusic
1628541019.7,fixation,2,74,,,NoMusic
1628541020.36,stimulus,1,564,,,RelaxSession
1628541020.86,fixation,1,564,,,RelaxSession
1628541021.2,stimulus,2,75,,,NoMusic
1628541021.7,fixation,2,75,,,NoMusic
1628541022.36,stimulus,1,565,,,RelaxSession
1628541022.86,fixation,1,565,,,RelaxSession
1628541023.2,stimulus,2,76,,,NoMusic
1628541023.7,fixation,2,76,,,NoMusic
1628541024.36,stimulus,1,566,,,RelaxSession
1628541024.86,fixation,1,566,,,RelaxSession
1628541025.2,stimulus,2,77,,,NoMusic
1628541025.7,fixation,2,77,,,NoMusic
1628541026.36,stimulus,1,567,,,RelaxSession
1628541026.86,fixation,1,567,,,RelaxSession
1628541027.2,stimulus,2,78,,,NoMusic
1628541027.7,fixation,2,78,,,NoMusic
1628541028.36,stimulus,1,568,,,RelaxSession
1628541028.86,fixation,1,568,,,RelaxSession
1628541029.2,stimulus,2,79,,,NoMusic
1628541029.7,fixation,2,79,,,NoMusic
1628541030.36,stimulus,1,569,,,RelaxSession
1628541030.86,fixation,1,569,,,RelaxSession
1628541031.2,stimulus,2,80,,,NoMusic
1628541031.7,fixation,2,80,,,NoMusic
1628541032.36,stimulus,1,570,,,RelaxSession
1628541032.86,fixation,1,570,,,RelaxSession
1628541033.2,stimulus,2,81,,,NoMusic
1628541033.7,fixation,2,81,,,NoMusic
1628541034.36,stimulus,1,571,,,RelaxSession
1628541034.86,fixation,1,571,,,RelaxSession
1628541035.2,stimulus,2,82,,,NoMusic
1628541035.7,fixation,2,82,,,NoMusic
1628541036.36,stimulus,1,572,,,RelaxSession
1628541036.86,fixation,1,572,,,RelaxSession
1628541037.2,stimulus,2,83,,,NoMusic
1628541037.7,fixation,2,83,,,NoMusic
1628541038.36,stimulus,1,573,,,RelaxSession
1628541038.86,fixation,1,573,,,RelaxSession
1628541039.2,stimulus,2,84,,,NoMusic
1628541039.7,fixation,2,84,,,NoMusic
1628541040.36,stimulus,1,574,,,RelaxSession
1628541040.86,fixation,1,574,,,RelaxSession
1628541041.2,stimulus,2,85,,,NoMusic
1628541041.7,fixation,2,85,,,NoMusic
1628541042.36,stimulus,1,575,,,RelaxSession
1628541042.86,fixation,1,575,,,RelaxSession
1628541043.2,stimulus,2,86,,,NoMusic
1628541043.7,fixation,2,86,,,NoMusic
1628541044.36,stimulus,1,576,,,RelaxSession
1628541044.86,fixation,1,576,,,RelaxSession
1628541045.2,stimulus,2,87,,,NoMusic
1628541045.7,fixation,2,87,,,NoMusic
1628541046.36,stimulus,1,577,,,RelaxSession
1628541046.86,fixation,1,577,,,RelaxSession
1628541047.2,stimulus,2,88,,,NoMusic
1628541047.7,fixation,2,88,,,NoMusic
1628541048.36,stimulus,1,578,,,RelaxSession
1628541048.86,fixation,1,578,,,RelaxSession
1628541049.2,stimulus,2,89,,,NoMusic
1628541049.7,fixation,2,89,,,NoMusic
1628541050.36,stimulus,1,579,,,RelaxSession
1628541050.86,fixation,1,579,,,RelaxSession
1628541051.2,stimulus,2,90,,,NoMusic
1628541051.7,fixation,2,90,,,NoMusic
1628541052.36,stimulus,1,580,,,RelaxSession
1628541052.86,fixation,1,580,,,RelaxSession
1628541053.2,stimulus,2,91,,,NoMusic
1628541053.7,fixation,2,91,,,NoMusic
1628541054.36,stimulus,1,581,,,RelaxSession
1628541054.86,fixation,1,581,,,RelaxSession
1628541055.17,stimulus,3,1,,,PracticeSession
1628541055.2,stimulus,2,92,,,NoMusic
1628541055.67,fixation,3,1,,,PracticeSession
1628541055.7,fixation,2,92,,,NoMusic
1628541056.36,stimulus,1,582,,,RelaxSession
1628541056.86,fixation,1,582,,,RelaxSession
1628541057.17,stimulus,3,2,,,PracticeSession
1628541057.2,stimulus,2,93,,,NoMusic
1628541057.67,fixation,3,2,,,PracticeSession
1628541057.7,fixation,2,93,,,NoMusic
1628541058.36,stimulus,1,583,,,RelaxSession
1628541058.86,fixation,1,583,,,RelaxSession
1628541059.17,stimulus,3,3,,,PracticeSession
1628541059.2,stimulus,2,94,,,NoMusic
1628541059.67,fixation,3,3,,,PracticeSession
1628541059.7,fixation,2,94,,,NoMusic
1628541060.36,stimulus,1,584,,,RelaxSession
1628541060.86,fixation,1,584,,,RelaxSession
1628541061.17,stimulus,3,4,,,PracticeSession
1628541061.2,stimulus,2,95,,,NoMusic
1628541061.67,fixation,3,4,,,PracticeSession
1628541061.7,fixation,2,95,,,NoMusic
1628541062.36,stimulus,1,585,,,RelaxSession
1628541062.86,fixation,1,585,,,RelaxSession
1628541063.17,stimulus,3,5,,,PracticeSession
1628541063.2,stimulus,2,96,,,NoMusic
1628541063.67,fixation,3,5,,,PracticeSession
1628541063.7,fixation,2,96,,,NoMusic
1628541064.36,stimulus,1,586,,,RelaxSession
1628541064.86,fixation,1,586,,,RelaxSession
1628541065.17,stimulus,3,6,,,PracticeSession
1628541065.2,stimulus,2,97,,,NoMusic
1628541065.67,fixation,3,6,,,PracticeSession
1628541065.7,fixation,2,97,,,NoMusic
1628541066.36,stimulus,1,587,,,RelaxSession
1628541066.86,fixation,1,587,,,RelaxSession
1628541067.17,stimulus,3,7,,,PracticeSession
1628541067.2,stimulus,2,98,,,NoMusic
1628541067.67,fixation,3,7,,,PracticeSession
1628541067.7,fixation,2,98,,,NoMusic
1628541068.36,stimulus,1,588,,,RelaxSession
1628541068.86,fixation,1,588,,,RelaxSession
1628541069.17,stimulus,3,8,,,PracticeSession
1628541069.2,stimulus,2,99,,,NoMusic
1628541069.67,fixation,3,8,,,PracticeSession
1628541069.7,fixation,2,99,,,NoMusic
1628541070.36,stimulus,1,589,,,RelaxSession
1628541070.86,fixation,1,589,,,RelaxSession
1628541071.17,stimulus,3,9,,,PracticeSession
1628541071.2,stimulus,2,100,,,NoMusic
1628541071.67,fixation,3,9,,,PracticeSession
1628541071.7,fixation,2,100,,,NoMusic
1628541072.36,stimulus,1,590,,,RelaxSession
1628541072.86,fixation,1,590,,,RelaxSession
1628541073.17,stimulus,3,10,,,PracticeSession
1628541073.2,stimulus,2,101,,,NoMusic
1628541073.67,fixation,3,10,,,PracticeSession
1628541073.7,fixation,2,101,,,NoMusic
1628541074.36,stimulus,1,591,,,RelaxSession
1628541074.86,fixation,1,591,,,RelaxSession
1628541075.17,stimulus,3,11,,,PracticeSession
1628541075.2,stimulus,2,102,,,NoMusic
1628541075.67,fixation,3,11,,,PracticeSession
1628541075.7,fixation,2,102,,,NoMusic
1628541076.36,stimulus,1,592,,,RelaxSession
1628541076.86,fixation,1,592,,,RelaxSession
1628541077.17,stimulus,3,12,,,PracticeSession
1628541077.2,stimulus,2,103,,,NoMusic
1628541077.67,fixation,3,12,,,PracticeSession
1628541077.7,fixation,2,103,,,NoMusic
1628541078.36,stimulus,1,593,,,RelaxSession
1628541078.86,fixation,1,593,,,RelaxSession
1628541079.17,stimulus,3,13,,,PracticeSession
1628541079.2,stimulus,2,104,,,NoMusic
1628541079.67,fixation,3,13,,,PracticeSession
1628541079.7,fixation,2,104,,,NoMusic
1628541080.36,stimulus,1,594,,,RelaxSession
1628541080.86,fixation,1,594,,,RelaxSession
1628541081.17,stimulus,3,14,,,PracticeSession
1628541081.2,stimulus,2,105,,,NoMusic
1628541081.67,fixation,3,14,,,PracticeSession
1628541081.7,fixation,2,105,,,NoMusic
1628541082.36,stimulus,1,595,,,RelaxSession
1628541082.86,fixation,1,595,,,RelaxSession
1628541083.17,stimulus,3,15,,,PracticeSession
1628541083.2,stimulus,2,106,,,NoMusic
1628541083.67,fixation,3,15,,,PracticeSession
1628541083.7,fixation,2,106,,,NoMusic
1628541084.36,stimulus,1,596,,,RelaxSession
1628541084.86,fixation,1,596,,,RelaxSession
1628541085.17,stimulus,3,16,,,PracticeSession
1628541085.2,stimulus,2,107,,,NoMusic
1628541085.67,fixation,3,16,,,PracticeSession
1628541085.7,fixation,2,107,,,NoMusic
1628541086.36,stimulus,1,597,,,RelaxSession
1628541086.86,fixation,1,597,,,RelaxSession
1628541087.17,stimulus,3,17,,,PracticeSession
1628541087.2,stimulus,2,108,,,NoMusic
1628541087.67,fixation,3,17,,,PracticeSession
1628541087.7,fixation,2,108,,,NoMusic
1628541088.36,stimulus,1,598,,,RelaxSession
1628541088.86,fixation,1,598,,,RelaxSession
1628541089.17,stimulus,3,18,,,PracticeSession
1628541089.2,stimulus,2,109,,,NoMusic
1628541089.67,fixation,3,18,,,PracticeSession
1628541089.7,fixation,2,109,,,NoMusic
1628541090.36,stimulus,1,599,,,RelaxSession
1628541090.86,fixation,1,599,,,RelaxSession
1628541091.17,stimulus,3,19,,,PracticeSession
1628541091.2,stimulus,2,110,,,NoMusic
1628541091.67,fixation,3,19,,,PracticeSession
1628541091.7,fixation,2,110,,,NoMusic
1628541092.36,stimulus,1,600,,,RelaxSession
1628541092.86,fixation,1,600,,,RelaxSession
1628541093.17,stimulus,3,20,,,PracticeSession
1628541093.2,stimulus,2,111,,,NoMusic
1628541093.67,fixation,3,20,,,PracticeSession
1628541093.7,fixation,2,111,,,NoMusic
1628541094.36,stimulus,1,601,,,RelaxSession
1628541094.86,fixation,1,601,,,RelaxSession
1628541095.17,stimulus,3,21,,,PracticeSession
1628541095.2,stimulus,2,112,,,NoMusic
1628541095.67,fixation,3,21,,,PracticeSession
1628541095.7,fixation,2,112,,,NoMusic
1628541096.36,stimulus,1,602,,,RelaxSession
1628541096.86,fixation,1,602,,,RelaxSession
1628541097.17,stimulus,3,22,,,PracticeSession
1628541097.2,stimulus,2,113,,,NoMusic
1628541097.67,fixation,3,22,,,PracticeSession
1628541097.7,fixation,2,113,,,NoMusic
1628541098.36,stimulus,1,603,,,RelaxSession
1628541098.86,fixation,1,603,,,RelaxSession
1628541099.17,stimulus,3,23,,,PracticeSession
1628541099.2,stimulus,2,114,,,NoMusic
1628541099.67,fixation,3,23,,,PracticeSession
1628541099.7,fixation,2,114,,,NoMusic
1628541100.36,stimulus,1,604,,,RelaxSession
1628541100.86,fixation,1,604,,,RelaxSession
1628541101.17,stimulus,3,24,,,PracticeSession
1628541101.2,stimulus,2,115,,,NoMusic
1628541101.67,fixation,3,24,,,PracticeSession
1628541101.7,fixation,2,115,,,NoMusic
1628541102.36,stimulus,1,605,,,RelaxSession
1628541102.86,fixation,1,605,,,RelaxSession
1628541103.17,stimulus,3,25,,,PracticeSession
1628541103.2,stimulus,2,116,,,NoMusic
1628541103.67,fixation,3,25,,,PracticeSession
1628541103.7,fixation,2,116,,,NoMusic
1628541104.36,stimulus,1,606,,,RelaxSession
1628541104.86,fixation,1,606,,,RelaxSession
1628541105.17,stimulus,3,26,,,PracticeSession
1628541105.2,stimulus,2,117,,,NoMusic
1628541105.67,fixation,3,26,,,PracticeSession
1628541105.7,fixation,2,117,,,NoMusic
1628541106.36,stimulus,1,607,,,RelaxSession
1628541106.86,fixation,1,607,,,RelaxSession
1628541107.17,stimulus,3,27,,,PracticeSession
1628541107.2,stimulus,2,118,,,NoMusic
1628541107.67,fixation,3,27,,,PracticeSession
1628541107.7,fixation,2,118,,,NoMusic
1628541108.36,stimulus,1,608,,,RelaxSession
1628541108.86,fixation,1,608,,,RelaxSession
1628541109.17,stimulus,3,28,,,PracticeSession
1628541109.2,stimulus,2,119,,,NoMusic
1628541109.67,fixation,3,28,,,PracticeSession
1628541109.7,fixation,2,119,,,NoMusic
1628541110.36,stimulus,1,609,,,RelaxSession
1628541110.86,fixation,1,609,,,RelaxSession
1628541111.17,stimulus,3,29,,,PracticeSession
1628541111.2,stimulus,2,120,,,NoMusic
1628541111.67,fixation,3,29,,,PracticeSession
1628541111.7,fixation,2,120,,,NoMusic
1628541112.36,stimulus,1,610,,,RelaxSession
1628541112.86,fixation,1,610,,,RelaxSession
1628541113.17,stimulus,3,30,,,PracticeSession
1628541113.2,stimulus,2,121,,,NoMusic
1628541113.67,fixation,3,30,,,PracticeSession
1628541113.7,fixation,2,121,,,NoMusic
1628541114.36,stimulus,1,611,,,RelaxSession
1628541114.86,fixation,1,611,,,RelaxSession
1628541115.17,stimulus,3,31,,,PracticeSession
1628541115.2,stimulus,2,122,,,NoMusic
1628541115.67,fixation,3,31,,,PracticeSession
1628541115.7,fixation,2,122,,,NoMusic
1628541116.36,stimulus,1,612,,,RelaxSession
1628541116.86,fixation,1,612,,,RelaxSession
1628541117.17,stimulus,3,32,,,PracticeSession
1628541117.2,stimulus,2,123,,,NoMusic
1628541117.67,fixation,3,32,,,PracticeSession
1628541117.7,fixation,2,123,,,NoMusic
1628541118.36,stimulus,1,613,,,RelaxSession
1628541118.86,fixation,1,613,,,RelaxSession
1628541119.17,stimulus,3,33,,,PracticeSession
1628541119.2,stimulus,2,124,,,NoMusic
1628541119.67,fixation,3,33,,,PracticeSession
1628541119.7,fixation,2,124,,,NoMusic
1628541120.36,stimulus,1,614,,,RelaxSession
1628541120.86,fixation,1,614,,,RelaxSession
1628541121.17,stimulus,3,34,,,PracticeSession
1628541121.2,stimulus,2,125,,,NoMusic
1628541121.67,fixation,3,34,,,PracticeSession
1628541121.7,fixation,2,125,,,NoMusic
1628541122.36,stimulus,1,615,,,RelaxSession
1628541122.86,fixation,1,615,,,RelaxSession
1628541123.17,stimulus,3,35,,,PracticeSession
1628541123.2,stimulus,2,126,,,NoMusic
1628541123.67,fixation,3,35,,,PracticeSession
1628541123.7,fixation,2,126,,,NoMusic
1628541124.36,stimulus,1,616,,,RelaxSession
1628541124.86,fixation,1,616,,,RelaxSession
1628541125.17,stimulus,3,36,,,PracticeSession
1628541125.2,stimulus,2,127,,,NoMusic
1628541125.67,fixation,3,36,,,PracticeSession
1628541125.7,fixation,2,127,,,NoMusic
1628541126.36,stimulus,1,617,,,RelaxSession
1628541126.86,fixation,1,617,,,RelaxSession
1628541127.17,stimulus,3,37,,,PracticeSession
1628541127.2,stimulus,2,128,,,NoMusic
1628541127.67,fixation,3,37,,,PracticeSession
1628541127.7,fixation,2,128,,,NoMusic
1628541128.36,stimulus,1,618,,,RelaxSession
1628541128.86,fixation,1,618,,,RelaxSession
1628541129.17,stimulus,3,38,,,PracticeSession
1628541129.2,stimulus,2,129,,,NoMusic
1628541129.67,fixation,3,38,,,PracticeSession
1628541129.7,fixation,2,129,,,NoMusic
1628541130.36,stimulus,1,619,,,RelaxSession
1628541130.86,fixation,1,619,,,RelaxSession
1628541131.17,stimulus,3,39,,,PracticeSession
1628541131.2,stimulus,2,130,,,NoMusic
1628541131.67,fixation,3,39,,,PracticeSession
1628541131.7,fixation,2,130,,,NoMusic
1628541132.36,stimulus,1,620,,,RelaxSession
1628541132.86,fixation,1,620,,,RelaxSession
1628541133.17,stimulus,3,40,,,PracticeSession
1628541133.2,stimulus,2,131,,,NoMusic
1628541133.67,fixation,3,40,,,PracticeSession
1628541133.7,fixation,2,131,,,NoMusic
1628541134.36,stimulus,1,621,,,RelaxSession
1628541134.86,fixation,1,621,,,RelaxSession
1628541135.17,stimulus,3,41,,,PracticeSession
1628541135.2,stimulus,2,132,,,NoMusic
1628541135.67,fixation,3,41,,,PracticeSession
1628541135.7,fixation,2,132,,,NoMusic
1628541136.36,stimulus,1,622,,,RelaxSession
1628541136.86,fixation,1,622,,,RelaxSession
1628541137.17,stimulus,3,42,,,PracticeSession
1628541137.2,stimulus,2,133,,,NoMusic
1628541137.67,fixation,3,42,,,PracticeSession
1628541137.7,fixation,2,133,,,NoMusic
1628541138.36,stimulus,1,623,,,RelaxSession
1628541138.86,fixation,1,623,,,RelaxSession
1628541139.17,stimulus,3,43,,,PracticeSession
1628541139.2,stimulus,2,134,,,NoMusic
1628541139.67,fixation,3,43,,,PracticeSession
1628541139.7,fixation,2,134,,,NoMusic
1628541140.36,stimulus,1,624,,,RelaxSession
1628541140.86,fixation,1,624,,,RelaxSession
1628541141.17,stimulus,3,44,,,PracticeSession
1628541141.2,stimulus,2,135,,,NoMusic
1628541141.67,fixation,3,44,,,PracticeSession
1628541141.7,fixation,2,135,,,NoMusic
1628541142.36,stimulus,1,625,,,RelaxSession
1628541142.86,fixation,1,625,,,RelaxSession
1628541143.17,stimulus,3,45,,,NoMusic
1628541143.2,stimulus,2,136,,,NoMusic
1628541143.67,fixation,3,45,,,NoMusic
1628541143.7,fixation,2,136,,,NoMusic
1628541144.36,stimulus,1,626,,,RelaxSession
1628541144.86,fixation,1,626,,,RelaxSession
1628541145.17,stimulus,3,46,,,NoMusic
1628541145.2,stimulus,2,137,,,NoMusic
1628541145.67,fixation,3,46,,,NoMusic
1628541145.7,fixation,2,137,,,NoMusic
1628541146.36,stimulus,1,627,,,RelaxSession
1628541146.86,fixation,1,627,,,RelaxSession
1628541147.17,stimulus,3,47,,,NoMusic
1628541147.2,stimulus,2,138,,,NoMusic
1628541147.67,fixation,3,47,,,NoMusic
1628541147.7,fixation,2,138,,,NoMusic
1628541148.36,stimulus,1,628,,,RelaxSession
1628541148.86,fixation,1,628,,,RelaxSession
1628541149.17,stimulus,3,48,,,NoMusic
1628541149.2,stimulus,2,139,,,NoMusic
1628541149.67,fixation,3,48,,,NoMusic
1628541149.7,fixation,2,139,,,NoMusic
1628541150.36,stimulus,1,629,,,RelaxSession
1628541150.86,fixation,1,629,,,RelaxSession
1628541151.17,stimulus,3,49,,,NoMusic
1628541151.2,stimulus,2,140,,,NoMusic
1628541151.67,fixation,3,49,,,NoMusic
1628541151.7,fixation,2,140,,,NoMusic
1628541152.36,stimulus,1,630,,,RelaxSession
1628541152.86,fixation,1,630,,,RelaxSession
1628541153.17,stimulus,3,50,,,NoMusic
1628541153.2,stimulus,2,141,,,NoMusic
1628541153.67,fixation,3,50,,,NoMusic
1628541153.7,fixation,2,141,,,NoMusic
1628541154.36,stimulus,1,631,,,RelaxSession
1628541154.86,fixation,1,631,,,RelaxSession
1628541155.17,stimulus,3,51,,,NoMusic
1628541155.2,stimulus,2,142,,,NoMusic
1628541155.67,fixation,3,51,,,NoMusic
1628541155.7,fixation,2,142,,,NoMusic
1628541156.36,stimulus,1,632,,,RelaxSession
1628541156.86,fixation,1,632,,,RelaxSession
1628541157.17,stimulus,3,52,,,NoMusic
1628541157.2,stimulus,2,143,,,NoMusic
1628541157.67,fixation,3,52,,,NoMusic
1628541157.7,fixation,2,143,,,NoMusic
1628541158.36,stimulus,1,633,,,RelaxSession
1628541158.86,fixation,1,633,,,RelaxSession
1628541159.17,stimulus,3,53,,,NoMusic
1628541159.2,stimulus,2,144,,,NoMusic
1628541159.67,fixation,3,53,,,NoMusic
1628541159.7,fixation,2,144,,,NoMusic
1628541160.36,stimulus,1,634,,,RelaxSession
1628541160.86,fixation,1,634,,,RelaxSession
1628541161.17,stimulus,3,54,,,NoMusic
1628541161.2,stimulus,2,145,,,NoMusic
1628541161.67,fixation,3,54,,,NoMusic
1628541161.7,fixation,2,145,,,NoMusic
1628541162.36,stimulus,1,635,,,RelaxSession
1628541162.86,fixation,1,635,,,RelaxSession
1628541163.17,stimulus,3,55,,,NoMusic
1628541163.2,stimulus,2,146,,,NoMusic
1628541163.67,fixation,3,55,,,NoMusic
1628541163.7,fixation,2,146,,,NoMusic
1628541164.36,stimulus,1,636,,,RelaxSession
1628541164.86,fixation,1,636,,,RelaxSession
1628541165.17,stimulus,3,56,,,NoMusic
1628541165.2,stimulus,2,147,,,NoMusic
1628541165.67,fixation,3,56,,,NoMusic
1628541165.7,fixation,2,147,,,NoMusic
1628541166.36,stimulus,1,637,,,RelaxSession
1628541166.86,fixation,1,637,,,RelaxSession
1628541167.17,stimulus,3,57,,,NoMusic
1628541167.2,stimulus,2,148,,,NoMusic
1628541167.67,fixation,3,57,,,NoMusic
1628541167.7,fixation,2,148,,,NoMusic
1628541168.36,stimulus,1,638,,,RelaxSession
1628541168.86,fixation,1,638,,,RelaxSession
1628541169.17,stimulus,3,58,,,NoMusic
1628541169.2,stimulus,2,149,,,NoMusic
1628541169.67,fixation,3,58,,,NoMusic
1628541169.7,fixation,2,149,,,NoMusic
1628541170.36,stimulus,1,639,,,RelaxSession
1628541170.86,fixation,1,639,,,RelaxSession
1628541171.17,stimulus,3,59,,,NoMusic
1628541171.2,stimulus,2,150,,,NoMusic
1628541171.67,fixation,3,59,,,NoMusic
1628541171.7,fixation,2,150,,,NoMusic
1628541172.36,stimulus,1,640,,,RelaxSession
1628541172.86,fixation,1,640,,,RelaxSession
1628541173.17,stimulus,3,60,,,NoMusic
1628541173.2,stimulus,2,151,,,NoMusic
1628541173.67,fixation,3,60,,,NoMusic
1628541173.7,fixation,2,151,,,NoMusic
1628541174.36,stimulus,1,641,,,RelaxSession
1628541174.86,fixation,1,641,,,RelaxSession
1628541175.17,stimulus,3,61,,,NoMusic
1628541175.2,stimulus,2,152,,,NoMusic
1628541175.67,fixation,3,61,,,NoMusic
1628541175.7,fixation,2,152,,,NoMusic
1628541176.36,stimulus,1,642,,,RelaxSession
1628541176.86,fixation,1,642,,,RelaxSession
1628541177.17,stimulus,3,62,,,NoMusic
1628541177.2,stimulus,2,153,,,NoMusic
1628541177.67,fixation,3,62,,,NoMusic
1628541177.7,fixation,2,153,,,NoMusic
1628541178.36,stimulus,1,643,,,RelaxSession
1628541178.86,fixation,1,643,,,RelaxSession
1628541179.17,stimulus,3,63,,,NoMusic
1628541179.2,stimulus,2,154,,,NoMusic
1628541179.67,fixation,3,63,,,NoMusic
1628541179.7,fixation,2,154,,,NoMusic
1628541180.36,stimulus,1,644,,,RelaxSession
1628541180.86,fixation,1,644,,,RelaxSession
1628541181.17,stimulus,3,64,,,NoMusic
1628541181.2,stimulus,2,155,,,NoMusic
1628541181.67,fixation,3,64,,,NoMusic
1628541181.7,fixation,2,155,,,NoMusic
1628541182.36,stimulus,1,645,,,RelaxSession
1628541182.86,fixation,1,645,,,RelaxSession
1628541183.17,stimulus,3,65,,,NoMusic
1628541183.2,stimulus,2,156,,,NoMusic
1628541183.67,fixation,3,65,,,NoMusic
1628541183.7,fixation,2,156,,,NoMusic
1628541184.36,stimulus,1,646,,,RelaxSession
1628541184.86,fixation,1,646,,,RelaxSession
1628541185.17,stimulus,3,66,,,NoMusic
1628541185.2,stimulus,2,157,,,NoMusic
1628541185.67,fixation,3,66,,,NoMusic
1628541185.7,fixation,2,157,,,NoMusic
1628541186.36,stimulus,1,647,,,RelaxSession
1628541186.86,fixation,1,647,,,RelaxSession
1628541187.17,stimulus,3,67,,,NoMusic
1628541187.2,stimulus,2,158,,,NoMusic
1628541187.67,fixation,3,67,,,NoMusic
1628541187.7,fixation,2,158,,,NoMusic
1628541188.36,stimulus,1,648,,,RelaxSession
1628541188.86,fixation,1,648,,,RelaxSession
1628541189.17,stimulus,3,68,,,NoMusic
1628541189.2,stimulus,2,159,,,NoMusic
1628541189.67,fixation,3,68,,,NoMusic
1628541189.7,fixation,2,159,,,NoMusic
1628541190.36,stimulus,1,649,,,RelaxSession
1628541190.86,fixation,1,649,,,RelaxSession
1628541191.17,stimulus,3,69,,,NoMusic
1628541191.2,stimulus,2,160,,,NoMusic
1628541191.67,fixation,3,69,,,NoMusic
1628541191.7,fixation,2,160,,,NoMusic
1628541192.36,stimulus,1,650,,,RelaxSession
1628541192.86,fixation,1,650,,,RelaxSession
1628541193.17,stimulus,3,70,,,NoMusic
1628541193.2,stimulus,2,161,,,NoMusic
1628541193.67,fixation,3,70,,,NoMusic
1628541193.7,fixation,2,161,,,NoMusic
1628541194.36,stimulus,1,651,,,RelaxSession
1628541194.86,fixation,1,651,,,RelaxSession
1628541195.17,stimulus,3,71,,,NoMusic
1628541195.2,stimulus,2,162,,,NoMusic
1628541195.67,fixation,3,71,,,NoMusic
1628541195.7,fixation,2,162,,,NoMusic
1628541196.36,stimulus,1,652,,,RelaxSession
1628541196.86,fixation,1,652,,,RelaxSession
1628541197.17,stimulus,3,72,,,NoMusic
1628541197.2,stimulus,2,163,,,NoMusic
1628541197.67,fixation,3,72,,,NoMusic
1628541197.7,fixation,2,163,,,NoMusic
1628541198.36,stimulus,1,653,,,RelaxSession
1628541198.86,fixation,1,653,,,RelaxSession
1628541199.17,stimulus,3,73,,,NoMusic
1628541199.2,stimulus,2,164,,,NoMusic
1628541199.67,fixation,3,73,,,NoMusic
1628541199.7,fixation,2,164,,,NoMusic
1628541200.36,stimulus,1,654,,,RelaxSession
1628541200.86,fixation,1,654,,,RelaxSession
1628541201.17,stimulus,3,74,,,NoMusic
1628541201.2,stimulus,2,165,,,NoMusic
1628541201.67,fixation,3,74,,,NoMusic
1628541201.7,fixation,2,165,,,NoMusic
1628541202.36,stimulus,1,655,,,RelaxSession
1628541202.86,fixation,1,655,,,RelaxSession
1628541203.17,stimulus,3,75,,,NoMusic
1628541203.2,stimulus,2,166,,,NoMusic
1628541203.67,fixation,3,75,,,NoMusic
1628541203.7,fixation,2,166,,,NoMusic
1628541204.36,stimulus,1,656,,,RelaxSession
1628541204.86,fixation,1,656,,,RelaxSession
1628541205.17,stimulus,3,76,,,NoMusic
1628541205.2,stimulus,2,167,,,NoMusic
1628541205.67,fixation,3,76,,,NoMusic
1628541205.7,fixation,2,167,,,NoMusic
1628541206.36,stimulus,1,657,,,RelaxSession
1628541206.86,fixation,1,657,,,RelaxSession
1628541207.17,stimulus,3,77,,,NoMusic
1628541207.2,stimulus,2,168,,,NoMusic
1628541207.67,fixation,3,77,,,NoMusic
1628541207.7,fixation,2,168,,,NoMusic
1628541208.36,stimulus,1,658,,,RelaxSession
1628541208.86,fixation,1,658,,,RelaxSession
1628541209.17,stimulus,3,78,,,NoMusic
1628541209.2,stimulus,2,169,,,NoMusic
1628541209.67,fixation,3,78,,,NoMusic
1628541209.7,fixation,2,169,,,NoMusic
1628541210.36,stimulus,1,659,,,RelaxSession
1628541210.86,fixation,1,659,,,RelaxSession
1628541211.17,stimulus,3,79,,,NoMusic
1628541211.2,stimulus,2,170,,,NoMusic
1628541211.67,fixation,3,79,,,NoMusic
1628541211.7,fixation,2,170,,,NoMusic
1628541212.36,stimulus,1,660,,,RelaxSession
1628541212.86,fixation,1,660,,,RelaxSession
1628541213.17,stimulus,3,80,,,NoMusic
1628541213.2,stimulus,2,171,,,NoMusic
1628541213.67,fixation,3,80,,,NoMusic
1628541213.7,fixation,2,171,,,NoMusic
1628541214.36,stimulus,1,661,,,RelaxSession
1628541214.86,fixation,1,661,,,RelaxSession
1628541215.17,stimulus,3,81,,,NoMusic
1628541215.2,stimulus,2,172,,,NoMusic
1628541215.67,fixation,3,81,,,NoMusic
1628541215.7,fixation,2,172,,,NoMusic
1628541216.36,stimulus,1,662,,,RelaxSession
1628541216.86,fixation,1,662,,,RelaxSession
1628541217.17,stimulus,3,82,,,NoMusic
1628541217.2,stimulus,2,173,,,NoMusic
1628541217.67,fixation,3,82,,,NoMusic
1628541217.7,fixation,2,173,,,NoMusic
1628541218.36,stimulus,1,663,,,RelaxSession
1628541218.86,fixation,1,663,,,RelaxSession
1628541219.17,stimulus,3,83,,,NoMusic
1628541219.2,stimulus,2,174,,,NoMusic
1628541219.67,fixation,3,83,,,NoMusic
1628541219.7,fixation,2,174,,,NoMusic
1628541220.36,stimulus,1,664,,,RelaxSession
1628541220.86,fixation,1,664,,,RelaxSession
1628541221.17,stimulus,3,84,,,NoMusic
1628541221.2,stimulus,2,175,,,NoMusic
1628541221.67,fixation,3,84,,,NoMusic
1628541221.7,fixation,2,175,,,NoMusic
1628541222.36,stimulus,1,665,,,RelaxSession
1628541222.86,fixation,1,665,,,RelaxSession
1628541223.17,stimulus,3,85,,,NoMusic
1628541223.2,stimulus,2,176,,,NoMusic
1628541223.67,fixation,3,85,,,NoMusic
1628541223.7,fixation,2,176,,,NoMusic
1628541224.36,stimulus,1,666,,,RelaxSession
1628541224.86,fixation,1,666,,,RelaxSession
1628541225.17,stimulus,3,86,,,NoMusic
1628541225.2,stimulus,2,177,,,NoMusic
1628541225.67,fixation,3,86,,,NoMusic
1628541225.7,fixation,2,177,,,NoMusic
1628541226.36,stimulus,1,667,,,RelaxSession
1628541226.86,fixation,1,667,,,RelaxSession
1628541227.17,stimulus,3,87,,,NoMusic
1628541227.2,stimulus,2,178,,,NoMusic
1628541227.67,fixation,3,87,,,NoMusic
1628541227.7,fixation,2,178,,,NoMusic
1628541228.36,stimulus,1,668,,,RelaxSession
1628541228.86,fixation,1,668,,,RelaxSession
1628541229.17,stimulus,3,88,,,NoMusic
1628541229.2,stimulus,2,179,,,NoMusic
1628541229.67,fixation,3,88,,,NoMusic
1628541229.7,fixation,2,179,,,NoMusic
1628541230.36,stimulus,1,669,,,RelaxSession
1628541230.86,fixation,1,669,,,RelaxSession
1628541231.17,stimulus,3,89,,,NoMusic
1628541231.2,stimulus,2,180,,,NoMusic
1628541231.67,fixation,3,89,,,NoMusic
1628541231.7,fixation,2,180,,,NoMusic
1628541232.36,stimulus,1,670,,,RelaxSession
1628541232.86,fixation,1,670,,,RelaxSession
1628541233.17,stimulus,3,90,,,NoMusic
1628541233.2,stimulus,2,181,,,NoMusic
1628541233.67,fixation,3,90,,,NoMusic
1628541233.7,fixation,2,181,,,NoMusic
1628541234.36,stimulus,1,671,,,RelaxSession
1628541234.86,fixation,1,671,,,RelaxSession
1628541235.17,stimulus,3,91,,,NoMusic
1628541235.2,stimulus,2,182,,,NoMusic
1628541235.67,fixation,3,91,,,NoMusic
1628541235.7,fixation,2,182,,,NoMusic
1628541236.36,stimulus,1,672,,,RelaxSession
1628541236.86,fixation,1,672,,,RelaxSession
1628541237.17,stimulus,3,92,,,NoMusic
1628541237.2,stimulus,2,183,,,NoMusic
1628541237.67,fixation,3,92,,,NoMusic
1628541237.7,fixation,2,183,,,NoMusic
1628541238.36,stimulus,1,673,,,RelaxSession
1628541238.86,fixation,1,673,,,RelaxSession
1628541239.17,stimulus,3,93,,,NoMusic
1628541239.2,stimulus,2,184,,,NoMusic
1628541239.67,fixation,3,93,,,NoMusic
1628541239.7,fixation,2,184,,,NoMusic
1628541240.36,stimulus,1,674,,,RelaxSession
1628541240.86,fixation,1,674,,,RelaxSession
1628541241.17,stimulus,3,94,,,NoMusic
1628541241.2,stimulus,2,185,,,NoMusic
1628541241.67,fixation,3,94,,,NoMusic
1628541241.7,fixation,2,185,,,NoMusic
1628541242.36,stimulus,1,675,,,RelaxSession
1628541242.86,fixation,1,675,,,RelaxSession
1628541243.17,stimulus,3,95,,,NoMusic
1628541243.2,stimulus,2,186,,,NoMusic
1628541243.67,fixation,3,95,,,NoMusic
1628541243.7,fixation,2,186,,,NoMusic
1628541244.36,stimulus,1,676,,,RelaxSession
1628541244.86,fixation,1,676,,,RelaxSession
1628541245.17,stimulus,3,96,,,NoMusic
1628541245.2,stimulus,2,187,,,NoMusic
1628541245.67,fixation,3,96,,,NoMusic
1628541245.7,fixation,2,187,,,NoMusic
1628541246.36,stimulus,1,677,,,RelaxSession
1628541246.86,fixation,1,677,,,RelaxSession
1628541247.17,stimulus,3,97,,,NoMusic
1628541247.2,stimulus,2,188,,,NoMusic
1628541247.67,fixation,3,97,,,NoMusic
1628541247.7,fixation,2,188,,,NoMusic
1628541248.36,stimulus,1,678,,,RelaxSession
1628541248.86,fixation,1,678,,,RelaxSession
1628541249.17,stimulus,3,98,,,NoMusic
1628541249.2,stimulus,2,189,,,NoMusic
1628541249.67,fixation,3,98,,,NoMusic
1628541249.7,fixation,2,189,,,NoMusic
1628541250.36,stimulus,1,679,,,RelaxSession
1628541250.86,fixation,1,679,,,RelaxSession
1628541251.17,stimulus,3,99,,,NoMusic
1628541251.2,stimulus,2,190,,,NoMusic
1628541251.67,fixation,3,99,,,NoMusic
1628541251.7,fixation,2,190,,,NoMusic
1628541252.36,stimulus,1,680,,,RelaxSession
1628541252.86,fixation,1,680,,,RelaxSession
1628541253.17,stimulus,3,100,,,NoMusic
1628541253.2,stimulus,2,191,,,NoMusic
1628541253.67,fixation,3,100,,,NoMusic
1628541253.7,fixation,2,191,,,NoMusic
1628541254.36,stimulus,1,681,,,RelaxSession
1628541254.86,fixation,1,681,,,RelaxSession
1628541255.17,stimulus,3,101,,,NoMusic
1628541255.2,stimulus,2,192,,,NoMusic
1628541255.67,fixation,3,101,,,NoMusic
1628541255.7,fixation,2,192,,,NoMusic
1628541256.36,stimulus,1,682,,,RelaxSession
1628541256.86,fixation,1,682,,,RelaxSession
1628541257.17,stimulus,3,102,,,NoMusic
1628541257.2,stimulus,2,193,,,NoMusic
1628541257.67,fixation,3,102,,,NoMusic
1628541257.7,fixation,2,193,,,NoMusic
1628541258.36,stimulus,1,683,,,RelaxSession
1628541258.86,fixation,1,683,,,RelaxSession
1628541259.17,stimulus,3,103,,,NoMusic
1628541259.2,stimulus,2,194,,,NoMusic
1628541259.67,fixation,3,103,,,NoMusic
1628541259.7,fixation,2,194,,,NoMusic
1628541260.36,stimulus,1,684,,,RelaxSession
1628541260.86,fixation,1,684,,,RelaxSession
1628541261.17,stimulus,3,104,,,NoMusic
1628541261.2,stimulus,2,195,,,NoMusic
1628541261.67,fixation,3,104,,,NoMusic
1628541261.7,fixation,2,195,,,NoMusic
1628541262.36,stimulus,1,685,,,RelaxSession
1628541262.86,fixation,1,685,,,RelaxSession
1628541263.17,stimulus,3,105,,,NoMusic
1628541263.2,stimulus,2,196,,,NoMusic
1628541263.67,fixation,3,105,,,NoMusic
1628541263.7,fixation,2,196,,,NoMusic
1628541264.36,stimulus,1,686,,,RelaxSession
1628541264.86,fixation,1,686,,,RelaxSession
1628541265.17,stimulus,3,106,,,NoMusic
1628541265.2,stimulus,2,197,,,NoMusic
1628541265.67,fixation,3,106,,,NoMusic
1628541265.7,fixation,2,197,,,NoMusic
1628541266.36,stimulus,1,687,,,RelaxSession
1628541266.86,fixation,1,687,,,RelaxSession
1628541267.17,stimulus,3,107,,,NoMusic
1628541267.2,stimulus,2,198,,,NoMusic
1628541267.67,fixation,3,107,,,NoMusic
1628541267.7,fixation,2,198,,,NoMusic
1628541268.36,stimulus,1,688,,,RelaxSession
1628541268.86,fixation,1,688,,,RelaxSession
1628541269.17,stimulus,3,108,,,NoMusic
1628541269.2,stimulus,2,199,,,NoMusic
1628541269.67,fixation,3,108,,,NoMusic
1628541269.7,fixation,2,199,,,NoMusic
1628541270.36,stimulus,1,689,,,RelaxSession
1628541270.86,fixation,1,689,,,RelaxSession
1628541271.17,stimulus,3,109,,,NoMusic
1628541271.2,stimulus,2,200,,,NoMusic
1628541271.67,fixation,3,109,,,NoMusic
1628541271.7,fixation,2,200,,,NoMusic
1628541272.36,stimulus,1,690,,,RelaxSession
1628541272.86,fixation,1,690,,,RelaxSession
1628541273.17,stimulus,3,110,,,NoMusic
1628541273.2,stimulus,2,201,,,NoMusic
1628541273.67,fixation,3,110,,,NoMusic
1628541273.7,fixation,2,201,,,NoMusic
1628541274.36,stimulus,1,691,,,RelaxSession
1628541274.86,fixation,1,691,,,RelaxSession
1628541275.17,stimulus,3,111,,,NoMusic
1628541275.2,stimulus,2,202,,,NoMusic
1628541275.67,fixation,3,111,,,NoMusic
1628541275.7,fixation,2,202,,,NoMusic
1628541276.36,stimulus,1,692,,,RelaxSession
1628541276.86,fixation,1,692,,,RelaxSession
1628541277.17,stimulus,3,112,,,NoMusic
1628541277.2,stimulus,2,203,,,NoMusic
1628541277.67,fixation,3,112,,,NoMusic
1628541277.7,fixation,2,203,,,NoMusic
1628541278.36,stimulus,1,693,,,RelaxSession
1628541278.86,fixation,1,693,,,RelaxSession
1628541279.17,stimulus,3,113,,,NoMusic
1628541279.2,stimulus,2,204,,,NoMusic
1628541279.67,fixation,3,113,,,NoMusic
1628541279.7,fixation,2,204,,,NoMusic
1628541280.36,stimulus,1,694,,,RelaxSession
1628541280.86,fixation,1,694,,,RelaxSession
1628541281.17,stimulus,3,114,,,NoMusic
1628541281.2,stimulus,2,205,,,NoMusic
1628541281.67,fixation,3,114,,,NoMusic
1628541281.7,fixation,2,205,,,NoMusic
1628541282.36,stimulus,1,695,,,RelaxSession
1628541282.86,fixation,1,695,,,RelaxSession
1628541283.17,stimulus,3,115,,,NoMusic
1628541283.2,stimulus,2,206,,,NoMusic
1628541283.67,fixation,3,115,,,NoMusic
1628541283.7,fixation,2,206,,,NoMusic
1628541284.36,stimulus,1,696,,,RelaxSession
1628541284.86,fixation,1,696,,,RelaxSession
1628541285.17,stimulus,3,116,,,NoMusic
1628541285.2,stimulus,2,207,,,NoMusic
1628541285.67,fixation,3,116,,,NoMusic
1628541285.7,fixation,2,207,,,NoMusic
1628541286.36,stimulus,1,697,,,RelaxSession
1628541286.86,fixation,1,697,,,RelaxSession
1628541287.17,stimulus,3,117,,,NoMusic
1628541287.2,stimulus,2,208,,,NoMusic
1628541287.67,fixation,3,117,,,NoMusic
1628541287.7,fixation,2,208,,,NoMusic
1628541288.36,stimulus,1,698,,,RelaxSession
1628541288.86,fixation,1,698,,,RelaxSession
1628541289.17,stimulus,3,118,,,NoMusic
1628541289.2,stimulus,2,209,,,NoMusic
1628541289.67,fixation,3,118,,,NoMusic
1628541289.7,fixation,2,209,,,NoMusic
1628541290.36,stimulus,1,699,,,RelaxSession
1628541290.86,fixation,1,699,,,RelaxSession
1628541291.17,stimulus,3,119,,,NoMusic
1628541291.2,stimulus,2,210,,,NoMusic
1628541291.67,fixation,3,119,,,NoMusic
1628541291.7,fixation,2,210,,,NoMusic
1628541292.36,stimulus,1,700,,,RelaxSession
1628541292.86,fixation,1,700,,,RelaxSession
1628541293.17,stimulus,3,120,,,NoMusic
1628541293.2,stimulus,2,211,,,NoMusic
1628541293.67,fixation,3,120,,,NoMusic
1628541293.7,fixation,2,211,,,NoMusic
1628541294.36,stimulus,1,701,,,RelaxSession
1628541294.86,fixation,1,701,,,RelaxSession
1628541295.17,stimulus,3,121,,,NoMusic
1628541295.2,stimulus,2,212,,,NoMusic
1628541295.67,fixation,3,121,,,NoMusic
1628541295.7,fixation,2,212,,,NoMusic
1628541296.36,stimulus,1,702,,,RelaxSession
1628541296.86,fixation,1,702,,,RelaxSession
1628541297.17,stimulus,3,122,,,NoMusic
1628541297.2,stimulus,2,213,,,NoMusic
1628541297.67,fixation,3,122,,,NoMusic
1628541297.7,fixation,2,213,,,NoMusic
1628541298.36,stimulus,1,703,,,RelaxSession
1628541298.86,fixation,1,703,,,RelaxSession
1628541299.17,stimulus,3,123,,,NoMusic
1628541299.2,stimulus,2,214,,,NoMusic
1628541299.67,fixation,3,123,,,NoMusic
1628541299.7,fixation,2,214,,,NoMusic
1628541300.36,stimulus,1,704,,,RelaxSession
1628541300.86,fixation,1,704,,,RelaxSession
1628541301.17,stimulus,3,124,,,NoMusic
1628541301.2,stimulus,2,215,,,NoMusic
1628541301.67,fixation,3,124,,,NoMusic
1628541301.7,fixation,2,215,,,NoMusic
1628541302.36,stimulus,1,705,,,RelaxSession
1628541302.86,fixation,1,705,,,RelaxSession
1628541303.17,stimulus,3,125,,,NoMusic
1628541303.2,stimulus,2,216,,,NoMusic
1628541303.67,fixation,3,125,,,NoMusic
1628541303.7,fixation,2,216,,,NoMusic
1628541304.36,stimulus,1,706,,,RelaxSession
1628541304.86,fixation,1,706,,,RelaxSession
1628541305.17,stimulus,3,126,,,NoMusic
1628541305.2,stimulus,2,217,,,NoMusic
1628541305.67,fixation,3,126,,,NoMusic
1628541305.7,fixation,2,217,,,NoMusic
1628541306.36,stimulus,1,707,,,RelaxSession
1628541306.86,fixation,1,707,,,RelaxSession
1628541307.17,stimulus,3,127,,,NoMusic
1628541307.2,stimulus,2,218,,,NoMusic
1628541307.67,fixation,3,127,,,NoMusic
1628541307.7,fixation,2,218,,,NoMusic
1628541308.36,stimulus,1,708,,,RelaxSession
1628541308.86,fixation,1,708,,,RelaxSession
1628541309.17,stimulus,3,128,,,NoMusic
1628541309.2,stimulus,2,219,,,NoMusic
1628541309.67,fixation,3,128,,,NoMusic
1628541309.7,fixation,2,219,,,NoMusic
1628541310.36,stimulus,1,709,,,RelaxSession
1628541310.86,fixation,1,709,,,RelaxSession
1628541311.17,stimulus,3,129,,,NoMusic
1628541311.2,stimulus,2,220,,,NoMusic
1628541311.67,fixation,3,129,,,NoMusic
1628541311.7,fixation,2,220,,,NoMusic
1628541312.36,stimulus,1,710,,,RelaxSession
1628541312.86,fixation,1,710,,,RelaxSession
1628541313.17,stimulus,3,130,,,NoMusic
1628541313.2,stimulus,2,221,,,NoMusic
1628541313.67,fixation,3,130,,,NoMusic
1628541313.7,fixation,2,221,,,NoMusic
1628541314.36,stimulus,1,711,,,RelaxSession
1628541314.86,fixation,1,711,,,RelaxSession
1628541315.17,stimulus,3,131,,,NoMusic
1628541315.2,stimulus,2,222,,,NoMusic
1628541315.67,fixation,3,131,,,NoMusic
1628541315.7,fixation,2,222,,,NoMusic
1628541316.36,stimulus,1,712,,,RelaxSession
1628541316.86,fixation,1,712,,,RelaxSession
1628541317.17,stimulus,3,132,,,NoMusic
1628541317.2,stimulus,2,223,,,NoMusic
1628541317.67,fixation,3,132,,,NoMusic
1628541317.7,fixation,2,223,,,NoMusic
1628541318.36,stimulus,1,713,,,RelaxSession
1628541318.86,fixation,1,713,,,RelaxSession
1628541319.17,stimulus,3,133,,,NoMusic
1628541319.2,stimulus,2,224,,,NoMusic
1628541319.67,fixation,3,133,,,NoMusic
1628541319.7,fixation,2,224,,,NoMusic
1628541320.36,stimulus,1,714,,,RelaxSession
1628541320.86,fixation,1,714,,,RelaxSession
1628541321.17,stimulus,3,134,,,NoMusic
1628541321.2,stimulus,2,225,,,NoMusic
1628541321.67,fixation,3,134,,,NoMusic
1628541321.7,fixation,2,225,,,NoMusic
1628541322.36,stimulus,1,715,,,RelaxSession
1628541322.86,fixation,1,715,,,RelaxSession
1628541323.17,stimulus,3,135,,,NoMusic
1628541323.2,stimulus,2,226,,,NoMusic
1628541323.67,fixation,3,135,,,NoMusic
1628541323.7,fixation,2,226,,,NoMusic
1628541324.36,stimulus,1,716,,,RelaxSession
1628541324.86,fixation,1,716,,,RelaxSession
1628541325.17,stimulus,3,136,,,NoMusic
1628541325.2,stimulus,2,227,,,NoMusic
1628541325.67,fixation,3,136,,,NoMusic
1628541325.7,fixation,2,227,,,NoMusic
1628541326.36,stimulus,1,717,,,RelaxSession
1628541326.86,fixation,1,717,,,RelaxSession
1628541327.17,stimulus,3,137,,,NoMusic
1628541327.2,stimulus,2,228,,,NoMusic
1628541327.67,fixation,3,137,,,NoMusic
1628541327.7,fixation,2,228,,,NoMusic
1628541328.36,stimulus,1,718,,,RelaxSession
1628541328.86,fixation,1,718,,,RelaxSession
1628541329.17,stimulus,3,138,,,NoMusic
1628541329.2,stimulus,2,229,,,NoMusic
1628541329.67,fixation,3,138,,,NoMusic
1628541329.7,fixation,2,229,,,NoMusic
1628541330.36,stimulus,1,719,,,RelaxSession
1628541330.86,fixation,1,719,,,RelaxSession
1628541331.17,stimulus,3,139,,,NoMusic
1628541331.2,stimulus,2,230,,,NoMusic
1628541331.67,fixation,3,139,,,NoMusic
1628541331.7,fixation,2,230,,,NoMusic
1628541332.36,stimulus,1,720,,,RelaxSession
1628541332.86,fixation,1,720,,,RelaxSession
1628541333.17,stimulus,3,140,,,NoMusic
1628541333.2,stimulus,2,231,,,NoMusic
1628541333.67,fixation,3,140,,,NoMusic
1628541333.7,fixation,2,231,,,NoMusic
1628541334.36,stimulus,1,721,,,RelaxSession
1628541334.86,fixation,1,721,,,RelaxSession
1628541335.17,stimulus,3,141,,,NoMusic
1628541335.2,stimulus,2,232,,,NoMusic
1628541335.67,fixation,3,141,,,NoMusic
1628541335.7,fixation,2,232,,,NoMusic
1628541336.36,stimulus,1,722,,,RelaxSession
1628541336.86,fixation,1,722,,,RelaxSession
1628541337.17,stimulus,3,142,,,NoMusic
1628541337.2,stimulus,2,233,,,NoMusic
1628541337.67,fixation,3,142,,,NoMusic
1628541337.7,fixation,2,233,,,NoMusic
1628541338.36,stimulus,1,723,,,RelaxSession
1628541338.86,fixation,1,723,,,RelaxSession
1628541339.17,stimulus,3,143,,,NoMusic
1628541339.2,stimulus,2,234,,,NoMusic
1628541339.67,fixation,3,143,,,NoMusic
1628541339.7,fixation,2,234,,,NoMusic
1628541340.36,stimulus,1,724,,,RelaxSession
1628541340.86,fixation,1,724,,,RelaxSession
1628541341.17,stimulus,3,144,,,NoMusic
1628541341.2,stimulus,2,235,,,NoMusic
1628541341.67,fixation,3,144,,,NoMusic
1628541341.7,fixation,2,235,,,NoMusic
1628541342.36,stimulus,1,725,,,RelaxSession
1628541342.86,fixation,1,725,,,RelaxSession
1628541343.17,stimulus,3,145,,,NoMusic
1628541343.2,stimulus,2,236,,,NoMusic
1628541343.67,fixation,3,145,,,NoMusic
1628541343.7,fixation,2,236,,,NoMusic
1628541344.36,stimulus,1,726,,,RelaxSession
1628541344.86,fixation,1,726,,,RelaxSession
1628541345.17,stimulus,3,146,,,NoMusic
1628541345.2,stimulus,2,237,,,NoMusic
1628541345.67,fixation,3,146,,,NoMusic
1628541345.7,fixation,2,237,,,NoMusic
1628541346.36,stimulus,1,727,,,RelaxSession
1628541346.86,fixation,1,727,,,RelaxSession
1628541347.17,stimulus,3,147,,,NoMusic
1628541347.2,stimulus,2,238,,,NoMusic
1628541347.67,fixation,3,147,,,NoMusic
1628541347.7,fixation,2,238,,,NoMusic
1628541348.36,stimulus,1,728,,,RelaxSession
1628541348.86,fixation,1,728,,,RelaxSession
1628541349.17,stimulus,3,148,,,NoMusic
1628541349.2,stimulus,2,239,,,NoMusic
1628541349.67,fixation,3,148,,,NoMusic
1628541349.7,fixation,2,239,,,NoMusic
1628541350.36,stimulus,1,729,,,RelaxSession
1628541350.86,fixation,1,729,,,RelaxSession
1628541351.17,stimulus,3,149,,,NoMusic
1628541351.2,stimulus,2,240,,,NoMusic
1628541351.67,fixation,3,149,,,NoMusic
1628541351.7,fixation,2,240,,,NoMusic
1628541352.36,stimulus,1,730,,,RelaxSession
1628541352.86,fixation,1,730,,,RelaxSession
1628541353.17,stimulus,3,150,,,NoMusic
1628541353.2,stimulus,2,241,,,NoMusic
1628541353.67,fixation,3,150,,,NoMusic
1628541353.7,fixation,2,241,,,NoMusic
1628541354.36,stimulus,1,731,,,RelaxSession
1628541354.86,fixation,1,731,,,RelaxSession
1628541355.17,stimulus,3,151,,,NoMusic
1628541355.2,stimulus,2,242,,,NoMusic
1628541355.67,fixation,3,151,,,NoMusic
1628541355.7,fixation,2,242,,,NoMusic
1628541356.36,stimulus,1,732,,,RelaxSession
1628541356.86,fixation,1,732,,,RelaxSession
1628541357.17,stimulus,3,152,,,NoMusic
1628541357.2,stimulus,2,243,,,NoMusic
1628541357.67,fixation,3,152,,,NoMusic
1628541357.7,fixation,2,243,,,NoMusic
1628541358.36,stimulus,1,733,,,RelaxSession
1628541358.86,fixation,1,733,,,RelaxSession
1628541359.17,stimulus,3,153,,,NoMusic
1628541359.2,stimulus,2,244,,,NoMusic
1628541359.67,fixation,3,153,,,NoMusic
1628541359.7,fixation,2,244,,,NoMusic
1628541360.36,stimulus,1,734,,,RelaxSession
1628541360.86,fixation,1,734,,,RelaxSession
1628541361.17,stimulus,3,154,,,NoMusic
1628541361.2,stimulus,2,245,,,NoMusic
1628541361.67,fixation,3,154,,,NoMusic
1628541361.7,fixation,2,245,,,NoMusic
1628541362.36,stimulus,1,735,,,RelaxSession
1628541362.86,fixation,1,735,,,RelaxSession
1628541363.17,stimulus,3,155,,,NoMusic
1628541363.2,stimulus,2,246,,,NoMusic
1628541363.67,fixation,3,155,,,NoMusic
1628541363.7,fixation,2,246,,,NoMusic
1628541364.36,stimulus,1,736,,,RelaxSession
1628541364.86,fixation,1,736,,,RelaxSession
1628541365.17,stimulus,3,156,,,NoMusic
1628541365.2,stimulus,2,247,,,NoMusic
1628541365.67,fixation,3,156,,,NoMusic
1628541365.7,fixation,2,247,,,NoMusic
1628541366.36,stimulus,1,737,,,RelaxSession
1628541366.86,fixation,1,737,,,RelaxSession
1628541367.17,stimulus,3,157,,,NoMusic
1628541367.2,stimulus,2,248,,,NoMusic
1628541367.67,fixation,3,157,,,NoMusic
1628541367.7,fixation,2,248,,,NoMusic
1628541368.36,stimulus,1,738,,,RelaxSession
1628541368.86,fixation,1,738,,,RelaxSession
1628541369.17,stimulus,3,158,,,NoMusic
1628541369.2,stimulus,2,249,,,NoMusic
1628541369.67,fixation,3,158,,,NoMusic
1628541369.7,fixation,2,249,,,NoMusic
1628541370.36,stimulus,1,739,,,RelaxSession
1628541370.86,fixation,1,739,,,RelaxSession
1628541371.17,stimulus,3,159,,,NoMusic
1628541371.2,stimulus,2,250,,,NoMusic
1628541371.67,fixation,3,159,,,NoMusic
1628541371.7,fixation,2,250,,,NoMusic
1628541372.36,stimulus,1,740,,,RelaxSession
1628541372.86,fixation,1,740,,,RelaxSession
1628541373.17,stimulus,3,160,,,NoMusic
1628541373.2,stimulus,2,251,,,NoMusic
1628541373.67,fixation,3,160,,,NoMusic
1628541373.7,fixation,2,251,,,NoMusic
1628541374.36,stimulus,1,741,,,RelaxSession
1628541374.86,fixation,1,741,,,RelaxSession
1628541375.17,stimulus,3,161,,,NoMusic
1628541375.2,stimulus,2,252,,,NoMusic
1628541375.67,fixation,3,161,,,NoMusic
1628541375.7,fixation,2,252,,,NoMusic
1628541376.36,stimulus,1,742,,,RelaxSession
1628541376.86,fixation,1,742,,,RelaxSession
1628541377.17,stimulus,3,162,,,NoMusic
1628541377.2,stimulus,2,253,,,NoMusic
1628541377.67,fixation,3,162,,,NoMusic
1628541377.7,fixation,2,253,,,NoMusic
1628541378.36,stimulus,1,743,,,RelaxSession
1628541378.86,fixation,1,743,,,RelaxSession
1628541379.17,stimulus,3,163,,,NoMusic
1628541379.2,stimulus,2,254,,,NoMusic
1628541379.67,fixation,3,163,,,NoMusic
1628541379.7,fixation,2,254,,,NoMusic
1628541380.36,stimulus,1,744,,,RelaxSession
1628541380.86,fixation,1,744,,,RelaxSession
1628541381.17,stimulus,3,164,,,NoMusic
1628541381.2,stimulus,2,255,,,NoMusic
1628541381.67,fixation,3,164,,,NoMusic
1628541381.7,fixation,2,255,,,NoMusic
1628541382.36,stimulus,1,745,,,RelaxSession
1628541382.86,fixation,1,745,,,RelaxSession
