event_time_s,trial_type,session_idx,trial_idx,RT_s,ACC,session_type
1625449848.33,stimulus,1,1,,,PracticeSession
1625449848.83,fixation,1,1,,,PracticeSession
1625449850.33,stimulus,1,2,,,PracticeSession
1625449850.83,fixation,1,2,,,PracticeSession
1625449852.33,stimulus,1,3,,,PracticeSession
1625449852.83,fixation,1,3,,,PracticeSession
1625449854.33,stimulus,1,4,,,PracticeSession
1625449854.83,fixation,1,4,,,PracticeSession
1625449856.33,stimulus,1,5,,,PracticeSession
1625449856.83,fixation,1,5,,,PracticeSession
1625449858.33,stimulus,1,6,,,PracticeSession
1625449858.83,fixation,1,6,,,PracticeSession
1625449860.33,stimulus,1,7,,,PracticeSession
1625449860.83,fixation,1,7,,,PracticeSession
1625449862.33,stimulus,1,8,,,PracticeSession
1625449862.83,fixation,1,8,,,PracticeSession
1625449864.33,stimulus,1,9,,,PracticeSession
1625449864.83,fixation,1,9,,,PracticeSession
1625449866.33,stimulus,1,10,,,PracticeSession
1625449866.83,fixation,1,10,,,PracticeSession
1625449868.33,stimulus,1,11,,,PracticeSession
1625449868.83,fixation,1,11,,,PracticeSession
1625449870.33,stimulus,1,12,,,PracticeSession
1625449870.83,fixation,1,12,,,PracticeSession
1625449872.33,stimulus,1,13,,,PracticeSession
1625449872.83,fixation,1,13,,,PracticeSession
1625449874.33,stimulus,1,14,,,PracticeSession
1625449874.83,fixation,1,14,,,PracticeSession
1625449876.33,stimulus,1,15,,,PracticeSession
1625449876.83,fixation,1,15,,,PracticeSession
1625449878.33,stimulus,1,16,,,PracticeSession
1625449878.83,fixation,1,16,,,PracticeSession
1625449880.33,stimulus,1,17,,,PracticeSession
1625449880.83,fixation,1,17,,,PracticeSession
1625449882.33,stimulus,1,18,,,PracticeSession
1625449882.83,fixation,1,18,,,PracticeSession
1625449884.33,stimulus,1,19,,,PracticeSession
1625449884.83,fixation,1,19,,,PracticeSession
1625449886.33,stimulus,1,20,,,PracticeSession
1625449886.83,fixation,1,20,,,PracticeSession
1625449888.33,stimulus,1,21,,,PracticeSession
1625449888.83,fixation,1,21,,,PracticeSession
1625449890.33,stimulus,1,22,,,PracticeSession
1625449890.83,fixation,1,22,,,PracticeSession
1625449892.33,stimulus,1,23,,,PracticeSession
1625449892.83,fixation,1,23,,,PracticeSession
1625449894.33,stimulus,1,24,,,PracticeSession
1625449894.83,fixation,1,24,,,PracticeSession
1625449896.33,stimulus,1,25,,,PracticeSession
1625449896.83,fixation,1,25,,,PracticeSession
1625449898.33,stimulus,1,26,,,PracticeSession
1625449898.83,fixation,1,26,,,PracticeSession
1625449900.33,stimulus,1,27,,,PracticeSession
1625449900.83,fixation,1,27,,,PracticeSession
1625449902.33,stimulus,1,28,,,PracticeSession
1625449902.83,fixation,1,28,,,PracticeSession
1625449904.33,stimulus,1,29,,,PracticeSession
1625449904.83,fixation,1,29,,,PracticeSession
1625449906.33,stimulus,1,30,,,PracticeSession
1625449906.83,fixation,1,30,,,PracticeSession
1625449908.33,stimulus,1,31,,,PracticeSession
1625449908.83,fixation,1,31,,,PracticeSession
1625449910.33,stimulus,1,32,,,PracticeSession
1625449910.83,fixation,1,32,,,PracticeSession
1625449912.33,stimulus,1,33,,,PracticeSession
1625449912.83,fixation,1,33,,,PracticeSession
1625449914.33,stimulus,1,34,,,PracticeSession
1625449914.83,fixation,1,34,,,PracticeSession
1625449916.33,stimulus,1,35,,,PracticeSession
1625449916.83,fixation,1,35,,,PracticeSession
1625449918.33,stimulus,1,36,,,PracticeSession
1625449918.83,fixation,1,36,,,PracticeSession
1625449920.33,stimulus,1,37,,,PracticeSession
1625449920.83,fixation,1,37,,,PracticeSession
1625449922.33,stimulus,1,38,,,PracticeSession
1625449922.83,fixation,1,38,,,PracticeSession
1625449924.33,stimulus,1,39,,,PracticeSession
1625449924.83,fixation,1,39,,,PracticeSession
1625449926.33,stimulus,1,40,,,PracticeSession
1625449926.83,fixation,1,40,,,PracticeSession
1625449928.33,stimulus,1,41,,,PracticeSession
1625449928.83,fixation,1,41,,,PracticeSession
1625449930.33,stimulus,1,42,,,PracticeSession
1625449930.83,fixation,1,42,,,PracticeSession
1625449932.33,stimulus,1,43,,,PracticeSession
1625449932.83,fixation,1,43,,,PracticeSession
1625449934.33,stimulus,1,44,,,PracticeSession
1625449934.83,fixation,1,44,,,PracticeSession
1625449936.33,stimulus,1,45,,0.0,NoMusic
1625449937.9029999,fixation,1,45,1.073,1.0,NoMusic
1625449938.33,stimulus,1,46,,0.0,NoMusic
1625449939.385,fixation,1,46,0.555,1.0,NoMusic
1625449940.33,stimulus,1,47,,0.0,NoMusic
1625449941.0449998,fixation,1,47,0.215,1.0,NoMusic
1625449942.33,stimulus,1,48,,0.0,NoMusic
1625449942.8569999,fixation,1,48,0.027,1.0,NoMusic
1625449944.33,stimulus,1,49,,0.0,NoMusic
1625449944.852,fixation,1,49,0.022,1.0,NoMusic
1625449946.33,stimulus,1,50,,0.0,NoMusic
1625449946.889,fixation,1,50,0.059,1.0,NoMusic
1625449948.33,stimulus,1,51,,0.0,NoMusic
1625449949.412,fixation,1,51,0.582,0.0,NoMusic
1625449950.7459998,stimulus,1,52,0.416,1.0,NoMusic
1625449950.83,fixation,1,52,,0.0,NoMusic
1625449952.744,stimulus,1,53,0.414,1.0,NoMusic
1625449952.83,fixation,1,53,,0.0,NoMusic
1625449954.733,stimulus,1,54,0.403,1.0,NoMusic
1625449954.83,fixation,1,54,,0.0,NoMusic
1625449956.33,stimulus,1,55,,0.0,NoMusic
1625449956.859,fixation,1,55,0.029,1.0,NoMusic
1625449958.7289999,stimulus,1,56,0.399,1.0,NoMusic
1625449958.83,fixation,1,56,,0.0,NoMusic
1625449960.639,stimulus,1,57,0.309,1.0,NoMusic
1625449960.83,fixation,1,57,,0.0,NoMusic
1625449962.7789998,stimulus,1,58,0.449,0.0,NoMusic
1625449962.83,fixation,1,58,,0.0,NoMusic
1625449964.33,stimulus,1,59,,0.0,NoMusic
1625449965.419,fixation,1,59,0.589,0.0,NoMusic
1625449966.33,stimulus,1,60,,0.0,NoMusic
1625449966.8609998,fixation,1,60,0.031,1.0,NoMusic
1625449968.701,stimulus,1,61,0.371,1.0,NoMusic
1625449968.83,fixation,1,61,,0.0,NoMusic
1625449970.757,stimulus,1,62,0.427,1.0,NoMusic
1625449970.83,fixation,1,62,,0.0,NoMusic
1625449972.33,stimulus,1,63,,0.0,NoMusic
1625449972.9069998,fixation,1,63,0.077,1.0,NoMusic
1625449974.684,stimulus,1,64,0.354,1.0,NoMusic
1625449974.83,fixation,1,64,,0.0,NoMusic
1625449976.721,stimulus,1,65,0.391,1.0,NoMusic
1625449976.83,fixation,1,65,,0.0,NoMusic
1625449978.738,stimulus,1,66,0.408,1.0,NoMusic
1625449978.83,fixation,1,66,,0.0,NoMusic
1625449980.33,stimulus,1,67,,0.0,NoMusic
1625449981.8339999,fixation,1,67,1.004,1.0,NoMusic
1625449982.33,stimulus,1,68,,0.0,NoMusic
1625449984.161,fixation,1,68,1.331,1.0,NoMusic
1625449984.33,stimulus,1,69,,0.0,NoMusic
1625449985.0289998,fixation,1,69,0.199,1.0,NoMusic
1625449986.33,stimulus,1,70,,0.0,NoMusic
1625449988.02,fixation,1,70,1.19,1.0,NoMusic
1625449988.33,stimulus,1,71,,0.0,NoMusic
1625449990.03,fixation,1,71,1.2,1.0,NoMusic
1625449990.33,stimulus,1,72,,0.0,NoMusic
1625449992.0609999,fixation,1,72,1.231,1.0,NoMusic
1625449992.33,stimulus,1,73,,0.0,NoMusic
1625449992.83,fixation,1,73,,0.0,NoMusic
1625449994.54,stimulus,1,74,0.21,0.0,NoMusic
1625449995.345,fixation,1,74,0.515,1.0,NoMusic
1625449996.33,stimulus,1,75,,0.0,NoMusic
1625449996.83,fixation,1,75,,0.0,NoMusic
1625449998.33,stimulus,1,76,,0.0,NoMusic
1625449999.595,fixation,1,76,0.765,0.0,NoMusic
1625450000.33,stimulus,1,77,,0.0,NoMusic
1625450001.603,fixation,1,77,0.773,1.0,NoMusic
1625450002.33,stimulus,1,78,,0.0,NoMusic
1625450003.322,fixation,1,78,0.492,1.0,NoMusic
1625450004.33,stimulus,1,79,,0.0,NoMusic
1625450005.9359999,fixation,1,79,1.106,1.0,NoMusic
1625450006.33,stimulus,1,80,,0.0,NoMusic
1625450007.6899998,fixation,1,80,0.86,1.0,NoMusic
1625450008.33,stimulus,1,81,,0.0,NoMusic
1625450009.5839999,fixation,1,81,0.754,1.0,NoMusic
1625450010.33,stimulus,1,82,,0.0,NoMusic
1625450011.26,fixation,1,82,0.43,1.0,NoMusic
1625450012.33,stimulus,1,83,,0.0,NoMusic
1625450013.4889998,fixation,1,83,0.659,1.0,NoMusic
1625450014.33,stimulus,1,84,,0.0,NoMusic
1625450015.5839999,fixation,1,84,0.754,1.0,NoMusic
1625450016.33,stimulus,1,85,,0.0,NoMusic
1625450017.296,fixation,1,85,0.466,1.0,NoMusic
1625450018.33,stimulus,1,86,,0.0,NoMusic
1625450019.83,fixation,1,86,1.0,0.0,NoMusic
1625450020.33,stimulus,1,87,,0.0,NoMusic
1625450021.491,fixation,1,87,0.661,1.0,NoMusic
1625450022.33,stimulus,1,88,,0.0,NoMusic
1625450023.589,fixation,1,88,0.759,1.0,NoMusic
1625450024.33,stimulus,1,89,,0.0,NoMusic
1625450024.83,fixation,1,89,,0.0,NoMusic
1625450026.6169999,stimulus,1,90,0.287,1.0,NoMusic
1625450026.83,fixation,1,90,,0.0,NoMusic
1625450028.664,stimulus,1,91,0.334,1.0,NoMusic
1625450028.83,fixation,1,91,,0.0,NoMusic
1625450030.33,stimulus,1,92,,0.0,NoMusic
1625450030.931,fixation,1,92,0.101,1.0,NoMusic
1625450032.33,stimulus,1,93,,0.0,NoMusic
1625450034.0679998,fixation,1,93,1.238,0.0,NoMusic
1625450034.33,stimulus,1,94,,0.0,NoMusic
1625450035.379,fixation,1,94,0.549,1.0,NoMusic
1625450036.33,stimulus,1,95,,0.0,NoMusic
1625450037.4259999,fixation,1,95,0.596,0.0,NoMusic
1625450038.462,stimulus,1,96,0.132,1.0,NoMusic
1625450039.9329998,fixation,1,96,1.103,1.0,NoMusic
1625450040.33,stimulus,1,97,,0.0,NoMusic
1625450042.039,fixation,1,97,1.209,1.0,NoMusic
1625450042.33,stimulus,1,98,,0.0,NoMusic
1625450043.767,fixation,1,98,0.937,1.0,NoMusic
1625450044.33,stimulus,1,99,,0.0,NoMusic
1625450045.898,fixation,1,99,1.068,1.0,NoMusic
1625450046.33,stimulus,1,100,,0.0,NoMusic
1625450047.738,fixation,1,100,0.908,1.0,NoMusic
1625450048.33,stimulus,1,101,,0.0,NoMusic
1625450049.9459999,fixation,1,101,1.116,1.0,NoMusic
1625450050.33,stimulus,1,102,,0.0,NoMusic
1625450052.313,fixation,1,102,1.483,1.0,NoMusic
1625450052.33,stimulus,1,103,,0.0,NoMusic
1625450052.83,fixation,1,103,,0.0,NoMusic
1625450054.5749998,stimulus,1,104,0.245,0.0,NoMusic
1625450054.83,fixation,1,104,,0.0,NoMusic
1625450056.33,stimulus,1,105,,0.0,NoMusic
1625450057.013,fixation,1,105,0.183,1.0,NoMusic
1625450058.33,stimulus,1,106,,0.0,NoMusic
1625450059.708,fixation,1,106,0.878,0.0,NoMusic
1625450060.33,stimulus,1,107,,0.0,NoMusic
1625450061.287,fixation,1,107,0.457,1.0,NoMusic
1625450062.33,stimulus,1,108,,0.0,NoMusic
1625450063.447,fixation,1,108,0.617,1.0,NoMusic
1625450064.33,stimulus,1,109,,0.0,NoMusic
1625450065.682,fixation,1,109,0.852,1.0,NoMusic
1625450066.33,stimulus,1,110,,0.0,NoMusic
1625450067.468,fixation,1,110,0.638,1.0,NoMusic
1625450068.33,stimulus,1,111,,0.0,NoMusic
1625450068.83,fixation,1,111,,0.0,NoMusic
1625450070.33,stimulus,1,112,,0.0,NoMusic
1625450071.241,fixation,1,112,0.411,1.0,NoMusic
1625450072.33,stimulus,1,113,,0.0,NoMusic
1625450072.8309999,fixation,1,113,0.001,1.0,NoMusic
1625450074.794,stimulus,1,114,0.464,1.0,NoMusic
1625450074.83,fixation,1,114,,0.0,NoMusic
1625450076.33,stimulus,1,115,,0.0,NoMusic
1625450077.155,fixation,1,115,0.325,1.0,NoMusic
1625450078.33,stimulus,1,116,,0.0,NoMusic
1625450079.235,fixation,1,116,0.405,1.0,NoMusic
1625450080.33,stimulus,1,117,,0.0,NoMusic
1625450081.151,fixation,1,117,0.321,1.0,NoMusic
1625450082.33,stimulus,1,118,,0.0,NoMusic
1625450083.256,fixation,1,118,0.426,1.0,NoMusic
1625450084.33,stimulus,1,119,,0.0,NoMusic
1625450085.3569999,fixation,1,119,0.527,1.0,NoMusic
1625450086.33,stimulus,1,120,,0.0,NoMusic
1625450087.3939998,fixation,1,120,0.564,1.0,NoMusic
1625450088.33,stimulus,1,121,,0.0,NoMusic
1625450089.294,fixation,1,121,0.464,1.0,NoMusic
1625450090.33,stimulus,1,122,,0.0,NoMusic
1625450091.108,fixation,1,122,0.278,1.0,NoMusic
1625450092.33,stimulus,1,123,,0.0,NoMusic
1625450093.1759999,fixation,1,123,0.346,1.0,NoMusic
1625450094.33,stimulus,1,124,,0.0,NoMusic
1625450095.1629999,fixation,1,124,0.333,1.0,NoMusic
1625450096.33,stimulus,1,125,,0.0,NoMusic
1625450097.195,fixation,1,125,0.365,1.0,NoMusic
1625450098.33,stimulus,1,126,,0.0,NoMusic
1625450099.03,fixation,1,126,0.2,1.0,NoMusic
1625450100.33,stimulus,1,127,,0.0,NoMusic
1625450101.043,fixation,1,127,0.213,1.0,NoMusic
1625450102.33,stimulus,1,128,,0.0,NoMusic
1625450103.1399999,fixation,1,128,0.31,1.0,NoMusic
1625450104.33,stimulus,1,129,,0.0,NoMusic
1625450105.0979998,fixation,1,129,0.268,1.0,NoMusic
1625450106.33,stimulus,1,130,,0.0,NoMusic
1625450107.093,fixation,1,130,0.263,1.0,NoMusic
1625450108.33,stimulus,1,131,,0.0,NoMusic
1625450109.1859999,fixation,1,131,0.356,1.0,NoMusic
1625450110.33,stimulus,1,132,,0.0,NoMusic
1625450111.12,fixation,1,132,0.29,0.0,NoMusic
1625450112.33,stimulus,1,133,,0.0,NoMusic
1625450112.83,fixation,1,133,,0.0,NoMusic
1625450114.682,stimulus,1,134,0.352,1.0,NoMusic
1625450115.221,fixation,1,134,0.391,1.0,NoMusic
1625450116.33,stimulus,1,135,,0.0,NoMusic
1625450117.076,fixation,1,135,0.246,1.0,NoMusic
1625450118.33,stimulus,1,136,,0.0,NoMusic
1625450119.3339999,fixation,1,136,0.504,1.0,NoMusic
1625450120.33,stimulus,1,137,,0.0,NoMusic
1625450121.958,fixation,1,137,1.128,1.0,NoMusic
1625450122.33,stimulus,1,138,,0.0,NoMusic
1625450123.687,fixation,1,138,0.857,1.0,NoMusic
1625450124.33,stimulus,1,139,,0.0,NoMusic
1625450125.2419999,fixation,1,139,0.412,1.0,NoMusic
1625450126.33,stimulus,1,140,,0.0,NoMusic
1625450127.471,fixation,1,140,0.641,1.0,NoMusic
1625450128.33,stimulus,1,141,,0.0,NoMusic
1625450130.3109999,fixation,1,141,1.481,1.0,NoMusic
1625450130.33,stimulus,1,142,,0.0,NoMusic
1625450131.358,fixation,1,142,0.528,0.0,NoMusic
1625450132.33,stimulus,1,143,,0.0,NoMusic
1625450133.317,fixation,1,143,0.487,1.0,NoMusic
1625450134.33,stimulus,1,144,,0.0,NoMusic
1625450135.503,fixation,1,144,0.673,1.0,NoMusic
1625450136.33,stimulus,1,145,,0.0,NoMusic
1625450137.5779998,fixation,1,145,0.748,0.0,NoMusic
1625450138.33,stimulus,1,146,,0.0,NoMusic
1625450139.767,fixation,1,146,0.937,1.0,NoMusic
1625450140.33,stimulus,1,147,,0.0,NoMusic
1625450141.596,fixation,1,147,0.766,0.0,NoMusic
1625450142.33,stimulus,1,148,,0.0,NoMusic
1625450143.276,fixation,1,148,0.446,1.0,NoMusic
1625450144.33,stimulus,1,149,,0.0,NoMusic
1625450145.606,fixation,1,149,0.776,1.0,NoMusic
1625450146.33,stimulus,1,150,,0.0,NoMusic
1625450147.939,fixation,1,150,1.109,0.0,NoMusic
1625450148.33,stimulus,1,151,,0.0,NoMusic
1625450149.533,fixation,1,151,0.703,1.0,NoMusic
1625450150.33,stimulus,1,152,,0.0,NoMusic
1625450150.83,fixation,1,152,,0.0,NoMusic
1625450152.385,stimulus,1,153,0.055,1.0,NoMusic
1625450152.83,fixation,1,153,,0.0,NoMusic
1625450154.33,stimulus,1,154,,0.0,NoMusic
1625450155.294,fixation,1,154,0.464,1.0,NoMusic
1625450156.33,stimulus,1,155,,0.0,NoMusic
1625450156.83,fixation,1,155,,0.0,NoMusic
1625450158.33,stimulus,1,156,,0.0,NoMusic
1625450159.829,fixation,1,156,0.999,1.0,NoMusic
1625450160.33,stimulus,1,157,,0.0,NoMusic
1625450161.434,fixation,1,157,0.604,1.0,NoMusic
1625450162.33,stimulus,1,158,,0.0,NoMusic
1625450163.504,fixation,1,158,0.674,1.0,NoMusic
1625450164.77,stimulus,1,159,0.44,1.0,NoMusic
1625450164.83,fixation,1,159,,0.0,NoMusic
1625450166.33,stimulus,1,160,,0.0,NoMusic
1625450167.1829998,fixation,1,160,0.353,1.0,NoMusic
1625450168.33,stimulus,1,161,,0.0,NoMusic
1625450169.143,fixation,1,161,0.313,1.0,NoMusic
1625450170.33,stimulus,1,162,,0.0,NoMusic
1625450171.12,fixation,1,162,0.29,1.0,NoMusic
1625450172.33,stimulus,1,163,,0.0,NoMusic
1625450173.356,fixation,1,163,0.526,1.0,NoMusic
1625450174.33,stimulus,1,164,,0.0,NoMusic
1625450175.0219998,fixation,1,164,0.192,1.0,NoMusic
1625450176.33,stimulus,1,165,,0.0,NoMusic
1625450177.119,fixation,1,165,0.289,1.0,NoMusic
1625450178.33,stimulus,1,166,,0.0,NoMusic
1625450179.299,fixation,1,166,0.469,1.0,NoMusic
1625450180.33,stimulus,1,167,,0.0,NoMusic
1625450181.109,fixation,1,167,0.279,1.0,NoMusic
1625450182.33,stimulus,1,168,,0.0,NoMusic
1625450182.896,fixation,1,168,0.066,1.0,NoMusic
1625450184.33,stimulus,1,169,,0.0,NoMusic
1625450185.1859999,fixation,1,169,0.356,1.0,NoMusic
1625450186.33,stimulus,1,170,,0.0,NoMusic
1625450187.099,fixation,1,170,0.269,1.0,NoMusic
1625450188.33,stimulus,1,171,,0.0,NoMusic
1625450189.0749998,fixation,1,171,0.245,1.0,NoMusic
1625450190.33,stimulus,1,172,,0.0,NoMusic
1625450191.161,fixation,1,172,0.331,1.0,NoMusic
1625450192.33,stimulus,1,173,,0.0,NoMusic
1625450193.175,fixation,1,173,0.345,1.0,NoMusic
1625450194.33,stimulus,1,174,,0.0,NoMusic
1625450195.06,fixation,1,174,0.23,1.0,NoMusic
1625450196.33,stimulus,1,175,,0.0,NoMusic
1625450197.221,fixation,1,175,0.391,0.0,NoMusic
1625450198.33,stimulus,1,176,,0.0,NoMusic
1625450199.274,fixation,1,176,0.444,0.0,NoMusic
1625450200.33,stimulus,1,177,,0.0,NoMusic
1625450200.83,fixation,1,177,,0.0,NoMusic
1625450202.33,stimulus,1,178,,0.0,NoMusic
1625450203.7549999,fixation,1,178,0.925,1.0,NoMusic
1625450204.33,stimulus,1,179,,0.0,NoMusic
1625450205.1469998,fixation,1,179,0.317,1.0,NoMusic
1625450206.33,stimulus,1,180,,0.0,NoMusic
1625450207.174,fixation,1,180,0.344,1.0,NoMusic
1625450208.747,stimulus,1,181,0.417,1.0,NoMusic
1625450208.83,fixation,1,181,,0.0,NoMusic
1625450210.33,stimulus,1,182,,0.0,NoMusic
1625450211.043,fixation,1,182,0.213,1.0,NoMusic
1625450212.33,stimulus,1,183,,0.0,NoMusic
1625450212.9759998,fixation,1,183,0.146,1.0,NoMusic
1625450214.33,stimulus,1,184,,0.0,NoMusic
1625450214.832,fixation,1,184,0.002,1.0,NoMusic
1625450216.7419999,stimulus,1,185,0.412,1.0,NoMusic
1625450216.83,fixation,1,185,,0.0,NoMusic
1625450218.789,stimulus,1,186,0.459,1.0,NoMusic
1625450218.83,fixation,1,186,,0.0,NoMusic
1625450220.33,stimulus,1,187,,0.0,NoMusic
1625450220.984,fixation,1,187,0.154,1.0,NoMusic
1625450222.33,stimulus,1,188,,0.0,NoMusic
1625450223.016,fixation,1,188,0.186,1.0,NoMusic
1625450224.33,stimulus,1,189,,0.0,NoMusic
1625450225.0319998,fixation,1,189,0.202,1.0,NoMusic
1625450226.33,stimulus,1,190,,0.0,NoMusic
1625450227.2129998,fixation,1,190,0.383,1.0,NoMusic
1625450228.33,stimulus,1,191,,0.0,NoMusic
1625450229.217,fixation,1,191,0.387,1.0,NoMusic
1625450230.33,stimulus,1,192,,0.0,NoMusic
1625450231.202,fixation,1,192,0.372,1.0,NoMusic
1625450232.33,stimulus,1,193,,0.0,NoMusic
1625450233.102,fixation,1,193,0.272,1.0,NoMusic
1625450234.33,stimulus,1,194,,0.0,NoMusic
1625450235.092,fixation,1,194,0.262,1.0,NoMusic
1625450236.33,stimulus,1,195,,0.0,NoMusic
1625450236.908,fixation,1,195,0.078,1.0,NoMusic
1625450238.33,stimulus,1,196,,0.0,NoMusic
1625450239.2129998,fixation,1,196,0.383,1.0,NoMusic
1625450240.33,stimulus,1,197,,0.0,NoMusic
1625450241.1109998,fixation,1,197,0.281,1.0,NoMusic
1625450242.33,stimulus,1,198,,0.0,NoMusic
1625450243.0909998,fixation,1,198,0.261,1.0,NoMusic
1625450244.33,stimulus,1,199,,0.0,NoMusic
1625450244.83,fixation,1,199,,0.0,NoMusic
1625450246.33,stimulus,1,200,,0.0,NoMusic
1625450246.83,fixation,1,200,,0.0,NoMusic
1625450248.33,stimulus,1,201,,0.0,NoMusic
1625450250.257,fixation,1,201,1.427,1.0,NoMusic
1625450250.33,stimulus,1,202,,0.0,NoMusic
1625450251.12,fixation,1,202,0.29,0.0,NoMusic
1625450252.33,stimulus,1,203,,0.0,NoMusic
1625450253.3669999,fixation,1,203,0.537,1.0,NoMusic
1625450254.33,stimulus,1,204,,0.0,NoMusic
1625450255.675,fixation,1,204,0.845,1.0,NoMusic
1625450256.33,stimulus,1,205,,0.0,NoMusic
1625450258.228,fixation,1,205,1.398,1.0,NoMusic
1625450258.33,stimulus,1,206,,0.0,NoMusic
1625450259.268,fixation,1,206,0.438,1.0,NoMusic
1625450260.33,stimulus,1,207,,0.0,NoMusic
1625450261.993,fixation,1,207,1.163,1.0,NoMusic
1625450262.33,stimulus,1,208,,0.0,NoMusic
1625450263.994,fixation,1,208,1.164,0.0,NoMusic
1625450264.33,stimulus,1,209,,0.0,NoMusic
1625450265.813,fixation,1,209,0.983,1.0,NoMusic
1625450266.33,stimulus,1,210,,0.0,NoMusic
1625450267.6069999,fixation,1,210,0.777,1.0,NoMusic
1625450268.33,stimulus,1,211,,0.0,NoMusic
1625450269.8769999,fixation,1,211,1.047,1.0,NoMusic
1625450270.33,stimulus,1,212,,0.0,NoMusic
1625450271.483,fixation,1,212,0.653,1.0,NoMusic
1625450272.33,stimulus,1,213,,0.0,NoMusic
1625450273.3799999,fixation,1,213,0.55,1.0,NoMusic
1625450274.33,stimulus,1,214,,0.0,NoMusic
1625450275.2289999,fixation,1,214,0.399,1.0,NoMusic
1625450276.33,stimulus,1,215,,0.0,NoMusic
1625450277.192,fixation,1,215,0.362,1.0,NoMusic
1625450278.33,stimulus,1,216,,0.0,NoMusic
1625450279.467,fixation,1,216,0.637,1.0,NoMusic
1625450280.33,stimulus,1,217,,0.0,NoMusic
1625450281.27,fixation,1,217,0.44,1.0,NoMusic
1625450282.33,stimulus,1,218,,0.0,NoMusic
1625450283.2229998,fixation,1,218,0.393,1.0,NoMusic
1625450284.33,stimulus,1,219,,0.0,NoMusic
1625450285.126,fixation,1,219,0.296,1.0,NoMusic
1625450286.33,stimulus,1,220,,0.0,NoMusic
1625450286.9499998,fixation,1,220,0.12,1.0,NoMusic
1625450288.33,stimulus,1,221,,,NoMusic
1625450288.83,fixation,1,221,,,NoMusic
1625450290.33,stimulus,1,222,,0.0,NoMusic
1625450290.83,fixation,1,222,,0.0,NoMusic
1625450292.342,stimulus,1,223,0.012,1.0,NoMusic
1625450292.83,fixation,1,223,,0.0,NoMusic
1625450294.483,stimulus,1,224,0.153,1.0,NoMusic
1625450294.83,fixation,1,224,,0.0,NoMusic
1625450296.517,stimulus,1,225,0.187,1.0,NoMusic
1625450296.83,fixation,1,225,,0.0,NoMusic
1625450298.33,stimulus,1,226,,0.0,NoMusic
1625450299.0649998,fixation,1,226,0.235,1.0,NoMusic
1625450300.33,stimulus,1,227,,0.0,NoMusic
1625450300.849,fixation,1,227,0.019,1.0,NoMusic
1625450302.33,stimulus,1,228,,0.0,NoMusic
1625450302.951,fixation,1,228,0.121,1.0,NoMusic
1625450304.33,stimulus,1,229,,0.0,NoMusic
1625450305.304,fixation,1,229,0.474,1.0,NoMusic
1625450306.33,stimulus,1,230,,0.0,NoMusic
1625450307.243,fixation,1,230,0.413,0.0,NoMusic
1625450308.33,stimulus,1,231,,0.0,NoMusic
1625450309.77,fixation,1,231,0.94,0.0,NoMusic
1625450310.33,stimulus,1,232,,0.0,NoMusic
1625450311.7819998,fixation,1,232,0.952,1.0,NoMusic
1625450312.33,stimulus,1,233,,0.0,NoMusic
1625450313.488,fixation,1,233,0.658,0.0,NoMusic
1625450314.33,stimulus,1,234,,0.0,NoMusic
1625450315.597,fixation,1,234,0.767,0.0,NoMusic
1625450316.33,stimulus,1,235,,0.0,NoMusic
1625450317.925,fixation,1,235,1.095,0.0,NoMusic
1625450318.33,stimulus,1,236,,0.0,NoMusic
1625450319.658,fixation,1,236,0.828,0.0,NoMusic
1625450320.33,stimulus,1,237,,0.0,NoMusic
1625450321.461,fixation,1,237,0.631,1.0,NoMusic
1625450322.33,stimulus,1,238,,0.0,NoMusic
1625450323.687,fixation,1,238,0.857,1.0,NoMusic
1625450324.33,stimulus,1,239,,0.0,NoMusic
1625450325.178,fixation,1,239,0.348,0.0,NoMusic
1625450326.33,stimulus,1,240,,0.0,NoMusic
1625450327.379,fixation,1,240,0.549,0.0,NoMusic
1625450328.33,stimulus,1,241,,0.0,NoMusic
1625450330.037,fixation,1,241,1.207,1.0,NoMusic
1625450330.33,stimulus,1,242,,0.0,NoMusic
1625450331.564,fixation,1,242,0.734,1.0,NoMusic
1625450332.33,stimulus,1,243,,0.0,NoMusic
1625450333.675,fixation,1,243,0.845,1.0,NoMusic
1625450334.33,stimulus,1,244,,0.0,NoMusic
1625450334.83,fixation,1,244,,0.0,NoMusic
1625450336.33,stimulus,1,245,,0.0,NoMusic
1625450337.4169998,fixation,1,245,0.587,1.0,NoMusic
1625450338.33,stimulus,1,246,,0.0,NoMusic
1625450338.975,fixation,1,246,0.145,1.0,NoMusic
1625450340.33,stimulus,1,247,,0.0,NoMusic
1625450341.089,fixation,1,247,0.259,1.0,NoMusic
1625450342.33,stimulus,1,248,,0.0,NoMusic
1625450343.197,fixation,1,248,0.367,1.0,NoMusic
1625450344.33,stimulus,1,249,,0.0,NoMusic
1625450344.9359999,fixation,1,249,0.106,1.0,NoMusic
1625450346.33,stimulus,1,250,,0.0,NoMusic
1625450347.0939999,fixation,1,250,0.264,1.0,NoMusic
1625450348.71,stimulus,1,251,0.38,0.0,NoMusic
1625450348.83,fixation,1,251,,0.0,NoMusic
1625450350.33,stimulus,1,252,,0.0,NoMusic
1625450351.148,fixation,1,252,0.318,1.0,NoMusic
1625450352.33,stimulus,1,253,,0.0,NoMusic
1625450353.416,fixation,1,253,0.586,1.0,NoMusic
1625450354.33,stimulus,1,254,,0.0,NoMusic
1625450355.109,fixation,1,254,0.279,1.0,NoMusic
1625450356.33,stimulus,1,255,,0.0,NoMusic
1625450357.133,fixation,1,255,0.303,1.0,NoMusic
1625450358.33,stimulus,1,256,,0.0,NoMusic
1625450359.5049999,fixation,1,256,0.675,1.0,NoMusic
1625450360.33,stimulus,1,257,,0.0,NoMusic
1625450361.188,fixation,1,257,0.358,1.0,NoMusic
1625450362.33,stimulus,1,258,,0.0,NoMusic
1625450363.112,fixation,1,258,0.282,1.0,NoMusic
1625450364.33,stimulus,1,259,,0.0,NoMusic
1625450365.1039999,fixation,1,259,0.274,1.0,NoMusic
1625450366.33,stimulus,1,260,,0.0,NoMusic
1625450367.178,fixation,1,260,0.348,1.0,NoMusic
1625450368.33,stimulus,1,261,,0.0,NoMusic
1625450369.076,fixation,1,261,0.246,1.0,NoMusic
1625450370.33,stimulus,1,262,,0.0,NoMusic
1625450371.0879998,fixation,1,262,0.258,1.0,NoMusic
1625450372.33,stimulus,1,263,,0.0,NoMusic
1625450373.0319998,fixation,1,263,0.202,1.0,NoMusic
1625450374.33,stimulus,1,264,,0.0,NoMusic
1625450375.123,fixation,1,264,0.293,1.0,NoMusic
1625450376.33,stimulus,1,265,,0.0,NoMusic
1625450377.0549998,fixation,1,265,0.225,1.0,NoMusic
1625450378.33,stimulus,1,266,,0.0,NoMusic
1625450379.7189999,fixation,1,266,0.889,1.0,NoMusic
1625450380.33,stimulus,1,267,,0.0,NoMusic
1625450381.254,fixation,1,267,0.424,1.0,NoMusic
1625450382.33,stimulus,1,268,,0.0,NoMusic
1625450383.133,fixation,1,268,0.303,1.0,NoMusic
1625450384.33,stimulus,1,269,,0.0,NoMusic
1625450385.266,fixation,1,269,0.436,1.0,NoMusic
1625450386.33,stimulus,1,270,,0.0,NoMusic
1625450387.1439998,fixation,1,270,0.314,1.0,NoMusic
1625450388.33,stimulus,1,271,,0.0,NoMusic
1625450389.166,fixation,1,271,0.336,1.0,NoMusic
1625450390.33,stimulus,1,272,,0.0,NoMusic
1625450391.201,fixation,1,272,0.371,1.0,NoMusic
1625450392.33,stimulus,1,273,,0.0,NoMusic
1625450393.043,fixation,1,273,0.213,1.0,NoMusic
1625450394.33,stimulus,1,274,,0.0,NoMusic
1625450395.1209998,fixation,1,274,0.291,1.0,NoMusic
1625450396.33,stimulus,1,275,,0.0,NoMusic
1625450397.146,fixation,1,275,0.316,1.0,NoMusic
1625450398.33,stimulus,1,276,,0.0,NoMusic
1625450399.076,fixation,1,276,0.246,1.0,NoMusic
1625450400.33,stimulus,1,277,,0.0,NoMusic
1625450401.0219998,fixation,1,277,0.192,1.0,NoMusic
1625450402.33,stimulus,1,278,,0.0,NoMusic
1625450403.385,fixation,1,278,0.555,1.0,NoMusic
1625450404.33,stimulus,1,279,,0.0,NoMusic
1625450404.9169998,fixation,1,279,0.087,1.0,NoMusic
1625450406.33,stimulus,1,280,,0.0,NoMusic
1625450407.053,fixation,1,280,0.223,1.0,NoMusic
1625450408.33,stimulus,1,281,,0.0,NoMusic
1625450409.064,fixation,1,281,0.234,1.0,NoMusic
1625450410.33,stimulus,1,282,,0.0,NoMusic
1625450411.1,fixation,1,282,0.27,1.0,NoMusic
1625450412.33,stimulus,1,283,,0.0,NoMusic
1625450413.047,fixation,1,283,0.217,1.0,NoMusic
1625450414.33,stimulus,1,284,,0.0,NoMusic
1625450415.174,fixation,1,284,0.344,1.0,NoMusic
1625450416.7059999,stimulus,1,285,0.376,1.0,NoMusic
1625450416.83,fixation,1,285,,0.0,NoMusic
1625450418.33,stimulus,1,286,,0.0,NoMusic
1625450420.123,fixation,1,286,1.293,0.0,NoMusic
1625450420.33,stimulus,1,287,,0.0,NoMusic
1625450421.161,fixation,1,287,0.331,1.0,NoMusic
1625450422.33,stimulus,1,288,,0.0,NoMusic
1625450422.83,fixation,1,288,,0.0,NoMusic
1625450424.7779999,stimulus,1,289,0.448,1.0,NoMusic
1625450424.83,fixation,1,289,,0.0,NoMusic
1625450426.7519999,stimulus,1,290,0.422,1.0,NoMusic
1625450426.83,fixation,1,290,,0.0,NoMusic
1625450428.33,stimulus,1,291,,0.0,NoMusic
1625450429.33,fixation,1,291,0.5,1.0,NoMusic
1625450430.33,stimulus,1,292,,0.0,NoMusic
1625450431.932,fixation,1,292,1.102,1.0,NoMusic
1625450432.33,stimulus,1,293,,0.0,NoMusic
1625450433.8179998,fixation,1,293,0.988,1.0,NoMusic
1625450434.33,stimulus,1,294,,0.0,NoMusic
1625450434.83,fixation,1,294,,0.0,NoMusic
1625450436.679,stimulus,1,295,0.349,1.0,NoMusic
1625450437.5249999,fixation,1,295,0.695,0.0,NoMusic
1625450438.33,stimulus,1,296,,0.0,NoMusic
1625450438.954,fixation,1,296,0.124,0.0,NoMusic
1625450440.33,stimulus,1,297,,0.0,NoMusic
1625450441.4429998,fixation,1,297,0.613,0.0,NoMusic
1625450442.33,stimulus,1,298,,0.0,NoMusic
1625450443.151,fixation,1,298,0.321,1.0,NoMusic
1625450444.33,stimulus,1,299,,0.0,NoMusic
1625450445.393,fixation,1,299,0.563,1.0,NoMusic
1625450446.33,stimulus,1,300,,0.0,NoMusic
1625450447.585,fixation,1,300,0.755,1.0,NoMusic
1625450448.33,stimulus,1,301,,0.0,NoMusic
1625450449.47,fixation,1,301,0.64,1.0,NoMusic
1625450450.33,stimulus,1,302,,0.0,NoMusic
1625450451.277,fixation,1,302,0.447,1.0,NoMusic
1625450452.33,stimulus,1,303,,0.0,NoMusic
1625450453.142,fixation,1,303,0.312,1.0,NoMusic
1625450454.33,stimulus,1,304,,0.0,NoMusic
1625450455.451,fixation,1,304,0.621,1.0,NoMusic
1625450456.33,stimulus,1,305,,0.0,NoMusic
1625450457.172,fixation,1,305,0.342,1.0,NoMusic
1625450458.33,stimulus,1,306,,0.0,NoMusic
1625450459.2819998,fixation,1,306,0.452,0.0,NoMusic
1625450460.33,stimulus,1,307,,0.0,NoMusic
1625450461.2979999,fixation,1,307,0.468,1.0,NoMusic
1625450462.33,stimulus,1,308,,0.0,NoMusic
1625450463.5519998,fixation,1,308,0.722,1.0,NoMusic
1625450464.33,stimulus,1,309,,0.0,NoMusic
1625450465.5879998,fixation,1,309,0.758,1.0,NoMusic
1625450466.33,stimulus,1,310,,0.0,NoMusic
1625450467.684,fixation,1,310,0.854,1.0,NoMusic
1625450468.33,stimulus,1,311,,0.0,NoMusic
1625450469.214,fixation,1,311,0.384,1.0,NoMusic
1625450470.33,stimulus,1,312,,0.0,NoMusic
1625450471.587,fixation,1,312,0.757,1.0,NoMusic
1625450472.33,stimulus,1,313,,0.0,NoMusic
1625450473.312,fixation,1,313,0.482,1.0,NoMusic
1625450474.605,stimulus,1,314,0.275,0.0,NoMusic
1625450474.83,fixation,1,314,,0.0,NoMusic
1625450476.33,stimulus,1,315,,0.0,NoMusic
1625450477.064,fixation,1,315,0.234,1.0,NoMusic
1625450478.576,stimulus,1,316,0.246,1.0,NoMusic
1625450478.83,fixation,1,316,,0.0,NoMusic
1625450480.5379999,stimulus,1,317,0.208,1.0,NoMusic
1625450480.83,fixation,1,317,,0.0,NoMusic
1625450482.595,stimulus,1,318,0.265,1.0,NoMusic
1625450482.83,fixation,1,318,,0.0,NoMusic
1625450484.756,stimulus,1,319,0.426,1.0,NoMusic
1625450484.83,fixation,1,319,,0.0,NoMusic
1625450486.6109998,stimulus,1,320,0.281,0.0,NoMusic
1625450486.83,fixation,1,320,,0.0,NoMusic
1625450488.583,stimulus,1,321,0.253,1.0,NoMusic
1625450488.83,fixation,1,321,,0.0,NoMusic
1625450490.685,stimulus,1,322,0.355,1.0,NoMusic
1625450490.83,fixation,1,322,,0.0,NoMusic
1625450492.73,stimulus,1,323,0.4,0.0,NoMusic
1625450492.83,fixation,1,323,,0.0,NoMusic
1625450494.738,stimulus,1,324,0.408,0.0,NoMusic
1625450494.83,fixation,1,324,,0.0,NoMusic
1625450496.7949998,stimulus,1,325,0.465,1.0,NoMusic
1625450496.83,fixation,1,325,,0.0,NoMusic
1625450498.731,stimulus,1,326,0.401,1.0,NoMusic
1625450498.83,fixation,1,326,,0.0,NoMusic
1625450500.33,stimulus,1,327,,0.0,NoMusic
1625450501.024,fixation,1,327,0.194,1.0,NoMusic
1625450502.33,stimulus,1,328,,0.0,NoMusic
1625450502.9069998,fixation,1,328,0.077,0.0,NoMusic
1625450504.33,stimulus,1,329,,0.0,NoMusic
1625450504.8509998,fixation,1,329,0.021,1.0,NoMusic
1625450506.33,stimulus,1,330,,0.0,NoMusic
1625450507.126,fixation,1,330,0.296,1.0,NoMusic
1625450508.33,stimulus,1,331,,0.0,NoMusic
1625450509.0019999,fixation,1,331,0.172,1.0,NoMusic
1625450510.33,stimulus,1,332,,0.0,NoMusic
1625450511.7159998,fixation,1,332,0.886,1.0,NoMusic
1625450512.33,stimulus,1,333,,0.0,NoMusic
1625450513.207,fixation,1,333,0.377,1.0,NoMusic
1625450514.33,stimulus,1,334,,0.0,NoMusic
1625450515.066,fixation,1,334,0.236,1.0,NoMusic
1625450516.33,stimulus,1,335,,0.0,NoMusic
1625450517.296,fixation,1,335,0.466,1.0,NoMusic
1625450518.33,stimulus,1,336,,0.0,NoMusic
1625450519.1169999,fixation,1,336,0.287,1.0,NoMusic
1625450520.33,stimulus,1,337,,0.0,NoMusic
1625450521.136,fixation,1,337,0.306,1.0,NoMusic
1625450522.33,stimulus,1,338,,0.0,NoMusic
1625450523.152,fixation,1,338,0.322,1.0,NoMusic
1625450524.33,stimulus,1,339,,0.0,NoMusic
1625450525.142,fixation,1,339,0.312,0.0,NoMusic
1625450526.33,stimulus,1,340,,0.0,NoMusic
1625450527.217,fixation,1,340,0.387,1.0,NoMusic
1625450528.33,stimulus,1,341,,0.0,NoMusic
1625450529.1799998,fixation,1,341,0.35,1.0,NoMusic
1625450530.33,stimulus,1,342,,0.0,NoMusic
1625450531.116,fixation,1,342,0.286,1.0,NoMusic
1625450532.33,stimulus,1,343,,0.0,NoMusic
1625450533.0749998,fixation,1,343,0.245,1.0,NoMusic
1625450534.33,stimulus,1,344,,0.0,NoMusic
1625450535.211,fixation,1,344,0.381,1.0,NoMusic
1625450536.33,stimulus,1,345,,0.0,NoMusic
1625450537.0809999,fixation,1,345,0.251,1.0,NoMusic
1625450538.33,stimulus,1,346,,0.0,NoMusic
1625450539.1169999,fixation,1,346,0.287,1.0,NoMusic
1625450540.33,stimulus,1,347,,0.0,NoMusic
1625450541.099,fixation,1,347,0.269,1.0,NoMusic
1625450542.33,stimulus,1,348,,0.0,NoMusic
1625450543.2689998,fixation,1,348,0.439,1.0,NoMusic
1625450544.33,stimulus,1,349,,0.0,NoMusic
1625450545.1399999,fixation,1,349,0.31,1.0,NoMusic
1625450546.33,stimulus,1,350,,0.0,NoMusic
1625450547.783,fixation,1,350,0.953,1.0,NoMusic
1625450548.33,stimulus,1,351,,0.0,NoMusic
1625450549.3409998,fixation,1,351,0.511,1.0,NoMusic
1625450550.33,stimulus,1,352,,0.0,NoMusic
1625450551.05,fixation,1,352,0.22,1.0,NoMusic
1625450552.33,stimulus,1,353,,0.0,NoMusic
1625450553.159,fixation,1,353,0.329,1.0,NoMusic
1625450554.33,stimulus,1,354,,0.0,NoMusic
1625450555.9099998,fixation,1,354,1.08,1.0,NoMusic
1625450556.33,stimulus,1,355,,0.0,NoMusic
1625450557.1469998,fixation,1,355,0.317,1.0,NoMusic
1625450558.33,stimulus,1,356,,0.0,NoMusic
1625450559.105,fixation,1,356,0.275,1.0,NoMusic
1625450560.33,stimulus,1,357,,0.0,NoMusic
1625450561.442,fixation,1,357,0.612,1.0,NoMusic
1625450562.33,stimulus,1,358,,0.0,NoMusic
1625450563.8799999,fixation,1,358,1.05,1.0,NoMusic
1625450564.33,stimulus,1,359,,0.0,NoMusic
1625450565.2029998,fixation,1,359,0.373,1.0,NoMusic
1625450566.33,stimulus,1,360,,0.0,NoMusic
1625450568.1109998,fixation,1,360,1.281,1.0,NoMusic
1625450568.33,stimulus,1,361,,0.0,NoMusic
1625450569.422,fixation,1,361,0.592,1.0,NoMusic
1625450570.33,stimulus,1,362,,0.0,NoMusic
1625450571.472,fixation,1,362,0.642,1.0,NoMusic
1625450572.33,stimulus,1,363,,0.0,NoMusic
1625450573.562,fixation,1,363,0.732,0.0,NoMusic
1625450574.33,stimulus,1,364,,0.0,NoMusic
1625450575.547,fixation,1,364,0.717,0.0,NoMusic
1625450576.33,stimulus,1,365,,0.0,NoMusic
1625450577.434,fixation,1,365,0.604,1.0,NoMusic
1625450578.33,stimulus,1,366,,0.0,NoMusic
1625450579.419,fixation,1,366,0.589,1.0,NoMusic
1625450580.33,stimulus,1,367,,0.0,NoMusic
1625450582.3019998,fixation,1,367,1.472,1.0,NoMusic
1625450582.33,stimulus,1,368,,0.0,NoMusic
1625450583.609,fixation,1,368,0.779,1.0,NoMusic
1625450584.33,stimulus,1,369,,0.0,NoMusic
1625450585.248,fixation,1,369,0.418,0.0,NoMusic
1625450586.33,stimulus,1,370,,0.0,NoMusic
1625450587.079,fixation,1,370,0.249,1.0,NoMusic
1625450588.33,stimulus,1,371,,0.0,NoMusic
1625450588.86,fixation,1,371,0.03,1.0,NoMusic
1625450590.33,stimulus,1,372,,0.0,NoMusic
1625450591.412,fixation,1,372,0.582,1.0,NoMusic
1625450592.33,stimulus,1,373,,0.0,NoMusic
1625450593.402,fixation,1,373,0.572,1.0,NoMusic
1625450594.33,stimulus,1,374,,0.0,NoMusic
1625450595.214,fixation,1,374,0.384,1.0,NoMusic
1625450596.33,stimulus,1,375,,0.0,NoMusic
1625450597.6799998,fixation,1,375,0.85,1.0,NoMusic
1625450598.33,stimulus,1,376,,0.0,NoMusic
1625450599.5979998,fixation,1,376,0.768,1.0,NoMusic
1625450600.33,stimulus,1,377,,0.0,NoMusic
1625450601.123,fixation,1,377,0.293,1.0,NoMusic
1625450602.33,stimulus,1,378,,0.0,NoMusic
1625450603.0749998,fixation,1,378,0.245,1.0,NoMusic
1625450604.33,stimulus,1,379,,0.0,NoMusic
1625450605.1529999,fixation,1,379,0.323,1.0,NoMusic
1625450606.33,stimulus,1,380,,0.0,NoMusic
1625450607.1,fixation,1,380,0.27,1.0,NoMusic
1625450608.33,stimulus,1,381,,0.0,NoMusic
1625450609.077,fixation,1,381,0.247,1.0,NoMusic
1625450610.33,stimulus,1,382,,0.0,NoMusic
1625450611.096,fixation,1,382,0.266,1.0,NoMusic
1625450612.33,stimulus,1,383,,0.0,NoMusic
1625450613.115,fixation,1,383,0.285,1.0,NoMusic
1625450614.33,stimulus,1,384,,0.0,NoMusic
1625450615.1499999,fixation,1,384,0.32,1.0,NoMusic
1625450616.33,stimulus,1,385,,0.0,NoMusic
1625450617.018,fixation,1,385,0.188,1.0,NoMusic
1625450618.33,stimulus,1,386,,0.0,NoMusic
1625450619.145,fixation,1,386,0.315,1.0,NoMusic
1625450620.33,stimulus,1,387,,0.0,NoMusic
1625450621.083,fixation,1,387,0.253,1.0,NoMusic
1625450622.33,stimulus,1,388,,0.0,NoMusic
1625450623.221,fixation,1,388,0.391,1.0,NoMusic
1625450624.33,stimulus,1,389,,0.0,NoMusic
1625450625.044,fixation,1,389,0.214,1.0,NoMusic
1625450626.33,stimulus,1,390,,0.0,NoMusic
1625450627.096,fixation,1,390,0.266,1.0,NoMusic
1625450628.33,stimulus,1,391,,0.0,NoMusic
1625450629.143,fixation,1,391,0.313,1.0,NoMusic
1625450630.33,stimulus,1,392,,0.0,NoMusic
1625450631.1899998,fixation,1,392,0.36,1.0,NoMusic
1625450632.33,stimulus,1,393,,0.0,NoMusic
1625450633.202,fixation,1,393,0.372,1.0,NoMusic
1625450634.33,stimulus,1,394,,0.0,NoMusic
1625450634.909,fixation,1,394,0.079,1.0,NoMusic
1625450636.33,stimulus,1,395,,0.0,NoMusic
1625450637.126,fixation,1,395,0.296,1.0,NoMusic
1625450638.33,stimulus,1,396,,0.0,NoMusic
1625450639.189,fixation,1,396,0.359,1.0,NoMusic
1625450640.33,stimulus,1,397,,0.0,NoMusic
1625450641.198,fixation,1,397,0.368,1.0,NoMusic
1625450642.33,stimulus,1,398,,,RelaxSession
1625450642.83,fixation,1,398,,,RelaxSession
1625450644.33,stimulus,1,399,,,RelaxSession
1625450644.83,fixation,1,399,,,RelaxSession
1625450646.33,stimulus,1,400,,,RelaxSession
1625450646.83,fixation,1,400,,,RelaxSession
1625450648.33,stimulus,1,401,,,RelaxSession
1625450648.83,fixation,1,401,,,RelaxSession
1625450650.33,stimulus,1,402,,,RelaxSession
1625450650.83,fixation,1,402,,,RelaxSession
1625450652.33,stimulus,1,403,,,RelaxSession
1625450652.83,fixation,1,403,,,RelaxSession
1625450654.33,stimulus,1,404,,,RelaxSession
1625450654.83,fixation,1,404,,,RelaxSession
1625450656.33,stimulus,1,405,,,RelaxSession
1625450656.83,fixation,1,405,,,RelaxSession
1625450658.33,stimulus,1,406,,,RelaxSession
1625450658.83,fixation,1,406,,,RelaxSession
1625450660.33,stimulus,1,407,,,RelaxSession
1625450660.83,fixation,1,407,,,RelaxSession
1625450662.33,stimulus,1,408,,,RelaxSession
1625450662.83,fixation,1,408,,,RelaxSession
1625450664.33,stimulus,1,409,,,RelaxSession
1625450664.83,fixation,1,409,,,RelaxSession
1625450666.33,stimulus,1,410,,,RelaxSession
1625450666.83,fixation,1,410,,,RelaxSession
1625450668.33,stimulus,1,411,,,RelaxSession
1625450668.83,fixation,1,411,,,RelaxSession
1625450670.33,stimulus,1,412,,,RelaxSession
1625450670.83,fixation,1,412,,,RelaxSession
1625450672.33,stimulus,1,413,,,RelaxSession
1625450672.83,fixation,1,413,,,RelaxSession
1625450674.33,stimulus,1,414,,,RelaxSession
1625450674.83,fixation,1,414,,,RelaxSession
1625450676.33,stimulus,1,415,,,RelaxSession
1625450676.83,fixation,1,415,,,RelaxSession
1625450678.33,stimulus,1,416,,,RelaxSession
1625450678.83,fixation,1,416,,,RelaxSession
1625450680.33,stimulus,1,417,,,RelaxSession
1625450680.83,fixation,1,417,,,RelaxSession
1625450682.33,stimulus,1,418,,,RelaxSession
1625450682.83,fixation,1,418,,,RelaxSession
1625450684.33,stimulus,1,419,,,RelaxSession
1625450684.83,fixation,1,419,,,RelaxSession
1625450686.33,stimulus,1,420,,,RelaxSession
1625450686.83,fixation,1,420,,,RelaxSession
1625450688.33,stimulus,1,421,,,RelaxSession
1625450688.83,fixation,1,421,,,RelaxSession
1625450690.33,stimulus,1,422,,,RelaxSession
1625450690.83,fixation,1,422,,,RelaxSession
1625450692.33,stimulus,1,423,,,RelaxSession
1625450692.83,fixation,1,423,,,RelaxSession
1625450694.33,stimulus,1,424,,,RelaxSession
1625450694.83,fixation,1,424,,,RelaxSession
1625450696.33,stimulus,1,425,,,RelaxSession
1625450696.83,fixation,1,425,,,RelaxSession
1625450698.33,stimulus,1,426,,,RelaxSession
1625450698.83,fixation,1,426,,,RelaxSession
1625450700.33,stimulus,1,427,,,RelaxSession
1625450700.83,fixation,1,427,,,RelaxSession
1625450702.33,stimulus,1,428,,,RelaxSession
1625450702.83,fixation,1,428,,,RelaxSession
1625450704.33,stimulus,1,429,,,RelaxSession
1625450704.83,fixation,1,429,,,RelaxSession
1625450706.33,stimulus,1,430,,,RelaxSession
1625450706.83,fixation,1,430,,,RelaxSession
1625450708.33,stimulus,1,431,,,RelaxSession
1625450708.83,fixation,1,431,,,RelaxSession
1625450710.33,stimulus,1,432,,,RelaxSession
1625450710.83,fixation,1,432,,,RelaxSession
1625450712.33,stimulus,1,433,,,RelaxSession
1625450712.83,fixation,1,433,,,RelaxSession
1625450714.33,stimulus,1,434,,,RelaxSession
1625450714.83,fixation,1,434,,,RelaxSession
1625450716.33,stimulus,1,435,,,RelaxSession
1625450716.83,fixation,1,435,,,RelaxSession
1625450718.33,stimulus,1,436,,,RelaxSession
1625450718.83,fixation,1,436,,,RelaxSession
1625450720.33,stimulus,1,437,,,RelaxSession
1625450720.83,fixation,1,437,,,RelaxSession
1625450722.33,stimulus,1,438,,,RelaxSession
1625450722.83,fixation,1,438,,,RelaxSession
1625450724.33,stimulus,1,439,,,RelaxSession
1625450724.83,fixation,1,439,,,RelaxSession
1625450726.33,stimulus,1,440,,,RelaxSession
1625450726.83,fixation,1,440,,,RelaxSession
1625450728.33,stimulus,1,441,,,RelaxSession
1625450728.83,fixation,1,441,,,RelaxSession
1625450730.33,stimulus,1,442,,,RelaxSession
1625450730.83,fixation,1,442,,,RelaxSession
1625450732.33,stimulus,1,443,,,RelaxSession
1625450732.83,fixation,1,443,,,RelaxSession
1625450734.33,stimulus,1,444,,,RelaxSession
1625450734.83,fixation,1,444,,,RelaxSession
1625450736.33,stimulus,1,445,,,RelaxSession
1625450736.83,fixation,1,445,,,RelaxSession
1625450738.33,stimulus,1,446,,,RelaxSession
1625450738.83,fixation,1,446,,,RelaxSession
1625450740.33,stimulus,1,447,,,RelaxSession
1625450740.83,fixation,1,447,,,RelaxSession
1625450742.33,stimulus,1,448,,,RelaxSession
1625450742.83,fixation,1,448,,,RelaxSession
1625450744.33,stimulus,1,449,,,RelaxSession
1625450744.83,fixation,1,449,,,RelaxSession
1625450746.33,stimulus,1,450,,,RelaxSession
1625450746.83,fixation,1,450,,,RelaxSession
1625450748.33,stimulus,1,451,,,RelaxSession
1625450748.83,fixation,1,451,,,RelaxSession
1625450750.33,stimulus,1,452,,,RelaxSession
1625450750.83,fixation,1,452,,,RelaxSession
1625450752.33,stimulus,1,453,,,RelaxSession
1625450752.83,fixation,1,453,,,RelaxSession
1625450754.33,stimulus,1,454,,,RelaxSession
1625450754.83,fixation,1,454,,,RelaxSession
1625450756.33,stimulus,1,455,,,RelaxSession
1625450756.83,fixation,1,455,,,RelaxSession
1625450758.33,stimulus,1,456,,,RelaxSession
1625450758.83,fixation,1,456,,,RelaxSession
1625450760.33,stimulus,1,457,,,RelaxSession
1625450760.83,fixation,1,457,,,RelaxSession
1625450762.33,stimulus,1,458,,,RelaxSession
1625450762.83,fixation,1,458,,,RelaxSession
1625450764.33,stimulus,1,459,,,RelaxSession
1625450764.83,fixation,1,459,,,RelaxSession
1625450766.33,stimulus,1,460,,,RelaxSession
1625450766.83,fixation,1,460,,,RelaxSession
1625450768.33,stimulus,1,461,,,RelaxSession
1625450768.83,fixation,1,461,,,RelaxSession
1625450770.33,stimulus,1,462,,,RelaxSession
1625450770.83,fixation,1,462,,,RelaxSession
1625450772.33,stimulus,1,463,,,RelaxSession
1625450772.83,fixation,1,463,,,RelaxSession
1625450774.33,stimulus,1,464,,,RelaxSession
1625450774.83,fixation,1,464,,,RelaxSession
1625450776.33,stimulus,1,465,,,RelaxSession
1625450776.83,fixation,1,465,,,RelaxSession
1625450778.33,stimulus,1,466,,,RelaxSession
1625450778.83,fixation,1,466,,,RelaxSession
1625450780.33,stimulus,1,467,,,RelaxSession
1625450780.83,fixation,1,467,,,RelaxSession
1625450782.33,stimulus,1,468,,,RelaxSession
1625450782.83,fixation,1,468,,,RelaxSession
1625450784.33,stimulus,1,469,,,RelaxSession
1625450784.83,fixation,1,469,,,RelaxSession
1625450786.33,stimulus,1,470,,,RelaxSession
1625450786.83,fixation,1,470,,,RelaxSession
1625450788.33,stimulus,1,471,,,RelaxSession
1625450788.83,fixation,1,471,,,RelaxSession
1625450790.33,stimulus,1,472,,,RelaxSession
1625450790.83,fixation,1,472,,,RelaxSession
1625450792.33,stimulus,1,473,,,RelaxSession
1625450792.83,fixation,1,473,,,RelaxSession
1625450794.33,stimulus,1,474,,,RelaxSession
1625450794.83,fixation,1,474,,,RelaxSession
1625450796.33,stimulus,1,475,,,RelaxSession
1625450796.83,fixation,1,475,,,RelaxSession
1625450798.33,stimulus,1,476,,,RelaxSession
1625450798.83,fixation,1,476,,,RelaxSession
1625450800.33,stimulus,1,477,,,RelaxSession
1625450800.83,fixation,1,477,,,RelaxSession
1625450802.33,stimulus,1,478,,,RelaxSession
1625450802.83,fixation,1,478,,,RelaxSession
1625450804.33,stimulus,1,479,,,RelaxSession
1625450804.83,fixation,1,479,,,RelaxSession
1625450806.33,stimulus,1,480,,,RelaxSession
1625450806.83,fixation,1,480,,,RelaxSession
1625450808.33,stimulus,1,481,,,RelaxSession
1625450808.83,fixation,1,481,,,RelaxSession
1625450810.33,stimulus,1,482,,,RelaxSession
1625450810.83,fixation,1,482,,,RelaxSession
1625450812.33,stimulus,1,483,,,RelaxSession
1625450812.83,fixation,1,483,,,RelaxSession
1625450814.33,stimulus,1,484,,,RelaxSession
1625450814.83,fixation,1,484,,,RelaxSession
1625450816.33,stimulus,1,485,,,RelaxSession
1625450816.83,fixation,1,485,,,RelaxSession
1625450818.33,stimulus,1,486,,,RelaxSession
1625450818.83,fixation,1,486,,,RelaxSession
1625450820.33,stimulus,1,487,,,RelaxSession
1625450820.83,fixation,1,487,,,RelaxSession
1625450822.33,stimulus,1,488,,,RelaxSession
1625450822.83,fixation,1,488,,,RelaxSession
1625450824.33,stimulus,1,489,,,RelaxSession
1625450824.83,fixation,1,489,,,RelaxSession
1625450825.62,stimulus,2,1,,,PracticeSession
1625450826.12,fixation,2,1,,,PracticeSession
1625450826.33,stimulus,1,490,,,RelaxSession
1625450826.83,fixation,1,490,,,RelaxSession
1625450827.62,stimulus,2,2,,,PracticeSession
1625450828.12,fixation,2,2,,,PracticeSession
1625450828.33,stimulus,1,491,,,RelaxSession
1625450828.83,fixation,1,491,,,RelaxSession
1625450829.62,stimulus,2,3,,,PracticeSession
1625450830.12,fixation,2,3,,,PracticeSession
1625450830.33,stimulus,1,492,,,RelaxSession
1625450830.83,fixation,1,492,,,RelaxSession
1625450831.62,stimulus,2,4,,,PracticeSession
1625450832.12,fixation,2,4,,,PracticeSession
1625450832.33,stimulus,1,493,,,RelaxSession
1625450832.83,fixation,1,493,,,RelaxSession
1625450833.62,stimulus,2,5,,,PracticeSession
1625450834.12,fixation,2,5,,,PracticeSession
1625450834.33,stimulus,1,494,,,RelaxSession
1625450834.83,fixation,1,494,,,RelaxSession
1625450835.62,stimulus,2,6,,,PracticeSession
1625450836.12,fixation,2,6,,,PracticeSession
1625450836.33,stimulus,1,495,,,RelaxSession
1625450836.83,fixation,1,495,,,RelaxSession
1625450837.62,stimulus,2,7,,,PracticeSession
1625450838.12,fixation,2,7,,,PracticeSession
1625450838.33,stimulus,1,496,,,RelaxSession
1625450838.83,fixation,1,496,,,RelaxSession
1625450839.62,stimulus,2,8,,,PracticeSession
1625450840.12,fixation,2,8,,,PracticeSession
1625450840.33,stimulus,1,497,,,RelaxSession
1625450840.83,fixation,1,497,,,RelaxSession
1625450841.62,stimulus,2,9,,,PracticeSession
1625450842.12,fixation,2,9,,,PracticeSession
1625450842.33,stimulus,1,498,,,RelaxSession
1625450842.83,fixation,1,498,,,RelaxSession
1625450843.62,stimulus,2,10,,,PracticeSession
1625450844.12,fixation,2,10,,,PracticeSession
1625450844.33,stimulus,1,499,,,RelaxSession
1625450844.83,fixation,1,499,,,RelaxSession
1625450845.62,stimulus,2,11,,,PracticeSession
1625450846.12,fixation,2,11,,,PracticeSession
1625450846.33,stimulus,1,500,,,RelaxSession
1625450846.83,fixation,1,500,,,RelaxSession
1625450847.62,stimulus,2,12,,,PracticeSession
1625450848.12,fixation,2,12,,,PracticeSession
1625450848.33,stimulus,1,501,,,RelaxSession
1625450848.83,fixation,1,501,,,RelaxSession
1625450849.62,stimulus,2,13,,,PracticeSession
1625450850.12,fixation,2,13,,,PracticeSession
1625450850.33,stimulus,1,502,,,RelaxSession
1625450850.83,fixation,1,502,,,RelaxSession
1625450851.62,stimulus,2,14,,,PracticeSession
1625450852.12,fixation,2,14,,,PracticeSession
1625450852.33,stimulus,1,503,,,RelaxSession
1625450852.83,fixation,1,503,,,RelaxSession
1625450853.62,stimulus,2,15,,,PracticeSession
1625450854.12,fixation,2,15,,,PracticeSession
1625450854.33,stimulus,1,504,,,RelaxSession
1625450854.83,fixation,1,504,,,RelaxSession
1625450855.62,stimulus,2,16,,,PracticeSession
1625450856.12,fixation,2,16,,,PracticeSession
1625450856.33,stimulus,1,505,,,RelaxSession
1625450856.83,fixation,1,505,,,RelaxSession
1625450857.62,stimulus,2,17,,,PracticeSession
1625450858.12,fixation,2,17,,,PracticeSession
1625450858.33,stimulus,1,506,,,RelaxSession
1625450858.83,fixation,1,506,,,RelaxSession
1625450859.62,stimulus,2,18,,,PracticeSession
1625450860.12,fixation,2,18,,,PracticeSession
1625450860.33,stimulus,1,507,,,RelaxSession
1625450860.83,fixation,1,507,,,RelaxSession
1625450861.62,stimulus,2,19,,,PracticeSession
1625450862.12,fixation,2,19,,,PracticeSession
1625450862.33,stimulus,1,508,,,RelaxSession
1625450862.83,fixation,1,508,,,RelaxSession
1625450863.62,stimulus,2,20,,,PracticeSession
1625450864.12,fixation,2,20,,,PracticeSession
1625450864.33,stimulus,1,509,,,RelaxSession
1625450864.83,fixation,1,509,,,RelaxSession
1625450865.62,stimulus,2,21,,,PracticeSession
1625450866.12,fixation,2,21,,,PracticeSession
1625450866.33,stimulus,1,510,,,RelaxSession
1625450866.83,fixation,1,510,,,RelaxSession
1625450867.62,stimulus,2,22,,,PracticeSession
1625450868.12,fixation,2,22,,,PracticeSession
1625450868.33,stimulus,1,511,,,RelaxSession
1625450868.83,fixation,1,511,,,RelaxSession
1625450869.62,stimulus,2,23,,,PracticeSession
1625450870.12,fixation,2,23,,,PracticeSession
1625450870.33,stimulus,1,512,,,RelaxSession
1625450870.83,fixation,1,512,,,RelaxSession
1625450871.62,stimulus,2,24,,,PracticeSession
1625450872.12,fixation,2,24,,,PracticeSession
1625450872.33,stimulus,1,513,,,RelaxSession
1625450872.83,fixation,1,513,,,RelaxSession
1625450873.62,stimulus,2,25,,,PracticeSession
1625450874.12,fixation,2,25,,,PracticeSession
1625450874.33,stimulus,1,514,,,RelaxSession
1625450874.83,fixation,1,514,,,RelaxSession
1625450875.62,stimulus,2,26,,,PracticeSession
1625450876.12,fixation,2,26,,,PracticeSession
1625450876.33,stimulus,1,515,,,RelaxSession
1625450876.83,fixation,1,515,,,RelaxSession
1625450877.62,stimulus,2,27,,,PracticeSession
1625450878.12,fixation,2,27,,,PracticeSession
1625450878.33,stimulus,1,516,,,RelaxSession
1625450878.83,fixation,1,516,,,RelaxSession
1625450879.62,stimulus,2,28,,,PracticeSession
1625450880.12,fixation,2,28,,,PracticeSession
1625450880.33,stimulus,1,517,,,RelaxSession
1625450880.83,fixation,1,517,,,RelaxSession
1625450881.62,stimulus,2,29,,,PracticeSession
1625450882.12,fixation,2,29,,,PracticeSession
1625450882.33,stimulus,1,518,,,RelaxSession
1625450882.83,fixation,1,518,,,RelaxSession
1625450883.62,stimulus,2,30,,,PracticeSession
1625450884.12,fixation,2,30,,,PracticeSession
1625450884.33,stimulus,1,519,,,RelaxSession
1625450884.83,fixation,1,519,,,RelaxSession
1625450885.62,stimulus,2,31,,,PracticeSession
1625450886.12,fixation,2,31,,,PracticeSession
1625450886.33,stimulus,1,520,,,RelaxSession
1625450886.83,fixation,1,520,,,RelaxSession
1625450887.62,stimulus,2,32,,,PracticeSession
1625450888.12,fixation,2,32,,,PracticeSession
1625450888.33,stimulus,1,521,,,RelaxSession
1625450888.83,fixation,1,521,,,RelaxSession
1625450889.62,stimulus,2,33,,,PracticeSession
1625450890.12,fixation,2,33,,,PracticeSession
1625450890.33,stimulus,1,522,,,RelaxSession
1625450890.83,fixation,1,522,,,RelaxSession
1625450891.62,stimulus,2,34,,,PracticeSession
1625450892.12,fixation,2,34,,,PracticeSession
1625450892.33,stimulus,1,523,,,RelaxSession
1625450892.83,fixation,1,523,,,RelaxSession
1625450893.62,stimulus,2,35,,,PracticeSession
1625450894.12,fixation,2,35,,,PracticeSession
1625450894.33,stimulus,1,524,,,RelaxSession
1625450894.83,fixation,1,524,,,RelaxSession
1625450895.62,stimulus,2,36,,,PracticeSession
1625450896.12,fixation,2,36,,,PracticeSession
1625450896.33,stimulus,1,525,,,RelaxSession
1625450896.83,fixation,1,525,,,RelaxSession
1625450897.62,stimulus,2,37,,,PracticeSession
1625450898.12,fixation,2,37,,,PracticeSession
1625450898.33,stimulus,1,526,,,RelaxSession
1625450898.83,fixation,1,526,,,RelaxSession
1625450899.62,stimulus,2,38,,,PracticeSession
1625450900.12,fixation,2,38,,,PracticeSession
1625450900.33,stimulus,1,527,,,RelaxSession
1625450900.83,fixation,1,527,,,RelaxSession
1625450901.62,stimulus,2,39,,,PracticeSession
1625450902.12,fixation,2,39,,,PracticeSession
1625450902.33,stimulus,1,528,,,RelaxSession
1625450902.83,fixation,1,528,,,RelaxSession
1625450903.62,stimulus,2,40,,,PracticeSession
1625450904.12,fixation,2,40,,,PracticeSession
1625450904.33,stimulus,1,529,,,RelaxSession
1625450904.83,fixation,1,529,,,RelaxSession
1625450905.62,stimulus,2,41,,,PracticeSession
1625450906.12,fixation,2,41,,,PracticeSession
1625450906.33,stimulus,1,530,,,RelaxSession
1625450906.83,fixation,1,530,,,RelaxSession
1625450907.62,stimulus,2,42,,,PracticeSession
1625450908.12,fixation,2,42,,,PracticeSession
1625450908.33,stimulus,1,531,,,RelaxSession
1625450908.83,fixation,1,531,,,RelaxSession
1625450909.62,stimulus,2,43,,,PracticeSession
1625450910.12,fixation,2,43,,,PracticeSession
1625450910.33,stimulus,1,532,,,RelaxSession
1625450910.83,fixation,1,532,,,RelaxSession
1625450911.62,stimulus,2,44,,,PracticeSession
1625450912.12,fixation,2,44,,,PracticeSession
1625450912.33,stimulus,1,533,,,RelaxSession
1625450912.83,fixation,1,533,,,RelaxSession
1625450913.62,stimulus,2,45,,,NoMusic
1625450914.12,fixation,2,45,,,NoMusic
1625450914.33,stimulus,1,534,,,RelaxSession
1625450914.83,fixation,1,534,,,RelaxSession
1625450915.62,stimulus,2,46,,,NoMusic
1625450916.12,fixation,2,46,,,NoMusic
1625450916.33,stimulus,1,535,,,RelaxSession
1625450916.83,fixation,1,535,,,RelaxSession
1625450917.62,stimulus,2,47,,,NoMusic
1625450918.12,fixation,2,47,,,NoMusic
1625450918.33,stimulus,1,536,,,RelaxSession
1625450918.83,fixation,1,536,,,RelaxSession
1625450919.62,stimulus,2,48,,,NoMusic
1625450920.12,fixation,2,48,,,NoMusic
1625450920.33,stimulus,1,537,,,RelaxSession
1625450920.83,fixation,1,537,,,RelaxSession
1625450921.62,stimulus,2,49,,,NoMusic
1625450922.12,fixation,2,49,,,NoMusic
1625450922.33,stimulus,1,538,,,RelaxSession
1625450922.83,fixation,1,538,,,RelaxSession
1625450923.62,stimulus,2,50,,,NoMusic
1625450924.12,fixation,2,50,,,NoMusic
1625450924.33,stimulus,1,539,,,RelaxSession
1625450924.83,fixation,1,539,,,RelaxSession
1625450925.62,stimulus,2,51,,,NoMusic
1625450926.12,fixation,2,51,,,NoMusic
1625450926.33,stimulus,1,540,,,RelaxSession
1625450926.83,fixation,1,540,,,RelaxSession
1625450927.62,stimulus,2,52,,,NoMusic
1625450928.12,fixation,2,52,,,NoMusic
1625450928.33,stimulus,1,541,,,RelaxSession
1625450928.83,fixation,1,541,,,RelaxSession
1625450929.62,stimulus,2,53,,,NoMusic
1625450930.12,fixation,2,53,,,NoMusic
1625450930.33,stimulus,1,542,,,RelaxSession
1625450930.83,fixation,1,542,,,RelaxSession
1625450931.62,stimulus,2,54,,,NoMusic
1625450932.12,fixation,2,54,,,NoMusic
1625450932.33,stimulus,1,543,,,RelaxSession
1625450932.83,fixation,1,543,,,RelaxSession
1625450933.62,stimulus,2,55,,,NoMusic
1625450934.12,fixation,2,55,,,NoMusic
1625450934.33,stimulus,1,544,,,RelaxSession
1625450934.83,fixation,1,544,,,RelaxSession
1625450935.62,stimulus,2,56,,,NoMusic
1625450936.12,fixation,2,56,,,NoMusic
1625450936.33,stimulus,1,545,,,RelaxSession
1625450936.83,fixation,1,545,,,RelaxSession
1625450937.62,stimulus,2,57,,,NoMusic
1625450938.12,fixation,2,57,,,NoMusic
1625450938.33,stimulus,1,546,,,RelaxSession
1625450938.83,fixation,1,546,,,RelaxSession
1625450939.62,stimulus,2,58,,,NoMusic
1625450940.12,fixation,2,58,,,NoMusic
1625450940.33,stimulus,1,547,,,RelaxSession
1625450940.83,fixation,1,547,,,RelaxSession
1625450941.62,stimulus,2,59,,,NoMusic
1625450942.12,fixation,2,59,,,NoMusic
1625450942.33,stimulus,1,548,,,RelaxSession
1625450942.83,fixation,1,548,,,RelaxSession
1625450943.62,stimulus,2,60,,,NoMusic
1625450944.12,fixation,2,60,,,NoMusic
1625450944.33,stimulus,1,549,,,RelaxSession
1625450944.83,fixation,1,549,,,RelaxSession
1625450945.62,stimulus,2,61,,,NoMusic
1625450946.12,fixation,2,61,,,NoMusic
1625450946.33,stimulus,1,550,,,RelaxSession
1625450946.83,fixation,1,550,,,RelaxSession
1625450947.62,stimulus,2,62,,,NoMusic
1625450948.12,fixation,2,62,,,NoMusic
1625450948.33,stimulus,1,551,,,RelaxSession
1625450948.83,fixation,1,551,,,RelaxSession
1625450949.62,stimulus,2,63,,,NoMusic
1625450950.12,fixation,2,63,,,NoMusic
1625450950.33,stimulus,1,552,,,RelaxSession
1625450950.83,fixation,1,552,,,RelaxSession
1625450951.62,stimulus,2,64,,,NoMusic
1625450952.12,fixation,2,64,,,NoMusic
1625450952.33,stimulus,1,553,,,RelaxSession
1625450952.83,fixation,1,553,,,RelaxSession
1625450953.62,stimulus,2,65,,,NoMusic
1625450954.12,fixation,2,65,,,NoMusic
1625450954.33,stimulus,1,554,,,RelaxSession
1625450954.83,fixation,1,554,,,RelaxSession
1625450955.62,stimulus,2,66,,,NoMusic
1625450956.12,fixation,2,66,,,NoMusic
1625450956.33,stimulus,1,555,,,RelaxSession
1625450956.83,fixation,1,555,,,RelaxSession
1625450957.62,stimulus,2,67,,,NoMusic
1625450958.12,fixation,2,67,,,NoMusic
1625450958.33,stimulus,1,556,,,RelaxSession
1625450958.83,fixation,1,556,,,RelaxSession
1625450959.62,stimulus,2,68,,,NoMusic
1625450960.12,fixation,2,68,,,NoMusic
1625450960.33,stimulus,1,557,,,RelaxSession
1625450960.83,fixation,1,557,,,RelaxSession
1625450961.62,stimulus,2,69,,,NoMusic
1625450962.12,fixation,2,69,,,NoMusic
1625450962.33,stimulus,1,558,,,RelaxSession
1625450962.83,fixation,1,558,,,RelaxSession
1625450963.62,stimulus,2,70,,,NoMusic
1625450964.12,fixation,2,70,,,NoMusic
1625450964.33,stimulus,1,559,,,RelaxSession
1625450964.83,fixation,1,559,,,RelaxSession
1625450965.62,stimulus,2,71,,,NoMusic
1625450966.12,fixation,2,71,,,NoMusic
1625450966.33,stimulus,1,560,,,RelaxSession
1625450966.83,fixation,1,560,,,RelaxSession
1625450967.62,stimulus,2,72,,,NoMusic
1625450968.12,fixation,2,72,,,NoMusic
1625450968.33,stimulus,1,561,,,RelaxSession
1625450968.83,fixation,1,561,,,RelaxSession
1625450969.62,stimulus,2,73,,,NoMusic
1625450970.12,fixation,2,73,,,NoMusic
1625450970.33,stimulus,1,562,,,RelaxSession
1625450970.83,fixation,1,562,,,RelaxSession
1625450971.62,stimulus,2,74,,,NoMusic
1625450972.12,fixation,2,74,,,NoMusic
1625450972.33,stimulus,1,563,,,RelaxSession
1625450972.83,fixation,1,563,,,RelaxSession
1625450973.62,stimulus,2,75,,,NoMusic
1625450974.12,fixation,2,75,,,NoMusic
1625450974.33,stimulus,1,564,,,RelaxSession
1625450974.83,fixation,1,564,,,RelaxSession
1625450975.62,stimulus,2,76,,,NoMusic
1625450976.12,fixation,2,76,,,NoMusic
1625450976.33,stimulus,1,565,,,RelaxSession
1625450976.83,fixation,1,565,,,RelaxSession
1625450977.62,stimulus,2,77,,,NoMusic
1625450978.12,fixation,2,77,,,NoMusic
1625450978.33,stimulus,1,566,,,RelaxSession
1625450978.83,fixation,1,566,,,RelaxSession
1625450979.62,stimulus,2,78,,,NoMusic
1625450980.12,fixation,2,78,,,NoMusic
1625450980.33,stimulus,1,567,,,RelaxSession
1625450980.83,fixation,1,567,,,RelaxSession
1625450981.62,stimulus,2,79,,,NoMusic
1625450982.12,fixation,2,79,,,NoMusic
1625450982.33,stimulus,1,568,,,RelaxSession
1625450982.83,fixation,1,568,,,RelaxSession
1625450983.62,stimulus,2,80,,,NoMusic
1625450984.12,fixation,2,80,,,NoMusic
1625450984.33,stimulus,1,569,,,RelaxSession
1625450984.83,fixation,1,569,,,RelaxSession
1625450985.62,stimulus,2,81,,,NoMusic
1625450986.12,fixation,2,81,,,NoMusic
1625450986.33,stimulus,1,570,,,RelaxSession
1625450986.83,fixation,1,570,,,RelaxSession
1625450987.62,stimulus,2,82,,,NoMusic
1625450988.12,fixation,2,82,,,NoMusic
1625450988.33,stimulus,1,571,,,RelaxSession
1625450988.83,fixation,1,571,,,RelaxSession
1625450989.62,stimulus,2,83,,,NoMusic
1625450990.12,fixation,2,83,,,NoMusic
1625450990.33,stimulus,1,572,,,RelaxSession
1625450990.83,fixation,1,572,,,RelaxSession
1625450991.62,stimulus,2,84,,,NoMusic
1625450992.12,fixation,2,84,,,NoMusic
1625450992.33,stimulus,1,573,,,RelaxSession
1625450992.83,fixation,1,573,,,RelaxSession
1625450993.62,stimulus,2,85,,,NoMusic
1625450994.12,fixation,2,85,,,NoMusic
1625450994.33,stimulus,1,574,,,RelaxSession
1625450994.83,fixation,1,574,,,RelaxSession
1625450995.62,stimulus,2,86,,,NoMusic
1625450996.12,fixation,2,86,,,NoMusic
1625450996.33,stimulus,1,575,,,RelaxSession
1625450996.83,fixation,1,575,,,RelaxSession
1625450997.62,stimulus,2,87,,,NoMusic
1625450998.12,fixation,2,87,,,NoMusic
1625450998.33,stimulus,1,576,,,RelaxSession
1625450998.83,fixation,1,576,,,RelaxSession
1625450999.62,stimulus,2,88,,,NoMusic
1625451000.12,fixation,2,88,,,NoMusic
1625451000.33,stimulus,1,577,,,RelaxSession
1625451000.83,fixation,1,577,,,RelaxSession
1625451001.62,stimulus,2,89,,,NoMusic
1625451002.12,fixation,2,89,,,NoMusic
1625451002.33,stimulus,1,578,,,RelaxSession
1625451002.83,fixation,1,578,,,RelaxSession
1625451003.62,stimulus,2,90,,,NoMusic
1625451004.12,fixation,2,90,,,NoMusic
1625451004.33,stimulus,1,579,,,RelaxSession
1625451004.83,fixation,1,579,,,RelaxSession
1625451005.62,stimulus,2,91,,,NoMusic
1625451006.12,fixation,2,91,,,NoMusic
1625451006.33,stimulus,1,580,,,RelaxSession
1625451006.83,fixation,1,580,,,RelaxSession
1625451007.62,stimulus,2,92,,,NoMusic
1625451008.12,fixation,2,92,,,NoMusic
1625451008.33,stimulus,1,581,,,RelaxSession
1625451008.83,fixation,1,581,,,RelaxSession
1625451009.62,stimulus,2,93,,,NoMusic
1625451010.12,fixation,2,93,,,NoMusic
1625451010.33,stimulus,1,582,,,RelaxSession
1625451010.83,fixation,1,582,,,RelaxSession
1625451011.62,stimulus,2,94,,,NoMusic
1625451012.12,fixation,2,94,,,NoMusic
1625451012.33,stimulus,1,583,,,RelaxSession
1625451012.48,stimulus,3,1,,,PracticeSession
1625451012.83,fixation,1,583,,,RelaxSession
1625451012.98,fixation,3,1,,,PracticeSession
1625451013.62,stimulus,2,95,,,NoMusic
1625451014.12,fixation,2,95,,,NoMusic
1625451014.33,stimulus,1,584,,,RelaxSession
1625451014.48,stimulus,3,2,,,PracticeSession
1625451014.83,fixation,1,584,,,RelaxSession
1625451014.98,fixation,3,2,,,PracticeSession
1625451015.62,stimulus,2,96,,,NoMusic
1625451016.12,fixation,2,96,,,NoMusic
1625451016.33,stimulus,1,585,,,RelaxSession
1625451016.48,stimulus,3,3,,,PracticeSession
1625451016.83,fixation,1,585,,,RelaxSession
1625451016.98,fixation,3,3,,,PracticeSession
1625451017.62,stimulus,2,97,,,NoMusic
1625451018.12,fixation,2,97,,,NoMusic
1625451018.33,stimulus,1,586,,,RelaxSession
1625451018.48,stimulus,3,4,,,PracticeSession
1625451018.83,fixation,1,586,,,RelaxSession
1625451018.98,fixation,3,4,,,PracticeSession
1625451019.62,stimulus,2,98,,,NoMusic
1625451020.12,fixation,2,98,,,NoMusic
1625451020.33,stimulus,1,587,,,RelaxSession
1625451020.48,stimulus,3,5,,,PracticeSession
1625451020.83,fixation,1,587,,,RelaxSession
1625451020.98,fixation,3,5,,,PracticeSession
1625451021.62,stimulus,2,99,,,NoMusic
1625451022.12,fixation,2,99,,,NoMusic
1625451022.33,stimulus,1,588,,,RelaxSession
1625451022.48,stimulus,3,6,,,PracticeSession
1625451022.83,fixation,1,588,,,RelaxSession
1625451022.98,fixation,3,6,,,PracticeSession
1625451023.62,stimulus,2,100,,,NoMusic
1625451024.12,fixation,2,100,,,NoMusic
1625451024.33,stimulus,1,589,,,RelaxSession
1625451024.48,stimulus,3,7,,,PracticeSession
1625451024.83,fixation,1,589,,,RelaxSession
1625451024.98,fixation,3,7,,,PracticeSession
1625451025.62,stimulus,2,101,,,NoMusic
1625451026.12,fixation,2,101,,,NoMusic
1625451026.33,stimulus,1,590,,,RelaxSession
1625451026.48,stimulus,3,8,,,PracticeSession
1625451026.83,fixation,1,590,,,RelaxSession
1625451026.98,fixation,3,8,,,PracticeSession
1625451027.62,stimulus,2,102,,,NoMusic
1625451028.12,fixation,2,102,,,NoMusic
1625451028.33,stimulus,1,591,,,RelaxSession
1625451028.48,stimulus,3,9,,,PracticeSession
1625451028.83,fixation,1,591,,,RelaxSession
1625451028.98,fixation,3,9,,,PracticeSession
1625451029.62,stimulus,2,103,,,NoMusic
1625451030.12,fixation,2,103,,,NoMusic
1625451030.33,stimulus,1,592,,,RelaxSession
1625451030.48,stimulus,3,10,,,PracticeSession
1625451030.83,fixation,1,592,,,RelaxSession
1625451030.98,fixation,3,10,,,PracticeSession
1625451031.62,stimulus,2,104,,,NoMusic
1625451032.12,fixation,2,104,,,NoMusic
1625451032.33,stimulus,1,593,,,RelaxSession
1625451032.48,stimulus,3,11,,,PracticeSession
1625451032.83,fixation,1,593,,,RelaxSession
1625451032.98,fixation,3,11,,,PracticeSession
1625451033.62,stimulus,2,105,,,NoMusic
1625451034.12,fixation,2,105,,,NoMusic
1625451034.33,stimulus,1,594,,,RelaxSession
1625451034.48,stimulus,3,12,,,PracticeSession
1625451034.83,fixation,1,594,,,RelaxSession
1625451034.98,fixation,3,12,,,PracticeSession
1625451035.62,stimulus,2,106,,,NoMusic
1625451036.12,fixation,2,106,,,NoMusic
1625451036.33,stimulus,1,595,,,RelaxSession
1625451036.48,stimulus,3,13,,,PracticeSession
1625451036.83,fixation,1,595,,,RelaxSession
1625451036.98,fixation,3,13,,,PracticeSession
1625451037.62,stimulus,2,107,,,NoMusic
1625451038.12,fixation,2,107,,,NoMusic
1625451038.33,stimulus,1,596,,,RelaxSession
1625451038.48,stimulus,3,14,,,PracticeSession
1625451038.83,fixation,1,596,,,RelaxSession
1625451038.98,fixation,3,14,,,PracticeSession
1625451039.62,stimulus,2,108,,,NoMusic
1625451040.12,fixation,2,108,,,NoMusic
1625451040.33,stimulus,1,597,,,RelaxSession
1625451040.48,stimulus,3,15,,,PracticeSession
1625451040.83,fixation,1,597,,,RelaxSession
1625451040.98,fixation,3,15,,,PracticeSession
1625451041.62,stimulus,2,109,,,NoMusic
1625451042.12,fixation,2,109,,,NoMusic
1625451042.33,stimulus,1,598,,,RelaxSession
1625451042.48,stimulus,3,16,,,PracticeSession
1625451042.83,fixation,1,598,,,RelaxSession
1625451042.98,fixation,3,16,,,PracticeSession
1625451043.62,stimulus,2,110,,,NoMusic
1625451044.12,fixation,2,110,,,NoMusic
1625451044.33,stimulus,1,599,,,RelaxSession
1625451044.48,stimulus,3,17,,,PracticeSession
1625451044.83,fixation,1,599,,,RelaxSession
1625451044.98,fixation,3,17,,,PracticeSession
1625451045.62,stimulus,2,111,,,NoMusic
1625451046.12,fixation,2,111,,,NoMusic
1625451046.33,stimulus,1,600,,,RelaxSession
1625451046.48,stimulus,3,18,,,PracticeSession
1625451046.83,fixation,1,600,,,RelaxSession
1625451046.98,fixation,3,18,,,PracticeSession
1625451047.62,stimulus,2,112,,,NoMusic
1625451048.12,fixation,2,112,,,NoMusic
1625451048.33,stimulus,1,601,,,RelaxSession
1625451048.48,stimulus,3,19,,,PracticeSession
1625451048.83,fixation,1,601,,,RelaxSession
1625451048.98,fixation,3,19,,,PracticeSession
1625451049.62,stimulus,2,113,,,NoMusic
1625451050.12,fixation,2,113,,,NoMusic
1625451050.33,stimulus,1,602,,,RelaxSession
1625451050.48,stimulus,3,20,,,PracticeSession
1625451050.83,fixation,1,602,,,RelaxSession
1625451050.98,fixation,3,20,,,PracticeSession
1625451051.62,stimulus,2,114,,,NoMusic
1625451052.12,fixation,2,114,,,NoMusic
1625451052.33,stimulus,1,603,,,RelaxSession
1625451052.48,stimulus,3,21,,,PracticeSession
1625451052.83,fixation,1,603,,,RelaxSession
1625451052.98,fixation,3,21,,,PracticeSession
1625451053.62,stimulus,2,115,,,NoMusic
1625451054.12,fixation,2,115,,,NoMusic
1625451054.33,stimulus,1,604,,,RelaxSession
1625451054.48,stimulus,3,22,,,PracticeSession
1625451054.83,fixation,1,604,,,RelaxSession
1625451054.98,fixation,3,22,,,PracticeSession
1625451055.62,stimulus,2,116,,,NoMusic
1625451056.12,fixation,2,116,,,NoMusic
1625451056.33,stimulus,1,605,,,RelaxSession
1625451056.48,stimulus,3,23,,,PracticeSession
1625451056.83,fixation,1,605,,,RelaxSession
1625451056.98,fixation,3,23,,,PracticeSession
1625451057.62,stimulus,2,117,,,NoMusic
1625451058.12,fixation,2,117,,,NoMusic
1625451058.33,stimulus,1,606,,,RelaxSession
1625451058.48,stimulus,3,24,,,PracticeSession
1625451058.83,fixation,1,606,,,RelaxSession
1625451058.98,fixation,3,24,,,PracticeSession
1625451059.62,stimulus,2,118,,,NoMusic
1625451060.12,fixation,2,118,,,NoMusic
1625451060.33,stimulus,1,607,,,RelaxSession
1625451060.48,stimulus,3,25,,,PracticeSession
1625451060.83,fixation,1,607,,,RelaxSession
1625451060.98,fixation,3,25,,,PracticeSession
1625451061.62,stimulus,2,119,,,NoMusic
1625451062.12,fixation,2,119,,,NoMusic
1625451062.33,stimulus,1,608,,,RelaxSession
1625451062.48,stimulus,3,26,,,PracticeSession
1625451062.83,fixation,1,608,,,RelaxSession
1625451062.98,fixation,3,26,,,PracticeSession
1625451063.62,stimulus,2,120,,,NoMusic
1625451064.12,fixation,2,120,,,NoMusic
1625451064.33,stimulus,1,609,,,RelaxSession
1625451064.48,stimulus,3,27,,,PracticeSession
1625451064.83,fixation,1,609,,,RelaxSession
1625451064.98,fixation,3,27,,,PracticeSession
1625451065.62,stimulus,2,121,,,NoMusic
1625451066.12,fixation,2,121,,,NoMusic
1625451066.33,stimulus,1,610,,,RelaxSession
1625451066.48,stimulus,3,28,,,PracticeSession
1625451066.83,fixation,1,610,,,RelaxSession
1625451066.98,fixation,3,28,,,PracticeSession
1625451067.62,stimulus,2,122,,,NoMusic
1625451068.12,fixation,2,122,,,NoMusic
1625451068.33,stimulus,1,611,,,RelaxSession
1625451068.48,stimulus,3,29,,,PracticeSession
1625451068.83,fixation,1,611,,,RelaxSession
1625451068.98,fixation,3,29,,,PracticeSession
1625451069.62,stimulus,2,123,,,NoMusic
1625451070.12,fixation,2,123,,,NoMusic
1625451070.33,stimulus,1,612,,,RelaxSession
1625451070.48,stimulus,3,30,,,PracticeSession
1625451070.83,fixation,1,612,,,RelaxSession
1625451070.98,fixation,3,30,,,PracticeSession
1625451071.62,stimulus,2,124,,,NoMusic
1625451072.12,fixation,2,124,,,NoMusic
1625451072.33,stimulus,1,613,,,RelaxSession
1625451072.48,stimulus,3,31,,,PracticeSession
1625451072.83,fixation,1,613,,,RelaxSession
1625451072.98,fixation,3,31,,,PracticeSession
1625451073.62,stimulus,2,125,,,NoMusic
1625451074.12,fixation,2,125,,,NoMusic
1625451074.33,stimulus,1,614,,,RelaxSession
1625451074.48,stimulus,3,32,,,PracticeSession
1625451074.83,fixation,1,614,,,RelaxSession
1625451074.98,fixation,3,32,,,PracticeSession
1625451075.62,stimulus,2,126,,,NoMusic
1625451076.12,fixation,2,126,,,NoMusic
1625451076.33,stimulus,1,615,,,RelaxSession
1625451076.48,stimulus,3,33,,,PracticeSession
1625451076.83,fixation,1,615,,,RelaxSession
1625451076.98,fixation,3,33,,,PracticeSession
1625451077.62,stimulus,2,127,,,NoMusic
1625451078.12,fixation,2,127,,,NoMusic
1625451078.33,stimulus,1,616,,,RelaxSession
1625451078.48,stimulus,3,34,,,PracticeSession
1625451078.83,fixation,1,616,,,RelaxSession
1625451078.98,fixation,3,34,,,PracticeSession
1625451079.62,stimulus,2,128,,,NoMusic
1625451080.12,fixation,2,128,,,NoMusic
1625451080.33,stimulus,1,617,,,RelaxSession
1625451080.48,stimulus,3,35,,,PracticeSession
1625451080.83,fixation,1,617,,,RelaxSession
1625451080.98,fixation,3,35,,,PracticeSession
1625451081.62,stimulus,2,129,,,NoMusic
1625451082.12,fixation,2,129,,,NoMusic
1625451082.33,stimulus,1,618,,,RelaxSession
1625451082.48,stimulus,3,36,,,PracticeSession
1625451082.83,fixation,1,618,,,RelaxSession
1625451082.98,fixation,3,36,,,PracticeSession
1625451083.62,stimulus,2,130,,,NoMusic
1625451084.12,fixation,2,130,,,NoMusic
1625451084.33,stimulus,1,619,,,RelaxSession
1625451084.48,stimulus,3,37,,,PracticeSession
1625451084.83,fixation,1,619,,,RelaxSession
1625451084.98,fixation,3,37,,,PracticeSession
1625451085.62,stimulus,2,131,,,NoMusic
1625451086.12,fixation,2,131,,,NoMusic
1625451086.33,stimulus,1,620,,,RelaxSession
1625451086.48,stimulus,3,38,,,PracticeSession
1625451086.83,fixation,1,620,,,RelaxSession
1625451086.98,fixation,3,38,,,PracticeSession
1625451087.62,stimulus,2,132,,,NoMusic
1625451088.12,fixation,2,132,,,NoMusic
1625451088.33,stimulus,1,621,,,RelaxSession
1625451088.48,stimulus,3,39,,,PracticeSession
1625451088.83,fixation,1,621,,,RelaxSession
1625451088.98,fixation,3,39,,,PracticeSession
1625451089.62,stimulus,2,133,,,NoMusic
1625451090.12,fixation,2,133,,,NoMusic
1625451090.33,stimulus,1,622,,,RelaxSession
1625451090.48,stimulus,3,40,,,PracticeSession
1625451090.83,fixation,1,622,,,RelaxSession
1625451090.98,fixation,3,40,,,PracticeSession
1625451091.62,stimulus,2,134,,,NoMusic
1625451092.12,fixation,2,134,,,NoMusic
1625451092.33,stimulus,1,623,,,RelaxSession
1625451092.48,stimulus,3,41,,,PracticeSession
1625451092.83,fixation,1,623,,,RelaxSession
1625451092.98,fixation,3,41,,,PracticeSession
1625451093.62,stimulus,2,135,,,NoMusic
1625451094.12,fixation,2,135,,,NoMusic
1625451094.33,stimulus,1,624,,,RelaxSession
1625451094.48,stimulus,3,42,,,PracticeSession
1625451094.83,fixation,1,624,,,RelaxSession
1625451094.98,fixation,3,42,,,PracticeSession
1625451095.62,stimulus,2,136,,,NoMusic
1625451096.12,fixation,2,136,,,NoMusic
1625451096.33,stimulus,1,625,,,RelaxSession
1625451096.48,stimulus,3,43,,,PracticeSession
1625451096.83,fixation,1,625,,,RelaxSession
1625451096.98,fixation,3,43,,,PracticeSession
1625451097.62,stimulus,2,137,,,NoMusic
1625451098.12,fixation,2,137,,,NoMusic
1625451098.33,stimulus,1,626,,,RelaxSession
1625451098.48,stimulus,3,44,,,PracticeSession
1625451098.83,fixation,1,626,,,RelaxSession
1625451098.98,fixation,3,44,,,PracticeSession
1625451099.62,stimulus,2,138,,,NoMusic
1625451100.12,fixation,2,138,,,NoMusic
1625451100.33,stimulus,1,627,,,RelaxSession
1625451100.48,stimulus,3,45,,,NoMusic
1625451100.83,fixation,1,627,,,RelaxSession
1625451100.98,fixation,3,45,,,NoMusic
1625451101.62,stimulus,2,139,,,NoMusic
1625451102.12,fixation,2,139,,,NoMusic
1625451102.33,stimulus,1,628,,,RelaxSession
1625451102.48,stimulus,3,46,,,NoMusic
1625451102.83,fixation,1,628,,,RelaxSession
1625451102.98,fixation,3,46,,,NoMusic
1625451103.62,stimulus,2,140,,,NoMusic
1625451104.12,fixation,2,140,,,NoMusic
1625451104.33,stimulus,1,629,,,RelaxSession
1625451104.48,stimulus,3,47,,,NoMusic
1625451104.83,fixation,1,629,,,RelaxSession
1625451104.98,fixation,3,47,,,NoMusic
1625451105.62,stimulus,2,141,,,NoMusic
1625451106.12,fixation,2,141,,,NoMusic
1625451106.33,stimulus,1,630,,,RelaxSession
1625451106.48,stimulus,3,48,,,NoMusic
1625451106.83,fixation,1,630,,,RelaxSession
1625451106.98,fixation,3,48,,,NoMusic
1625451107.62,stimulus,2,142,,,NoMusic
1625451108.12,fixation,2,142,,,NoMusic
1625451108.33,stimulus,1,631,,,RelaxSession
1625451108.48,stimulus,3,49,,,NoMusic
1625451108.83,fixation,1,631,,,RelaxSession
1625451108.98,fixation,3,49,,,NoMusic
1625451109.62,stimulus,2,143,,,NoMusic
1625451110.12,fixation,2,143,,,NoMusic
1625451110.33,stimulus,1,632,,,RelaxSession
1625451110.48,stimulus,3,50,,,NoMusic
1625451110.83,fixation,1,632,,,RelaxSession
1625451110.98,fixation,3,50,,,NoMusic
1625451111.62,stimulus,2,144,,,NoMusic
1625451112.12,fixation,2,144,,,NoMusic
1625451112.33,stimulus,1,633,,,RelaxSession
1625451112.48,stimulus,3,51,,,NoMusic
1625451112.83,fixation,1,633,,,RelaxSession
1625451112.98,fixation,3,51,,,NoMusic
1625451113.62,stimulus,2,145,,,NoMusic
1625451114.12,fixation,2,145,,,NoMusic
1625451114.33,stimulus,1,634,,,RelaxSession
1625451114.48,stimulus,3,52,,,NoMusic
1625451114.83,fixation,1,634,,,RelaxSession
1625451114.98,fixation,3,52,,,NoMusic
1625451115.62,stimulus,2,146,,,NoMusic
1625451116.12,fixation,2,146,,,NoMusic
1625451116.33,stimulus,1,635,,,RelaxSession
1625451116.48,stimulus,3,53,,,NoMusic
1625451116.83,fixation,1,635,,,RelaxSession
1625451116.98,fixation,3,53,,,NoMusic
1625451117.62,stimulus,2,147,,,NoMusic
1625451118.12,fixation,2,147,,,NoMusic
1625451118.33,stimulus,1,636,,,RelaxSession
1625451118.48,stimulus,3,54,,,NoMusic
1625451118.83,fixation,1,636,,,RelaxSession
1625451118.98,fixation,3,54,,,NoMusic
1625451119.62,stimulus,2,148,,,NoMusic
1625451120.12,fixation,2,148,,,NoMusic
1625451120.33,stimulus,1,637,,,RelaxSession
1625451120.48,stimulus,3,55,,,NoMusic
1625451120.83,fixation,1,637,,,RelaxSession
1625451120.98,fixation,3,55,,,NoMusic
1625451121.62,stimulus,2,149,,,NoMusic
1625451122.12,fixation,2,149,,,NoMusic
1625451122.33,stimulus,1,638,,,RelaxSession
1625451122.48,stimulus,3,56,,,NoMusic
1625451122.83,fixation,1,638,,,RelaxSession
1625451122.98,fixation,3,56,,,NoMusic
1625451123.62,stimulus,2,150,,,NoMusic
1625451124.12,fixation,2,150,,,NoMusic
1625451124.33,stimulus,1,639,,,RelaxSession
1625451124.48,stimulus,3,57,,,NoMusic
1625451124.83,fixation,1,639,,,RelaxSession
1625451124.98,fixation,3,57,,,NoMusic
1625451125.62,stimulus,2,151,,,NoMusic
1625451126.12,fixation,2,151,,,NoMusic
1625451126.33,stimulus,1,640,,,RelaxSession
1625451126.48,stimulus,3,58,,,NoMusic
1625451126.83,fixation,1,640,,,RelaxSession
1625451126.98,fixation,3,58,,,NoMusic
1625451127.62,stimulus,2,152,,,NoMusic
1625451128.12,fixation,2,152,,,NoMusic
1625451128.33,stimulus,1,641,,,RelaxSession
1625451128.48,stimulus,3,59,,,NoMusic
1625451128.83,fixation,1,641,,,RelaxSession
1625451128.98,fixation,3,59,,,NoMusic
1625451129.62,stimulus,2,153,,,NoMusic
1625451130.12,fixation,2,153,,,NoMusic
1625451130.33,stimulus,1,642,,,RelaxSession
1625451130.48,stimulus,3,60,,,NoMusic
1625451130.83,fixation,1,642,,,RelaxSession
1625451130.98,fixation,3,60,,,NoMusic
1625451131.62,stimulus,2,154,,,NoMusic
1625451132.12,fixation,2,154,,,NoMusic
1625451132.33,stimulus,1,643,,,RelaxSession
1625451132.48,stimulus,3,61,,,NoMusic
1625451132.83,fixation,1,643,,,RelaxSession
1625451132.98,fixation,3,61,,,NoMusic
1625451133.62,stimulus,2,155,,,NoMusic
1625451134.12,fixation,2,155,,,NoMusic
1625451134.33,stimulus,1,644,,,RelaxSession
1625451134.48,stimulus,3,62,,,NoMusic
1625451134.83,fixation,1,644,,,RelaxSession
1625451134.98,fixation,3,62,,,NoMusic
1625451135.62,stimulus,2,156,,,NoMusic
1625451136.12,fixation,2,156,,,NoMusic
1625451136.33,stimulus,1,645,,,RelaxSession
1625451136.48,stimulus,3,63,,,NoMusic
1625451136.83,fixation,1,645,,,RelaxSession
1625451136.98,fixation,3,63,,,NoMusic
1625451137.62,stimulus,2,157,,,NoMusic
1625451138.12,fixation,2,157,,,NoMusic
1625451138.33,stimulus,1,646,,,RelaxSession
1625451138.48,stimulus,3,64,,,NoMusic
1625451138.83,fixation,1,646,,,RelaxSession
1625451138.98,fixation,3,64,,,NoMusic
1625451139.62,stimulus,2,158,,,NoMusic
1625451140.12,fixation,2,158,,,NoMusic
1625451140.33,stimulus,1,647,,,RelaxSession
1625451140.48,stimulus,3,65,,,NoMusic
1625451140.83,fixation,1,647,,,RelaxSession
1625451140.98,fixation,3,65,,,NoMusic
1625451141.62,stimulus,2,159,,,NoMusic
1625451142.12,fixation,2,159,,,NoMusic
1625451142.33,stimulus,1,648,,,RelaxSession
1625451142.48,stimulus,3,66,,,NoMusic
1625451142.83,fixation,1,648,,,RelaxSession
1625451142.98,fixation,3,66,,,NoMusic
1625451143.62,stimulus,2,160,,,NoMusic
1625451144.12,fixation,2,160,,,NoMusic
1625451144.33,stimulus,1,649,,,RelaxSession
1625451144.48,stimulus,3,67,,,NoMusic
1625451144.83,fixation,1,649,,,RelaxSession
1625451144.98,fixation,3,67,,,NoMusic
1625451145.62,stimulus,2,161,,,NoMusic
1625451146.12,fixation,2,161,,,NoMusic
1625451146.33,stimulus,1,650,,,RelaxSession
1625451146.48,stimulus,3,68,,,NoMusic
1625451146.83,fixation,1,650,,,RelaxSession
1625451146.98,fixation,3,68,,,NoMusic
1625451147.62,stimulus,2,162,,,NoMusic
1625451148.12,fixation,2,162,,,NoMusic
1625451148.33,stimulus,1,651,,,RelaxSession
1625451148.48,stimulus,3,69,,,NoMusic
1625451148.83,fixation,1,651,,,RelaxSession
1625451148.98,fixation,3,69,,,NoMusic
1625451149.62,stimulus,2,163,,,NoMusic
1625451150.12,fixation,2,163,,,NoMusic
1625451150.33,stimulus,1,652,,,RelaxSession
1625451150.48,stimulus,3,70,,,NoMusic
1625451150.83,fixation,1,652,,,RelaxSession
1625451150.98,fixation,3,70,,,NoMusic
1625451151.62,stimulus,2,164,,,NoMusic
1625451152.12,fixation,2,164,,,NoMusic
1625451152.33,stimulus,1,653,,,RelaxSession
1625451152.48,stimulus,3,71,,,NoMusic
1625451152.83,fixation,1,653,,,RelaxSession
1625451152.98,fixation,3,71,,,NoMusic
1625451153.62,stimulus,2,165,,,NoMusic
1625451154.12,fixation,2,165,,,NoMusic
1625451154.33,stimulus,1,654,,,RelaxSession
1625451154.48,stimulus,3,72,,,NoMusic
1625451154.83,fixation,1,654,,,RelaxSession
1625451154.98,fixation,3,72,,,NoMusic
1625451155.62,stimulus,2,166,,,NoMusic
1625451156.12,fixation,2,166,,,NoMusic
1625451156.33,stimulus,1,655,,,RelaxSession
1625451156.48,stimulus,3,73,,,NoMusic
1625451156.83,fixation,1,655,,,RelaxSession
1625451156.98,fixation,3,73,,,NoMusic
1625451157.62,stimulus,2,167,,,NoMusic
1625451158.12,fixation,2,167,,,NoMusic
1625451158.33,stimulus,1,656,,,RelaxSession
1625451158.48,stimulus,3,74,,,NoMusic
1625451158.83,fixation,1,656,,,RelaxSession
1625451158.98,fixation,3,74,,,NoMusic
1625451159.62,stimulus,2,168,,,NoMusic
1625451160.12,fixation,2,168,,,NoMusic
1625451160.33,stimulus,1,657,,,RelaxSession
1625451160.48,stimulus,3,75,,,NoMusic
1625451160.83,fixation,1,657,,,RelaxSession
1625451160.98,fixation,3,75,,,NoMusic
1625451161.62,stimulus,2,169,,,NoMusic
1625451162.12,fixation,2,169,,,NoMusic
1625451162.33,stimulus,1,658,,,RelaxSession
1625451162.48,stimulus,3,76,,,NoMusic
1625451162.83,fixation,1,658,,,RelaxSession
1625451162.98,fixation,3,76,,,NoMusic
1625451163.62,stimulus,2,170,,,NoMusic
1625451164.12,fixation,2,170,,,NoMusic
1625451164.33,stimulus,1,659,,,RelaxSession
1625451164.48,stimulus,3,77,,,NoMusic
1625451164.83,fixation,1,659,,,RelaxSession
1625451164.98,fixation,3,77,,,NoMusic
1625451165.62,stimulus,2,171,,,NoMusic
1625451166.12,fixation,2,171,,,NoMusic
1625451166.33,stimulus,1,660,,,RelaxSession
1625451166.48,stimulus,3,78,,,NoMusic
1625451166.83,fixation,1,660,,,RelaxSession
1625451166.98,fixation,3,78,,,NoMusic
1625451167.62,stimulus,2,172,,,NoMusic
1625451168.12,fixation,2,172,,,NoMusic
1625451168.33,stimulus,1,661,,,RelaxSession
1625451168.48,stimulus,3,79,,,NoMusic
1625451168.83,fixation,1,661,,,RelaxSession
1625451168.98,fixation,3,79,,,NoMusic
1625451169.62,stimulus,2,173,,,NoMusic
1625451170.12,fixation,2,173,,,NoMusic
1625451170.33,stimulus,1,662,,,RelaxSession
1625451170.48,stimulus,3,80,,,NoMusic
1625451170.83,fixation,1,662,,,RelaxSession
1625451170.98,fixation,3,80,,,NoMusic
1625451171.62,stimulus,2,174,,,NoMusic
1625451172.12,fixation,2,174,,,NoMusic
1625451172.33,stimulus,1,663,,,RelaxSession
1625451172.48,stimulus,3,81,,,NoMusic
1625451172.83,fixation,1,663,,,RelaxSession
1625451172.98,fixation,3,81,,,NoMusic
1625451173.62,stimulus,2,175,,,NoMusic
1625451174.12,fixation,2,175,,,NoMusic
1625451174.33,stimulus,1,664,,,RelaxSession
1625451174.48,stimulus,3,82,,,NoMusic
1625451174.83,fixation,1,664,,,RelaxSession
1625451174.98,fixation,3,82,,,NoMusic
1625451175.62,stimulus,2,176,,,NoMusic
1625451176.12,fixation,2,176,,,NoMusic
1625451176.33,stimulus,1,665,,,RelaxSession
1625451176.48,stimulus,3,83,,,NoMusic
1625451176.83,fixation,1,665,,,RelaxSession
1625451176.98,fixation,3,83,,,NoMusic
1625451177.62,stimulus,2,177,,,NoMusic
1625451178.12,fixation,2,177,,,NoMusic
1625451178.33,stimulus,1,666,,,RelaxSession
1625451178.48,stimulus,3,84,,,NoMusic
1625451178.83,fixation,1,666,,,RelaxSession
1625451178.98,fixation,3,84,,,NoMusic
1625451179.62,stimulus,2,178,,,NoMusic
1625451180.12,fixation,2,178,,,NoMusic
1625451180.33,stimulus,1,667,,,RelaxSession
1625451180.48,stimulus,3,85,,,NoMusic
1625451180.83,fixation,1,667,,,RelaxSession
1625451180.98,fixation,3,85,,,NoMusic
1625451181.62,stimulus,2,179,,,NoMusic
1625451182.12,fixation,2,179,,,NoMusic
1625451182.33,stimulus,1,668,,,RelaxSession
1625451182.48,stimulus,3,86,,,NoMusic
1625451182.83,fixation,1,668,,,RelaxSession
1625451182.98,fixation,3,86,,,NoMusic
1625451183.62,stimulus,2,180,,,NoMusic
1625451184.12,fixation,2,180,,,NoMusic
1625451184.33,stimulus,1,669,,,RelaxSession
1625451184.48,stimulus,3,87,,,NoMusic
1625451184.83,fixation,1,669,,,RelaxSession
1625451184.98,fixation,3,87,,,NoMusic
1625451185.62,stimulus,2,181,,,NoMusic
1625451186.12,fixation,2,181,,,NoMusic
1625451186.33,stimulus,1,670,,,RelaxSession
1625451186.48,stimulus,3,88,,,NoMusic
1625451186.83,fixation,1,670,,,RelaxSession
1625451186.98,fixation,3,88,,,NoMusic
1625451187.62,stimulus,2,182,,,NoMusic
1625451188.12,fixation,2,182,,,NoMusic
1625451188.33,stimulus,1,671,,,RelaxSession
1625451188.48,stimulus,3,89,,,NoMusic
1625451188.83,fixation,1,671,,,RelaxSession
1625451188.98,fixation,3,89,,,NoMusic
1625451189.62,stimulus,2,183,,,NoMusic
1625451190.12,fixation,2,183,,,NoMusic
1625451190.33,stimulus,1,672,,,RelaxSession
1625451190.48,stimulus,3,90,,,NoMusic
1625451190.83,fixation,1,672,,,RelaxSession
1625451190.98,fixation,3,90,,,NoMusic
1625451191.62,stimulus,2,184,,,NoMusic
1625451192.12,fixation,2,184,,,NoMusic
1625451192.33,stimulus,1,673,,,RelaxSession
1625451192.48,stimulus,3,91,,,NoMusic
1625451192.83,fixation,1,673,,,RelaxSession
1625451192.98,fixation,3,91,,,NoMusic
1625451193.62,stimulus,2,185,,,NoMusic
1625451194.12,fixation,2,185,,,NoMusic
1625451194.33,stimulus,1,674,,,RelaxSession
1625451194.48,stimulus,3,92,,,NoMusic
1625451194.83,fixation,1,674,,,RelaxSession
1625451194.98,fixation,3,92,,,NoMusic
1625451195.62,stimulus,2,186,,,NoMusic
1625451196.12,fixation,2,186,,,NoMusic
1625451196.33,stimulus,1,675,,,RelaxSession
1625451196.48,stimulus,3,93,,,NoMusic
1625451196.83,fixation,1,675,,,RelaxSession
1625451196.98,fixation,3,93,,,NoMusic
1625451197.62,stimulus,2,187,,,NoMusic
1625451198.12,fixation,2,187,,,NoMusic
1625451198.33,stimulus,1,676,,,RelaxSession
1625451198.48,stimulus,3,94,,,NoMusic
1625451198.83,fixation,1,676,,,RelaxSession
1625451198.98,fixation,3,94,,,NoMusic
1625451199.62,stimulus,2,188,,,NoMusic
1625451200.12,fixation,2,188,,,NoMusic
1625451200.33,stimulus,1,677,,,RelaxSession
1625451200.48,stimulus,3,95,,,NoMusic
1625451200.83,fixation,1,677,,,RelaxSession
1625451200.98,fixation,3,95,,,NoMusic
1625451201.62,stimulus,2,189,,,NoMusic
1625451202.12,fixation,2,189,,,NoMusic
1625451202.33,stimulus,1,678,,,RelaxSession
1625451202.48,stimulus,3,96,,,NoMusic
1625451202.83,fixation,1,678,,,RelaxSession
1625451202.98,fixation,3,96,,,NoMusic
1625451203.62,stimulus,2,190,,,NoMusic
1625451204.12,fixation,2,190,,,NoMusic
1625451204.33,stimulus,1,679,,,RelaxSession
1625451204.48,stimulus,3,97,,,NoMusic
1625451204.83,fixation,1,679,,,RelaxSession
1625451204.98,fixation,3,97,,,NoMusic
1625451205.62,stimulus,2,191,,,NoMusic
1625451206.12,fixation,2,191,,,NoMusic
1625451206.33,stimulus,1,680,,,RelaxSession
1625451206.48,stimulus,3,98,,,NoMusic
1625451206.83,fixation,1,680,,,RelaxSession
1625451206.98,fixation,3,98,,,NoMusic
1625451207.62,stimulus,2,192,,,NoMusic
1625451208.12,fixation,2,192,,,NoMusic
1625451208.33,stimulus,1,681,,,RelaxSession
1625451208.48,stimulus,3,99,,,NoMusic
1625451208.83,fixation,1,681,,,RelaxSession
1625451208.98,fixation,3,99,,,NoMusic
1625451209.62,stimulus,2,193,,,NoMusic
1625451210.12,fixation,2,193,,,NoMusic
1625451210.33,stimulus,1,682,,,RelaxSession
1625451210.48,stimulus,3,100,,,NoMusic
1625451210.83,fixation,1,682,,,RelaxSession
1625451210.98,fixation,3,100,,,NoMusic
1625451211.62,stimulus,2,194,,,NoMusic
1625451212.12,fixation,2,194,,,NoMusic
1625451212.33,stimulus,1,683,,,RelaxSession
1625451212.48,stimulus,3,101,,,NoMusic
1625451212.83,fixation,1,683,,,RelaxSession
1625451212.98,fixation,3,101,,,NoMusic
1625451213.62,stimulus,2,195,,,NoMusic
1625451214.12,fixation,2,195,,,NoMusic
1625451214.33,stimulus,1,684,,,RelaxSession
1625451214.48,stimulus,3,102,,,NoMusic
1625451214.83,fixation,1,684,,,RelaxSession
1625451214.98,fixation,3,102,,,NoMusic
1625451215.62,stimulus,2,196,,,NoMusic
1625451216.12,fixation,2,196,,,NoMusic
1625451216.33,stimulus,1,685,,,RelaxSession
1625451216.48,stimulus,3,103,,,NoMusic
1625451216.83,fixation,1,685,,,RelaxSession
1625451216.98,fixation,3,103,,,NoMusic
1625451217.62,stimulus,2,197,,,NoMusic
1625451218.12,fixation,2,197,,,NoMusic
1625451218.33,stimulus,1,686,,,RelaxSession
1625451218.48,stimulus,3,104,,,NoMusic
1625451218.83,fixation,1,686,,,RelaxSession
1625451218.98,fixation,3,104,,,NoMusic
1625451219.62,stimulus,2,198,,,NoMusic
1625451220.12,fixation,2,198,,,NoMusic
1625451220.33,stimulus,1,687,,,RelaxSession
1625451220.48,stimulus,3,105,,,NoMusic
1625451220.83,fixation,1,687,,,RelaxSession
1625451220.98,fixation,3,105,,,NoMusic
1625451221.62,stimulus,2,199,,,NoMusic
1625451222.12,fixation,2,199,,,NoMusic
1625451222.33,stimulus,1,688,,,RelaxSession
1625451222.48,stimulus,3,106,,,NoMusic
1625451222.83,fixation,1,688,,,RelaxSession
1625451222.98,fixation,3,106,,,NoMusic
1625451223.62,stimulus,2,200,,,NoMusic
1625451224.12,fixation,2,200,,,NoMusic
1625451224.33,stimulus,1,689,,,RelaxSession
1625451224.48,stimulus,3,107,,,NoMusic
1625451224.83,fixation,1,689,,,RelaxSession
1625451224.98,fixation,3,107,,,NoMusic
1625451225.62,stimulus,2,201,,,NoMusic
1625451226.12,fixation,2,201,,,NoMusic
1625451226.33,stimulus,1,690,,,RelaxSession
1625451226.48,stimulus,3,108,,,NoMusic
1625451226.83,fixation,1,690,,,RelaxSession
1625451226.98,fixation,3,108,,,NoMusic
1625451227.62,stimulus,2,202,,,NoMusic
1625451228.12,fixation,2,202,,,NoMusic
1625451228.33,stimulus,1,691,,,RelaxSession
1625451228.48,stimulus,3,109,,,NoMusic
1625451228.83,fixation,1,691,,,RelaxSession
1625451228.98,fixation,3,109,,,NoMusic
1625451229.62,stimulus,2,203,,,NoMusic
1625451230.12,fixation,2,203,,,NoMusic
1625451230.33,stimulus,1,692,,,RelaxSession
1625451230.48,stimulus,3,110,,,NoMusic
1625451230.83,fixation,1,692,,,RelaxSession
1625451230.98,fixation,3,110,,,NoMusic
1625451231.62,stimulus,2,204,,,NoMusic
1625451232.12,fixation,2,204,,,NoMusic
1625451232.33,stimulus,1,693,,,RelaxSession
1625451232.48,stimulus,3,111,,,NoMusic
1625451232.83,fixation,1,693,,,RelaxSession
1625451232.98,fixation,3,111,,,NoMusic
1625451233.62,stimulus,2,205,,,NoMusic
1625451234.12,fixation,2,205,,,NoMusic
1625451234.33,stimulus,1,694,,,RelaxSession
1625451234.48,stimulus,3,112,,,NoMusic
1625451234.83,fixation,1,694,,,RelaxSession
1625451234.98,fixation,3,112,,,NoMusic
1625451235.62,stimulus,2,206,,,NoMusic
1625451236.12,fixation,2,206,,,NoMusic
1625451236.33,stimulus,1,695,,,RelaxSession
1625451236.48,stimulus,3,113,,,NoMusic
1625451236.83,fixation,1,695,,,RelaxSession
1625451236.98,fixation,3,113,,,NoMusic
1625451237.62,stimulus,2,207,,,NoMusic
1625451238.12,fixation,2,207,,,NoMusic
1625451238.33,stimulus,1,696,,,RelaxSession
1625451238.48,stimulus,3,114,,,NoMusic
1625451238.83,fixation,1,696,,,RelaxSession
1625451238.98,fixation,3,114,,,NoMusic
1625451239.62,stimulus,2,208,,,NoMusic
1625451240.12,fixation,2,208,,,NoMusic
1625451240.33,stimulus,1,697,,,RelaxSession
1625451240.48,stimulus,3,115,,,NoMusic
1625451240.83,fixation,1,697,,,RelaxSession
1625451240.98,fixation,3,115,,,NoMusic
1625451241.62,stimulus,2,209,,,NoMusic
1625451242.12,fixation,2,209,,,NoMusic
1625451242.33,stimulus,1,698,,,RelaxSession
1625451242.48,stimulus,3,116,,,NoMusic
1625451242.83,fixation,1,698,,,RelaxSession
1625451242.98,fixation,3,116,,,NoMusic
1625451243.62,stimulus,2,210,,,NoMusic
1625451244.12,fixation,2,210,,,NoMusic
1625451244.33,stimulus,1,699,,,RelaxSession
1625451244.48,stimulus,3,117,,,NoMusic
1625451244.83,fixation,1,699,,,RelaxSession
1625451244.98,fixation,3,117,,,NoMusic
1625451245.62,stimulus,2,211,,,NoMusic
1625451246.12,fixation,2,211,,,NoMusic
1625451246.33,stimulus,1,700,,,RelaxSession
1625451246.48,stimulus,3,118,,,NoMusic
1625451246.83,fixation,1,700,,,RelaxSession
1625451246.98,fixation,3,118,,,NoMusic
1625451247.62,stimulus,2,212,,,NoMusic
1625451248.12,fixation,2,212,,,NoMusic
1625451248.33,stimulus,1,701,,,RelaxSession
1625451248.48,stimulus,3,119,,,NoMusic
1625451248.83,fixation,1,701,,,RelaxSession
1625451248.98,fixation,3,119,,,NoMusic
1625451249.62,stimulus,2,213,,,NoMusic
1625451250.12,fixation,2,213,,,NoMusic
1625451250.33,stimulus,1,702,,,RelaxSession
1625451250.48,stimulus,3,120,,,NoMusic
1625451250.83,fixation,1,702,,,RelaxSession
1625451250.98,fixation,3,120,,,NoMusic
1625451251.62,stimulus,2,214,,,NoMusic
1625451252.12,fixation,2,214,,,NoMusic
1625451252.33,stimulus,1,703,,,RelaxSession
1625451252.48,stimulus,3,121,,,NoMusic
1625451252.83,fixation,1,703,,,RelaxSession
1625451252.98,fixation,3,121,,,NoMusic
1625451253.62,stimulus,2,215,,,NoMusic
1625451254.12,fixation,2,215,,,NoMusic
1625451254.33,stimulus,1,704,,,RelaxSession
1625451254.48,stimulus,3,122,,,NoMusic
1625451254.83,fixation,1,704,,,RelaxSession
1625451254.98,fixation,3,122,,,NoMusic
1625451255.62,stimulus,2,216,,,NoMusic
1625451256.12,fixation,2,216,,,NoMusic
1625451256.33,stimulus,1,705,,,RelaxSession
1625451256.48,stimulus,3,123,,,NoMusic
1625451256.83,fixation,1,705,,,RelaxSession
1625451256.98,fixation,3,123,,,NoMusic
1625451257.62,stimulus,2,217,,,NoMusic
1625451258.12,fixation,2,217,,,NoMusic
1625451258.33,stimulus,1,706,,,RelaxSession
1625451258.48,stimulus,3,124,,,NoMusic
1625451258.83,fixation,1,706,,,RelaxSession
1625451258.98,fixation,3,124,,,NoMusic
1625451259.62,stimulus,2,218,,,NoMusic
1625451260.12,fixation,2,218,,,NoMusic
1625451260.33,stimulus,1,707,,,RelaxSession
1625451260.48,stimulus,3,125,,,NoMusic
1625451260.83,fixation,1,707,,,RelaxSession
1625451260.98,fixation,3,125,,,NoMusic
1625451261.62,stimulus,2,219,,,NoMusic
1625451262.12,fixation,2,219,,,NoMusic
1625451262.33,stimulus,1,708,,,RelaxSession
1625451262.48,stimulus,3,126,,,NoMusic
1625451262.83,fixation,1,708,,,RelaxSession
1625451262.98,fixation,3,126,,,NoMusic
1625451263.62,stimulus,2,220,,,NoMusic
1625451264.12,fixation,2,220,,,NoMusic
1625451264.33,stimulus,1,709,,,RelaxSession
1625451264.48,stimulus,3,127,,,NoMusic
1625451264.83,fixation,1,709,,,RelaxSession
1625451264.98,fixation,3,127,,,NoMusic
1625451265.62,stimulus,2,221,,,NoMusic
1625451266.12,fixation,2,221,,,NoMusic
1625451266.33,stimulus,1,710,,,RelaxSession
1625451266.48,stimulus,3,128,,,NoMusic
1625451266.83,fixation,1,710,,,RelaxSession
1625451266.98,fixation,3,128,,,NoMusic
1625451267.62,stimulus,2,222,,,NoMusic
1625451268.12,fixation,2,222,,,NoMusic
1625451268.33,stimulus,1,711,,,RelaxSession
1625451268.48,stimulus,3,129,,,NoMusic
1625451268.83,fixation,1,711,,,RelaxSession
1625451268.98,fixation,3,129,,,NoMusic
1625451269.62,stimulus,2,223,,,NoMusic
1625451270.12,fixation,2,223,,,NoMusic
1625451270.33,stimulus,1,712,,,RelaxSession
1625451270.48,stimulus,3,130,,,NoMusic
1625451270.83,fixation,1,712,,,RelaxSession
1625451270.98,fixation,3,130,,,NoMusic
1625451271.62,stimulus,2,224,,,NoMusic
1625451272.12,fixation,2,224,,,NoMusic
1625451272.33,stimulus,1,713,,,RelaxSession
1625451272.48,stimulus,3,131,,,NoMusic
1625451272.83,fixation,1,713,,,RelaxSession
1625451272.98,fixation,3,131,,,NoMusic
1625451273.62,stimulus,2,225,,,NoMusic
1625451274.12,fixation,2,225,,,NoMusic
1625451274.33,stimulus,1,714,,,RelaxSession
1625451274.48,stimulus,3,132,,,NoMusic
1625451274.83,fixation,1,714,,,RelaxSession
1625451274.98,fixation,3,132,,,NoMusic
1625451275.62,stimulus,2,226,,,NoMusic
1625451276.12,fixation,2,226,,,NoMusic
1625451276.33,stimulus,1,715,,,RelaxSession
1625451276.48,stimulus,3,133,,,NoMusic
1625451276.83,fixation,1,715,,,RelaxSession
1625451276.98,fixation,3,133,,,NoMusic
1625451277.62,stimulus,2,227,,,NoMusic
1625451278.12,fixation,2,227,,,NoMusic
1625451278.33,stimulus,1,716,,,RelaxSession
1625451278.48,stimulus,3,134,,,NoMusic
1625451278.83,fixation,1,716,,,RelaxSession
1625451278.98,fixation,3,134,,,NoMusic
1625451279.62,stimulus,2,228,,,NoMusic
1625451280.12,fixation,2,228,,,NoMusic
1625451280.33,stimulus,1,717,,,RelaxSession
1625451280.48,stimulus,3,135,,,NoMusic
1625451280.83,fixation,1,717,,,RelaxSession
1625451280.98,fixation,3,135,,,NoMusic
1625451281.62,stimulus,2,229,,,NoMusic
1625451282.12,fixation,2,229,,,NoMusic
1625451282.33,stimulus,1,718,,,RelaxSession
1625451282.48,stimulus,3,136,,,NoMusic
1625451282.83,fixation,1,718,,,RelaxSession
1625451282.98,fixation,3,136,,,NoMusic
1625451283.62,stimulus,2,230,,,NoMusic
1625451284.12,fixation,2,230,,,NoMusic
1625451284.33,stimulus,1,719,,,RelaxSession
1625451284.48,stimulus,3,137,,,NoMusic
1625451284.83,fixation,1,719,,,RelaxSession
1625451284.98,fixation,3,137,,,NoMusic
1625451285.62,stimulus,2,231,,,NoMusic
1625451286.12,fixation,2,231,,,NoMusic
1625451286.33,stimulus,1,720,,,RelaxSession
1625451286.48,stimulus,3,138,,,NoMusic
1625451286.83,fixation,1,720,,,RelaxSession
1625451286.98,fixation,3,138,,,NoMusic
1625451287.62,stimulus,2,232,,,NoMusic
1625451288.12,fixation,2,232,,,NoMusic
1625451288.33,stimulus,1,721,,,RelaxSession
1625451288.48,stimulus,3,139,,,NoMusic
1625451288.83,fixation,1,721,,,RelaxSession
1625451288.98,fixation,3,139,,,NoMusic
1625451289.62,stimulus,2,233,,,NoMusic
1625451290.12,fixation,2,233,,,NoMusic
1625451290.33,stimulus,1,722,,,RelaxSession
1625451290.48,stimulus,3,140,,,NoMusic
1625451290.83,fixation,1,722,,,RelaxSession
1625451290.98,fixation,3,140,,,NoMusic
1625451291.62,stimulus,2,234,,,NoMusic
1625451292.12,fixation,2,234,,,NoMusic
1625451292.33,stimulus,1,723,,,RelaxSession
1625451292.48,stimulus,3,141,,,NoMusic
1625451292.83,fixation,1,723,,,RelaxSession
1625451292.98,fixation,3,141,,,NoMusic
1625451293.62,stimulus,2,235,,,NoMusic
1625451294.12,fixation,2,235,,,NoMusic
1625451294.33,stimulus,1,724,,,RelaxSession
1625451294.48,stimulus,3,142,,,NoMusic
1625451294.83,fixation,1,724,,,RelaxSession
1625451294.98,fixation,3,142,,,NoMusic
1625451295.62,stimulus,2,236,,,NoMusic
1625451296.12,fixation,2,236,,,NoMusic
1625451296.33,stimulus,1,725,,,RelaxSession
1625451296.48,stimulus,3,143,,,NoMusic
1625451296.83,fixation,1,725,,,RelaxSession
1625451296.98,fixation,3,143,,,NoMusic
1625451297.62,stimulus,2,237,,,NoMusic
1625451298.12,fixation,2,237,,,NoMusic
1625451298.33,stimulus,1,726,,,RelaxSession
1625451298.48,stimulus,3,144,,,NoMusic
1625451298.83,fixation,1,726,,,RelaxSession
1625451298.98,fixation,3,144,,,NoMusic
1625451299.62,stimulus,2,238,,,NoMusic
1625451300.12,fixation,2,238,,,NoMusic
1625451300.33,stimulus,1,727,,,RelaxSession
1625451300.48,stimulus,3,145,,,NoMusic
1625451300.83,fixation,1,727,,,RelaxSession
1625451300.98,fixation,3,145,,,NoMusic
1625451301.62,stimulus,2,239,,,NoMusic
1625451302.12,fixation,2,239,,,NoMusic
1625451302.33,stimulus,1,728,,,RelaxSession
1625451302.48,stimulus,3,146,,,NoMusic
1625451302.83,fixation,1,728,,,RelaxSession
1625451302.98,fixation,3,146,,,NoMusic
1625451303.62,stimulus,2,240,,,NoMusic
1625451304.12,fixation,2,240,,,NoMusic
1625451304.33,stimulus,1,729,,,RelaxSession
1625451304.48,stimulus,3,147,,,NoMusic
1625451304.83,fixation,1,729,,,RelaxSession
1625451304.98,fixation,3,147,,,NoMusic
1625451305.62,stimulus,2,241,,,NoMusic
1625451306.12,fixation,2,241,,,NoMusic
1625451306.33,stimulus,1,730,,,RelaxSession
1625451306.48,stimulus,3,148,,,NoMusic
1625451306.83,fixation,1,730,,,RelaxSession
1625451306.98,fixation,3,148,,,NoMusic
1625451307.62,stimulus,2,242,,,NoMusic
1625451308.12,fixation,2,242,,,NoMusic
1625451308.33,stimulus,1,731,,,RelaxSession
1625451308.48,stimulus,3,149,,,NoMusic
1625451308.83,fixation,1,731,,,RelaxSession
1625451308.98,fixation,3,149,,,NoMusic
1625451309.62,stimulus,2,243,,,NoMusic
1625451310.12,fixation,2,243,,,NoMusic
1625451310.33,stimulus,1,732,,,RelaxSession
1625451310.48,stimulus,3,150,,,NoMusic
1625451310.83,fixation,1,732,,,RelaxSession
1625451310.98,fixation,3,150,,,NoMusic
1625451311.62,stimulus,2,244,,,NoMusic
1625451312.12,fixation,2,244,,,NoMusic
1625451312.33,stimulus,1,733,,,RelaxSession
1625451312.48,stimulus,3,151,,,NoMusic
1625451312.83,fixation,1,733,,,RelaxSession
1625451312.98,fixation,3,151,,,NoMusic
1625451313.62,stimulus,2,245,,,NoMusic
1625451314.12,fixation,2,245,,,NoMusic
1625451314.33,stimulus,1,734,,,RelaxSession
1625451314.48,stimulus,3,152,,,NoMusic
1625451314.83,fixation,1,734,,,RelaxSession
1625451314.98,fixation,3,152,,,NoMusic
1625451315.62,stimulus,2,246,,,NoMusic
1625451316.12,fixation,2,246,,,NoMusic
1625451316.33,stimulus,1,735,,,RelaxSession
1625451316.48,stimulus,3,153,,,NoMusic
1625451316.83,fixation,1,735,,,RelaxSession
1625451316.98,fixation,3,153,,,NoMusic
1625451317.62,stimulus,2,247,,,NoMusic
1625451318.12,fixation,2,247,,,NoMusic
1625451318.33,stimulus,1,736,,,RelaxSession
1625451318.48,stimulus,3,154,,,NoMusic
1625451318.83,fixation,1,736,,,RelaxSession
1625451318.98,fixation,3,154,,,NoMusic
1625451319.62,stimulus,2,248,,,NoMusic
1625451320.12,fixation,2,248,,,NoMusic
1625451320.33,stimulus,1,737,,,RelaxSession
1625451320.48,stimulus,3,155,,,NoMusic
1625451320.83,fixation,1,737,,,RelaxSession
1625451320.98,fixation,3,155,,,NoMusic
1625451321.62,stimulus,2,249,,,NoMusic
1625451322.12,fixation,2,249,,,NoMusic
1625451322.33,stimulus,1,738,,,RelaxSession
1625451322.48,stimulus,3,156,,,NoMusic
1625451322.83,fixation,1,738,,,RelaxSession
1625451322.98,fixation,3,156,,,NoMusic
1625451323.62,stimulus,2,250,,,NoMusic
1625451324.12,fixation,2,250,,,NoMusic
1625451324.33,stimulus,1,739,,,RelaxSession
1625451324.48,stimulus,3,157,,,NoMusic
1625451324.83,fixation,1,739,,,RelaxSession
1625451324.98,fixation,3,157,,,NoMusic
1625451325.62,stimulus,2,251,,,NoMusic
1625451326.12,fixation,2,251,,,NoMusic
1625451326.33,stimulus,1,740,,,RelaxSession
1625451326.48,stimulus,3,158,,,NoMusic
1625451326.83,fixation,1,740,,,RelaxSession
1625451326.98,fixation,3,158,,,NoMusic
1625451327.62,stimulus,2,252,,,NoMusic
1625451328.12,fixation,2,252,,,NoMusic
1625451328.33,stimulus,1,741,,,RelaxSession
1625451328.48,stimulus,3,159,,,NoMusic
1625451328.83,fixation,1,741,,,RelaxSession
1625451328.98,fixation,3,159,,,NoMusic
1625451329.62,stimulus,2,253,,,NoMusic
1625451330.12,fixation,2,253,,,NoMusic
1625451330.33,stimulus,1,742,,,RelaxSession
1625451330.48,stimulus,3,160,,,NoMusic
1625451330.83,fixation,1,742,,,RelaxSession
1625451330.98,fixation,3,160,,,NoMusic
1625451331.62,stimulus,2,254,,,NoMusic
1625451332.12,fixation,2,254,,,NoMusic
1625451332.33,stimulus,1,743,,,RelaxSession
1625451332.48,stimulus,3,161,,,NoMusic
1625451332.83,fixation,1,743,,,RelaxSession
1625451332.98,fixation,3,161,,,NoMusic
1625451333.62,stimulus,2,255,,,NoMusic
1625451334.12,fixation,2,255,,,NoMusic
1625451334.33,stimulus,1,744,,,RelaxSession
1625451334.48,stimulus,3,162,,,NoMusic
