event_time_s,trial_type,session_idx,trial_idx,RT_s,ACC,session_type
1629793467.22,stimulus,1,1,,,PracticeSession
1629793467.72,fixation,1,1,,,PracticeSession
1629793469.22,stimulus,1,2,,,PracticeSession
1629793469.72,fixation,1,2,,,PracticeSession
1629793471.22,stimulus,1,3,,,PracticeSession
1629793471.72,fixation,1,3,,,PracticeSession
1629793473.22,stimulus,1,4,,,PracticeSession
1629793473.72,fixation,1,4,,,PracticeSession
1629793475.22,stimulus,1,5,,,PracticeSession
1629793475.72,fixation,1,5,,,PracticeSession
1629793477.22,stimulus,1,6,,,PracticeSession
1629793477.72,fixation,1,6,,,PracticeSession
1629793479.22,stimulus,1,7,,,PracticeSession
1629793479.72,fixation,1,7,,,PracticeSession
1629793481.22,stimulus,1,8,,,PracticeSession
1629793481.72,fixation,1,8,,,PracticeSession
1629793483.22,stimulus,1,9,,,PracticeSession
1629793483.72,fixation,1,9,,,PracticeSession
1629793485.22,stimulus,1,10,,,PracticeSession
1629793485.72,fixation,1,10,,,PracticeSession
1629793487.22,stimulus,1,11,,,PracticeSession
1629793487.72,fixation,1,11,,,PracticeSession
1629793489.22,stimulus,1,12,,,PracticeSession
1629793489.72,fixation,1,12,,,PracticeSession
1629793491.22,stimulus,1,13,,,PracticeSession
1629793491.72,fixation,1,13,,,PracticeSession
1629793493.22,stimulus,1,14,,,PracticeSession
1629793493.72,fixation,1,14,,,PracticeSession
1629793495.22,stimulus,1,15,,,PracticeSession
1629793495.72,fixation,1,15,,,PracticeSession
1629793497.22,stimulus,1,16,,,PracticeSession
1629793497.72,fixation,1,16,,,PracticeSession
1629793499.22,stimulus,1,17,,,PracticeSession
1629793499.72,fixation,1,17,,,PracticeSession
1629793501.22,stimulus,1,18,,,PracticeSession
1629793501.72,fixation,1,18,,,PracticeSession
1629793503.22,stimulus,1,19,,,PracticeSession
1629793503.72,fixation,1,19,,,PracticeSession
1629793505.22,stimulus,1,20,,,PracticeSession
1629793505.72,fixation,1,20,,,PracticeSession
1629793507.22,stimulus,1,21,,,PracticeSession
1629793507.72,fixation,1,21,,,PracticeSession
1629793509.22,stimulus,1,22,,,PracticeSession
1629793509.72,fixation,1,22,,,PracticeSession
1629793511.22,stimulus,1,23,,,PracticeSession
1629793511.72,fixation,1,23,,,PracticeSession
1629793513.22,stimulus,1,24,,,PracticeSession
1629793513.72,fixation,1,24,,,PracticeSession
1629793515.22,stimulus,1,25,,,PracticeSession
1629793515.72,fixation,1,25,,,PracticeSession
1629793517.22,stimulus,1,26,,,PracticeSession
1629793517.72,fixation,1,26,,,PracticeSession
1629793519.22,stimulus,1,27,,,PracticeSession
1629793519.72,fixation,1,27,,,PracticeSession
1629793521.22,stimulus,1,28,,,PracticeSession
1629793521.72,fixation,1,28,,,PracticeSession
1629793523.22,stimulus,1,29,,,PracticeSession
1629793523.72,fixation,1,29,,,PracticeSession
1629793525.22,stimulus,1,30,,,PracticeSession
1629793525.72,fixation,1,30,,,PracticeSession
1629793527.22,stimulus,1,31,,,PracticeSession
1629793527.72,fixation,1,31,,,PracticeSession
1629793529.22,stimulus,1,32,,,PracticeSession
1629793529.72,fixation,1,32,,,PracticeSession
1629793531.22,stimulus,1,33,,,PracticeSession
1629793531.72,fixation,1,33,,,PracticeSession
1629793533.22,stimulus,1,34,,,PracticeSession
1629793533.72,fixation,1,34,,,PracticeSession
1629793535.22,stimulus,1,35,,,PracticeSession
1629793535.72,fixation,1,35,,,PracticeSession
1629793537.22,stimulus,1,36,,,PracticeSession
1629793537.72,fixation,1,36,,,PracticeSession
1629793539.22,stimulus,1,37,,,PracticeSession
1629793539.72,fixation,1,37,,,PracticeSession
1629793541.22,stimulus,1,38,,,PracticeSession
1629793541.72,fixation,1,38,,,PracticeSession
1629793543.22,stimulus,1,39,,,PracticeSession
1629793543.72,fixation,1,39,,,PracticeSession
1629793545.22,stimulus,1,40,,,PracticeSession
1629793545.72,fixation,1,40,,,PracticeSession
1629793547.22,stimulus,1,41,,,PracticeSession
1629793547.72,fixation,1,41,,,PracticeSession
1629793549.22,stimulus,1,42,,,PracticeSession
1629793549.72,fixation,1,42,,,PracticeSession
1629793551.22,stimulus,1,43,,,PracticeSession
1629793551.72,fixation,1,43,,,PracticeSession
1629793553.22,stimulus,1,44,,,PracticeSession
1629793553.72,fixation,1,44,,,PracticeSession
1629793555.22,stimulus,1,45,,0.0,NoMusic
1629793556.694,fixation,1,45,0.974,1.0,NoMusic
1629793557.662,stimulus,1,46,0.442,1.0,NoMusic
1629793557.72,fixation,1,46,,0.0,NoMusic
1629793559.59,stimulus,1,47,0.37,1.0,NoMusic
1629793559.72,fixation,1,47,,0.0,NoMusic
1629793561.22,stimulus,1,48,,0.0,NoMusic
1629793561.79,fixation,1,48,0.07,1.0,NoMusic
1629793563.22,stimulus,1,49,,0.0,NoMusic
1629793563.823,fixation,1,49,0.103,1.0,NoMusic
1629793565.22,stimulus,1,50,,0.0,NoMusic
1629793565.805,fixation,1,50,0.085,1.0,NoMusic
1629793567.5180001,stimulus,1,51,0.298,0.0,NoMusic
1629793567.72,fixation,1,51,,0.0,NoMusic
1629793569.22,stimulus,1,52,,0.0,NoMusic
1629793569.776,fixation,1,52,0.056,1.0,NoMusic
1629793571.5740001,stimulus,1,53,0.354,1.0,NoMusic
1629793571.72,fixation,1,53,,0.0,NoMusic
1629793573.57,stimulus,1,54,0.35,0.0,NoMusic
1629793573.72,fixation,1,54,,0.0,NoMusic
1629793575.22,stimulus,1,55,,0.0,NoMusic
1629793575.737,fixation,1,55,0.017,1.0,NoMusic
1629793577.567,stimulus,1,56,0.347,1.0,NoMusic
1629793577.72,fixation,1,56,,0.0,NoMusic
1629793579.5740001,stimulus,1,57,0.354,1.0,NoMusic
1629793579.72,fixation,1,57,,0.0,NoMusic
1629793581.59,stimulus,1,58,0.37,1.0,NoMusic
1629793581.72,fixation,1,58,,0.0,NoMusic
1629793583.529,stimulus,1,59,0.309,0.0,NoMusic
1629793583.72,fixation,1,59,,0.0,NoMusic
1629793585.572,stimulus,1,60,0.352,1.0,NoMusic
1629793585.72,fixation,1,60,,0.0,NoMusic
1629793587.568,stimulus,1,61,0.348,0.0,NoMusic
1629793587.72,fixation,1,61,,0.0,NoMusic
1629793589.489,stimulus,1,62,0.269,1.0,NoMusic
1629793589.72,fixation,1,62,,0.0,NoMusic
1629793591.591,stimulus,1,63,0.371,1.0,NoMusic
1629793591.72,fixation,1,63,,0.0,NoMusic
1629793593.604,stimulus,1,64,0.384,1.0,NoMusic
1629793593.72,fixation,1,64,,0.0,NoMusic
1629793595.5640001,stimulus,1,65,0.344,1.0,NoMusic
1629793595.72,fixation,1,65,,0.0,NoMusic
1629793597.676,stimulus,1,66,0.456,1.0,NoMusic
1629793597.72,fixation,1,66,,0.0,NoMusic
1629793599.22,stimulus,1,67,,0.0,NoMusic
1629793600.753,fixation,1,67,1.033,1.0,NoMusic
1629793601.707,stimulus,1,68,0.487,1.0,NoMusic
1629793601.72,fixation,1,68,,0.0,NoMusic
1629793603.553,stimulus,1,69,0.333,1.0,NoMusic
1629793603.72,fixation,1,69,,0.0,NoMusic
1629793605.632,stimulus,1,70,0.412,1.0,NoMusic
1629793605.72,fixation,1,70,,0.0,NoMusic
1629793607.63,stimulus,1,71,0.41,1.0,NoMusic
1629793607.72,fixation,1,71,,0.0,NoMusic
1629793609.22,stimulus,1,72,,0.0,NoMusic
1629793609.7910001,fixation,1,72,0.071,0.0,NoMusic
1629793611.625,stimulus,1,73,0.405,0.0,NoMusic
1629793611.72,fixation,1,73,,0.0,NoMusic
1629793613.536,stimulus,1,74,0.316,1.0,NoMusic
1629793613.72,fixation,1,74,,0.0,NoMusic
1629793615.542,stimulus,1,75,0.322,0.0,NoMusic
1629793615.72,fixation,1,75,,0.0,NoMusic
1629793617.676,stimulus,1,76,0.456,0.0,NoMusic
1629793617.807,fixation,1,76,0.087,1.0,NoMusic
1629793619.22,stimulus,1,77,,0.0,NoMusic
1629793619.74,fixation,1,77,0.02,0.0,NoMusic
1629793621.671,stimulus,1,78,0.451,1.0,NoMusic
1629793621.72,fixation,1,78,,0.0,NoMusic
1629793623.511,stimulus,1,79,0.291,1.0,NoMusic
1629793623.72,fixation,1,79,,0.0,NoMusic
1629793625.22,stimulus,1,80,,0.0,NoMusic
1629793625.731,fixation,1,80,0.011,0.0,NoMusic
1629793627.533,stimulus,1,81,0.313,1.0,NoMusic
1629793627.72,fixation,1,81,,0.0,NoMusic
1629793629.59,stimulus,1,82,0.37,0.0,NoMusic
1629793629.72,fixation,1,82,,0.0,NoMusic
1629793631.5080001,stimulus,1,83,0.288,1.0,NoMusic
1629793631.72,fixation,1,83,,0.0,NoMusic
1629793633.22,stimulus,1,84,,0.0,NoMusic
1629793633.746,fixation,1,84,0.026,1.0,NoMusic
1629793635.628,stimulus,1,85,0.408,1.0,NoMusic
1629793635.72,fixation,1,85,,0.0,NoMusic
1629793637.651,stimulus,1,86,0.431,1.0,NoMusic
1629793637.72,fixation,1,86,,0.0,NoMusic
1629793639.501,stimulus,1,87,0.281,1.0,NoMusic
1629793639.72,fixation,1,87,,0.0,NoMusic
1629793641.667,stimulus,1,88,0.447,1.0,NoMusic
1629793641.72,fixation,1,88,,0.0,NoMusic
1629793643.22,stimulus,1,89,,0.0,NoMusic
1629793643.999,fixation,1,89,0.279,1.0,NoMusic
1629793645.5740001,stimulus,1,90,0.354,1.0,NoMusic
1629793645.72,fixation,1,90,,0.0,NoMusic
1629793647.529,stimulus,1,91,0.309,1.0,NoMusic
1629793647.72,fixation,1,91,,0.0,NoMusic
1629793649.671,stimulus,1,92,0.451,0.0,NoMusic
1629793649.72,fixation,1,92,,0.0,NoMusic
1629793651.511,stimulus,1,93,0.291,1.0,NoMusic
1629793651.72,fixation,1,93,,0.0,NoMusic
1629793653.22,stimulus,1,94,,0.0,NoMusic
1629793653.75,fixation,1,94,0.03,0.0,NoMusic
1629793655.6200001,stimulus,1,95,0.4,1.0,NoMusic
1629793655.72,fixation,1,95,,0.0,NoMusic
1629793657.5770001,stimulus,1,96,0.357,1.0,NoMusic
1629793657.72,fixation,1,96,,0.0,NoMusic
1629793659.68,stimulus,1,97,0.46,1.0,NoMusic
1629793659.72,fixation,1,97,,0.0,NoMusic
1629793661.589,stimulus,1,98,0.369,1.0,NoMusic
1629793661.72,fixation,1,98,,0.0,NoMusic
1629793663.581,stimulus,1,99,0.361,1.0,NoMusic
1629793663.72,fixation,1,99,,0.0,NoMusic
1629793665.553,stimulus,1,100,0.333,1.0,NoMusic
1629793665.72,fixation,1,100,,0.0,NoMusic
1629793667.631,stimulus,1,101,0.411,1.0,NoMusic
1629793667.72,fixation,1,101,,0.0,NoMusic
1629793669.654,stimulus,1,102,0.434,1.0,NoMusic
1629793669.72,fixation,1,102,,0.0,NoMusic
1629793671.569,stimulus,1,103,0.349,1.0,NoMusic
1629793671.72,fixation,1,103,,0.0,NoMusic
1629793673.5210001,stimulus,1,104,0.301,0.0,NoMusic
1629793673.72,fixation,1,104,,0.0,NoMusic
1629793675.669,stimulus,1,105,0.449,1.0,NoMusic
1629793675.72,fixation,1,105,,0.0,NoMusic
1629793677.497,stimulus,1,106,0.277,0.0,NoMusic
1629793677.72,fixation,1,106,,0.0,NoMusic
1629793679.552,stimulus,1,107,0.332,0.0,NoMusic
1629793679.72,fixation,1,107,,0.0,NoMusic
1629793681.697,stimulus,1,108,0.477,1.0,NoMusic
1629793681.72,fixation,1,108,,0.0,NoMusic
1629793683.538,stimulus,1,109,0.318,1.0,NoMusic
1629793683.72,fixation,1,109,,0.0,NoMusic
1629793685.586,stimulus,1,110,0.366,1.0,NoMusic
1629793685.72,fixation,1,110,,0.0,NoMusic
1629793687.22,stimulus,1,111,,0.0,NoMusic
1629793688.114,fixation,1,111,0.394,1.0,NoMusic
1629793689.604,stimulus,1,112,0.384,1.0,NoMusic
1629793689.72,fixation,1,112,,0.0,NoMusic
1629793691.653,stimulus,1,113,0.433,1.0,NoMusic
1629793691.72,fixation,1,113,,0.0,NoMusic
1629793693.5640001,stimulus,1,114,0.344,1.0,NoMusic
1629793693.72,fixation,1,114,,0.0,NoMusic
1629793695.563,stimulus,1,115,0.343,1.0,NoMusic
1629793695.72,fixation,1,115,,0.0,NoMusic
1629793697.5410001,stimulus,1,116,0.321,1.0,NoMusic
1629793697.72,fixation,1,116,,0.0,NoMusic
1629793699.494,stimulus,1,117,0.274,1.0,NoMusic
1629793699.72,fixation,1,117,,0.0,NoMusic
1629793701.22,stimulus,1,118,,0.0,NoMusic
1629793701.9290001,fixation,1,118,0.209,1.0,NoMusic
1629793703.654,stimulus,1,119,0.434,1.0,NoMusic
1629793703.72,fixation,1,119,,0.0,NoMusic
1629793705.492,stimulus,1,120,0.272,1.0,NoMusic
1629793705.72,fixation,1,120,,0.0,NoMusic
1629793707.606,stimulus,1,121,0.386,1.0,NoMusic
1629793707.72,fixation,1,121,,0.0,NoMusic
1629793709.57,stimulus,1,122,0.35,1.0,NoMusic
1629793709.72,fixation,1,122,,0.0,NoMusic
1629793711.608,stimulus,1,123,0.388,1.0,NoMusic
1629793711.72,fixation,1,123,,0.0,NoMusic
1629793713.499,stimulus,1,124,0.279,1.0,NoMusic
1629793713.72,fixation,1,124,,0.0,NoMusic
1629793715.605,stimulus,1,125,0.385,1.0,NoMusic
1629793715.72,fixation,1,125,,0.0,NoMusic
1629793717.595,stimulus,1,126,0.375,1.0,NoMusic
1629793717.72,fixation,1,126,,0.0,NoMusic
1629793719.588,stimulus,1,127,0.368,1.0,NoMusic
1629793719.72,fixation,1,127,,0.0,NoMusic
1629793721.569,stimulus,1,128,0.349,0.0,NoMusic
1629793721.72,fixation,1,128,,0.0,NoMusic
1629793723.626,stimulus,1,129,0.406,1.0,NoMusic
1629793723.72,fixation,1,129,,0.0,NoMusic
1629793725.65,stimulus,1,130,0.43,1.0,NoMusic
1629793725.72,fixation,1,130,,0.0,NoMusic
1629793727.504,stimulus,1,131,0.284,1.0,NoMusic
1629793727.72,fixation,1,131,,0.0,NoMusic
1629793729.596,stimulus,1,132,0.376,1.0,NoMusic
1629793729.72,fixation,1,132,,0.0,NoMusic
1629793731.22,stimulus,1,133,,0.0,NoMusic
1629793732.004,fixation,1,133,0.284,1.0,NoMusic
1629793733.561,stimulus,1,134,0.341,1.0,NoMusic
1629793733.72,fixation,1,134,,0.0,NoMusic
1629793735.651,stimulus,1,135,0.431,1.0,NoMusic
1629793735.72,fixation,1,135,,0.0,NoMusic
1629793737.639,stimulus,1,136,0.419,1.0,NoMusic
1629793737.72,fixation,1,136,,0.0,NoMusic
1629793739.622,stimulus,1,137,0.402,1.0,NoMusic
1629793739.72,fixation,1,137,,0.0,NoMusic
1629793741.649,stimulus,1,138,0.429,1.0,NoMusic
1629793741.72,fixation,1,138,,0.0,NoMusic
1629793743.601,stimulus,1,139,0.381,0.0,NoMusic
1629793743.72,fixation,1,139,,0.0,NoMusic
1629793745.717,stimulus,1,140,0.497,1.0,NoMusic
1629793745.72,fixation,1,140,,0.0,NoMusic
1629793747.57,stimulus,1,141,0.35,1.0,NoMusic
1629793747.72,fixation,1,141,,0.0,NoMusic
1629793749.653,stimulus,1,142,0.433,1.0,NoMusic
1629793749.72,fixation,1,142,,0.0,NoMusic
1629793751.22,stimulus,1,143,,0.0,NoMusic
1629793751.792,fixation,1,143,0.072,1.0,NoMusic
1629793753.562,stimulus,1,144,0.342,1.0,NoMusic
1629793753.72,fixation,1,144,,0.0,NoMusic
1629793755.5180001,stimulus,1,145,0.298,0.0,NoMusic
1629793755.72,fixation,1,145,,0.0,NoMusic
1629793757.64,stimulus,1,146,0.42,0.0,NoMusic
1629793757.72,fixation,1,146,,0.0,NoMusic
1629793759.22,stimulus,1,147,,0.0,NoMusic
1629793759.978,fixation,1,147,0.258,0.0,NoMusic
1629793761.22,stimulus,1,148,,0.0,NoMusic
1629793761.726,fixation,1,148,0.006,0.0,NoMusic
1629793763.6230001,stimulus,1,149,0.403,1.0,NoMusic
1629793763.72,fixation,1,149,,0.0,NoMusic
1629793765.22,stimulus,1,150,,0.0,NoMusic
1629793765.943,fixation,1,150,0.223,0.0,NoMusic
1629793767.22,stimulus,1,151,,0.0,NoMusic
1629793768.029,fixation,1,151,0.309,0.0,NoMusic
1629793769.22,stimulus,1,152,,0.0,NoMusic
1629793769.874,fixation,1,152,0.154,1.0,NoMusic
1629793771.716,stimulus,1,153,0.496,1.0,NoMusic
1629793771.72,fixation,1,153,,0.0,NoMusic
1629793773.5540001,stimulus,1,154,0.334,1.0,NoMusic
1629793773.72,fixation,1,154,,0.0,NoMusic
1629793775.22,stimulus,1,155,,0.0,NoMusic
1629793776.095,fixation,1,155,0.375,1.0,NoMusic
1629793777.568,stimulus,1,156,0.348,1.0,NoMusic
1629793777.72,fixation,1,156,,0.0,NoMusic
1629793779.553,stimulus,1,157,0.333,1.0,NoMusic
1629793779.72,fixation,1,157,,0.0,NoMusic
1629793781.567,stimulus,1,158,0.347,1.0,NoMusic
1629793781.72,fixation,1,158,,0.0,NoMusic
1629793783.709,stimulus,1,159,0.489,1.0,NoMusic
1629793783.72,fixation,1,159,,0.0,NoMusic
1629793785.706,stimulus,1,160,0.486,1.0,NoMusic
1629793785.72,fixation,1,160,,0.0,NoMusic
1629793787.22,stimulus,1,161,,0.0,NoMusic
1629793787.72,fixation,1,161,,0.0,NoMusic
1629793789.634,stimulus,1,162,0.414,0.0,NoMusic
1629793789.72,fixation,1,162,,0.0,NoMusic
1629793791.542,stimulus,1,163,0.322,1.0,NoMusic
1629793791.72,fixation,1,163,,0.0,NoMusic
1629793793.579,stimulus,1,164,0.359,1.0,NoMusic
1629793793.72,fixation,1,164,,0.0,NoMusic
1629793795.705,stimulus,1,165,0.485,1.0,NoMusic
1629793795.72,fixation,1,165,,0.0,NoMusic
1629793797.707,stimulus,1,166,0.487,1.0,NoMusic
1629793797.72,fixation,1,166,,0.0,NoMusic
1629793799.22,stimulus,1,167,,0.0,NoMusic
1629793799.72,fixation,1,167,,0.0,NoMusic
1629793801.625,stimulus,1,168,0.405,1.0,NoMusic
1629793801.72,fixation,1,168,,0.0,NoMusic
1629793803.6430001,stimulus,1,169,0.423,1.0,NoMusic
1629793803.72,fixation,1,169,,0.0,NoMusic
1629793805.572,stimulus,1,170,0.352,1.0,NoMusic
1629793805.72,fixation,1,170,,0.0,NoMusic
1629793807.624,stimulus,1,171,0.404,1.0,NoMusic
1629793807.72,fixation,1,171,,0.0,NoMusic
1629793809.451,stimulus,1,172,0.231,0.0,NoMusic
1629793809.72,fixation,1,172,,0.0,NoMusic
1629793811.565,stimulus,1,173,0.345,1.0,NoMusic
1629793811.72,fixation,1,173,,0.0,NoMusic
1629793813.608,stimulus,1,174,0.388,1.0,NoMusic
1629793813.72,fixation,1,174,,0.0,NoMusic
1629793815.22,stimulus,1,175,,0.0,NoMusic
1629793815.72,fixation,1,175,,0.0,NoMusic
1629793817.637,stimulus,1,176,0.417,1.0,NoMusic
1629793817.72,fixation,1,176,,0.0,NoMusic
1629793819.22,stimulus,1,177,,0.0,NoMusic
1629793820.057,fixation,1,177,0.337,1.0,NoMusic
1629793821.22,stimulus,1,178,,0.0,NoMusic
1629793821.721,fixation,1,178,0.001,1.0,NoMusic
1629793823.553,stimulus,1,179,0.333,1.0,NoMusic
1629793823.72,fixation,1,179,,0.0,NoMusic
1629793825.667,stimulus,1,180,0.447,1.0,NoMusic
1629793825.72,fixation,1,180,,0.0,NoMusic
1629793827.548,stimulus,1,181,0.328,1.0,NoMusic
1629793827.72,fixation,1,181,,0.0,NoMusic
1629793829.5310001,stimulus,1,182,0.311,1.0,NoMusic
1629793829.72,fixation,1,182,,0.0,NoMusic
1629793831.545,stimulus,1,183,0.325,1.0,NoMusic
1629793831.72,fixation,1,183,,0.0,NoMusic
1629793833.536,stimulus,1,184,0.316,1.0,NoMusic
1629793833.72,fixation,1,184,,0.0,NoMusic
1629793835.543,stimulus,1,185,0.323,1.0,NoMusic
1629793835.72,fixation,1,185,,0.0,NoMusic
1629793837.55,stimulus,1,186,0.33,1.0,NoMusic
1629793837.72,fixation,1,186,,0.0,NoMusic
1629793839.6200001,stimulus,1,187,0.4,1.0,NoMusic
1629793839.72,fixation,1,187,,0.0,NoMusic
1629793841.525,stimulus,1,188,0.305,1.0,NoMusic
1629793841.72,fixation,1,188,,0.0,NoMusic
1629793843.584,stimulus,1,189,0.364,1.0,NoMusic
1629793843.72,fixation,1,189,,0.0,NoMusic
1629793845.22,stimulus,1,190,,0.0,NoMusic
1629793845.742,fixation,1,190,0.022,1.0,NoMusic
1629793847.22,stimulus,1,191,,0.0,NoMusic
1629793847.754,fixation,1,191,0.034,1.0,NoMusic
1629793849.626,stimulus,1,192,0.406,1.0,NoMusic
1629793849.72,fixation,1,192,,0.0,NoMusic
1629793851.55,stimulus,1,193,0.33,1.0,NoMusic
1629793851.72,fixation,1,193,,0.0,NoMusic
1629793853.51,stimulus,1,194,0.29,1.0,NoMusic
1629793853.72,fixation,1,194,,0.0,NoMusic
1629793855.611,stimulus,1,195,0.391,1.0,NoMusic
1629793855.72,fixation,1,195,,0.0,NoMusic
1629793857.687,stimulus,1,196,0.467,1.0,NoMusic
1629793857.72,fixation,1,196,,0.0,NoMusic
1629793859.22,stimulus,1,197,,0.0,NoMusic
1629793859.846,fixation,1,197,0.126,1.0,NoMusic
1629793861.628,stimulus,1,198,0.408,1.0,NoMusic
1629793861.72,fixation,1,198,,0.0,NoMusic
1629793863.22,stimulus,1,199,,0.0,NoMusic
1629793863.842,fixation,1,199,0.122,1.0,NoMusic
1629793865.713,stimulus,1,200,0.493,1.0,NoMusic
1629793865.72,fixation,1,200,,0.0,NoMusic
1629793867.538,stimulus,1,201,0.318,1.0,NoMusic
1629793867.72,fixation,1,201,,0.0,NoMusic
1629793869.612,stimulus,1,202,0.392,1.0,NoMusic
1629793869.72,fixation,1,202,,0.0,NoMusic
1629793871.22,stimulus,1,203,,0.0,NoMusic
1629793871.832,fixation,1,203,0.112,0.0,NoMusic
1629793873.596,stimulus,1,204,0.376,0.0,NoMusic
1629793873.72,fixation,1,204,,0.0,NoMusic
1629793875.624,stimulus,1,205,0.404,1.0,NoMusic
1629793875.72,fixation,1,205,,0.0,NoMusic
1629793877.22,stimulus,1,206,,0.0,NoMusic
1629793877.739,fixation,1,206,0.019,1.0,NoMusic
1629793879.606,stimulus,1,207,0.386,1.0,NoMusic
1629793879.72,fixation,1,207,,0.0,NoMusic
1629793881.22,stimulus,1,208,,0.0,NoMusic
1629793881.91,fixation,1,208,0.19,1.0,NoMusic
1629793883.563,stimulus,1,209,0.343,1.0,NoMusic
1629793883.72,fixation,1,209,,0.0,NoMusic
1629793885.595,stimulus,1,210,0.375,1.0,NoMusic
1629793885.72,fixation,1,210,,0.0,NoMusic
1629793887.22,stimulus,1,211,,0.0,NoMusic
1629793887.9290001,fixation,1,211,0.209,0.0,NoMusic
1629793889.22,stimulus,1,212,,0.0,NoMusic
1629793889.749,fixation,1,212,0.029,1.0,NoMusic
1629793891.567,stimulus,1,213,0.347,1.0,NoMusic
1629793891.72,fixation,1,213,,0.0,NoMusic
1629793893.22,stimulus,1,214,,0.0,NoMusic
1629793893.805,fixation,1,214,0.085,1.0,NoMusic
1629793895.644,stimulus,1,215,0.424,0.0,NoMusic
1629793895.72,fixation,1,215,,0.0,NoMusic
1629793897.637,stimulus,1,216,0.417,1.0,NoMusic
1629793897.72,fixation,1,216,,0.0,NoMusic
1629793899.566,stimulus,1,217,0.346,0.0,NoMusic
1629793899.72,fixation,1,217,,0.0,NoMusic
1629793901.607,stimulus,1,218,0.387,1.0,NoMusic
1629793901.72,fixation,1,218,,0.0,NoMusic
1629793903.575,stimulus,1,219,0.355,1.0,NoMusic
1629793903.72,fixation,1,219,,0.0,NoMusic
1629793905.663,stimulus,1,220,0.443,1.0,NoMusic
1629793905.72,fixation,1,220,,0.0,NoMusic
1629793907.22,stimulus,1,221,,,NoMusic
1629793907.72,fixation,1,221,,,NoMusic
1629793909.22,stimulus,1,222,,0.0,NoMusic
1629793909.958,fixation,1,222,0.238,1.0,NoMusic
1629793911.619,stimulus,1,223,0.399,1.0,NoMusic
1629793911.72,fixation,1,223,,0.0,NoMusic
1629793913.536,stimulus,1,224,0.316,1.0,NoMusic
1629793913.72,fixation,1,224,,0.0,NoMusic
1629793915.22,stimulus,1,225,,0.0,NoMusic
1629793915.914,fixation,1,225,0.194,1.0,NoMusic
1629793917.642,stimulus,1,226,0.422,1.0,NoMusic
1629793917.72,fixation,1,226,,0.0,NoMusic
1629793919.69,stimulus,1,227,0.47,1.0,NoMusic
1629793919.72,fixation,1,227,,0.0,NoMusic
1629793921.697,stimulus,1,228,0.477,1.0,NoMusic
1629793921.72,fixation,1,228,,0.0,NoMusic
1629793923.22,stimulus,1,229,,0.0,NoMusic
1629793923.881,fixation,1,229,0.161,1.0,NoMusic
1629793925.22,stimulus,1,230,,0.0,NoMusic
1629793925.742,fixation,1,230,0.022,0.0,NoMusic
1629793927.5180001,stimulus,1,231,0.298,1.0,NoMusic
1629793927.72,fixation,1,231,,0.0,NoMusic
1629793929.528,stimulus,1,232,0.308,1.0,NoMusic
1629793929.72,fixation,1,232,,0.0,NoMusic
1629793931.602,stimulus,1,233,0.382,1.0,NoMusic
1629793931.72,fixation,1,233,,0.0,NoMusic
1629793933.543,stimulus,1,234,0.323,0.0,NoMusic
1629793933.72,fixation,1,234,,0.0,NoMusic
1629793935.688,stimulus,1,235,0.468,0.0,NoMusic
1629793935.72,fixation,1,235,,0.0,NoMusic
1629793937.703,stimulus,1,236,0.483,1.0,NoMusic
1629793937.72,fixation,1,236,,0.0,NoMusic
1629793939.53,stimulus,1,237,0.31,1.0,NoMusic
1629793939.72,fixation,1,237,,0.0,NoMusic
1629793941.568,stimulus,1,238,0.348,0.0,NoMusic
1629793941.72,fixation,1,238,,0.0,NoMusic
1629793943.624,stimulus,1,239,0.404,1.0,NoMusic
1629793943.72,fixation,1,239,,0.0,NoMusic
1629793945.59,stimulus,1,240,0.37,0.0,NoMusic
1629793945.72,fixation,1,240,,0.0,NoMusic
1629793947.457,stimulus,1,241,0.237,1.0,NoMusic
1629793947.72,fixation,1,241,,0.0,NoMusic
1629793949.568,stimulus,1,242,0.348,1.0,NoMusic
1629793949.72,fixation,1,242,,0.0,NoMusic
1629793951.459,stimulus,1,243,0.239,0.0,NoMusic
1629793951.72,fixation,1,243,,0.0,NoMusic
1629793953.22,stimulus,1,244,,0.0,NoMusic
1629793953.957,fixation,1,244,0.237,1.0,NoMusic
1629793955.519,stimulus,1,245,0.299,0.0,NoMusic
1629793955.72,fixation,1,245,,0.0,NoMusic
1629793957.717,stimulus,1,246,0.497,1.0,NoMusic
1629793957.72,fixation,1,246,,0.0,NoMusic
1629793959.22,stimulus,1,247,,0.0,NoMusic
1629793959.805,fixation,1,247,0.085,1.0,NoMusic
1629793961.675,stimulus,1,248,0.455,1.0,NoMusic
1629793961.72,fixation,1,248,,0.0,NoMusic
1629793963.569,stimulus,1,249,0.349,1.0,NoMusic
1629793963.72,fixation,1,249,,0.0,NoMusic
1629793965.7120001,stimulus,1,250,0.492,1.0,NoMusic
1629793965.72,fixation,1,250,,0.0,NoMusic
1629793967.709,stimulus,1,251,0.489,1.0,NoMusic
1629793967.72,fixation,1,251,,0.0,NoMusic
1629793969.542,stimulus,1,252,0.322,1.0,NoMusic
1629793969.72,fixation,1,252,,0.0,NoMusic
1629793971.605,stimulus,1,253,0.385,1.0,NoMusic
1629793971.72,fixation,1,253,,0.0,NoMusic
1629793973.697,stimulus,1,254,0.477,1.0,NoMusic
1629793973.72,fixation,1,254,,0.0,NoMusic
1629793975.688,stimulus,1,255,0.468,1.0,NoMusic
1629793975.72,fixation,1,255,,0.0,NoMusic
1629793977.596,stimulus,1,256,0.376,1.0,NoMusic
1629793977.72,fixation,1,256,,0.0,NoMusic
1629793979.678,stimulus,1,257,0.458,1.0,NoMusic
1629793979.72,fixation,1,257,,0.0,NoMusic
1629793981.6460001,stimulus,1,258,0.426,0.0,NoMusic
1629793981.72,fixation,1,258,,0.0,NoMusic
1629793983.47,stimulus,1,259,0.25,1.0,NoMusic
1629793983.72,fixation,1,259,,0.0,NoMusic
1629793985.614,stimulus,1,260,0.394,1.0,NoMusic
1629793985.72,fixation,1,260,,0.0,NoMusic
1629793987.704,stimulus,1,261,0.484,1.0,NoMusic
1629793987.72,fixation,1,261,,0.0,NoMusic
1629793989.22,stimulus,1,262,,0.0,NoMusic
1629793989.815,fixation,1,262,0.095,1.0,NoMusic
1629793991.523,stimulus,1,263,0.303,1.0,NoMusic
1629793991.72,fixation,1,263,,0.0,NoMusic
1629793993.22,stimulus,1,264,,0.0,NoMusic
1629793993.743,fixation,1,264,0.023,1.0,NoMusic
1629793995.22,stimulus,1,265,,0.0,NoMusic
1629793995.7480001,fixation,1,265,0.028,1.0,NoMusic
1629793997.22,stimulus,1,266,,0.0,NoMusic
1629793997.9950001,fixation,1,266,0.275,1.0,NoMusic
1629793999.22,stimulus,1,267,,0.0,NoMusic
1629793999.919,fixation,1,267,0.199,1.0,NoMusic
1629794001.609,stimulus,1,268,0.389,1.0,NoMusic
1629794001.72,fixation,1,268,,0.0,NoMusic
1629794003.637,stimulus,1,269,0.417,1.0,NoMusic
1629794003.72,fixation,1,269,,0.0,NoMusic
1629794005.512,stimulus,1,270,0.292,1.0,NoMusic
1629794005.72,fixation,1,270,,0.0,NoMusic
1629794007.22,stimulus,1,271,,0.0,NoMusic
1629794007.794,fixation,1,271,0.074,1.0,NoMusic
1629794009.678,stimulus,1,272,0.458,1.0,NoMusic
1629794009.72,fixation,1,272,,0.0,NoMusic
1629794011.22,stimulus,1,273,,0.0,NoMusic
1629794011.728,fixation,1,273,0.008,1.0,NoMusic
1629794013.596,stimulus,1,274,0.376,1.0,NoMusic
1629794013.72,fixation,1,274,,0.0,NoMusic
1629794015.622,stimulus,1,275,0.402,1.0,NoMusic
1629794015.72,fixation,1,275,,0.0,NoMusic
1629794017.681,stimulus,1,276,0.461,1.0,NoMusic
1629794017.72,fixation,1,276,,0.0,NoMusic
1629794019.547,stimulus,1,277,0.327,1.0,NoMusic
1629794019.72,fixation,1,277,,0.0,NoMusic
1629794021.636,stimulus,1,278,0.416,1.0,NoMusic
1629794021.72,fixation,1,278,,0.0,NoMusic
1629794023.581,stimulus,1,279,0.361,1.0,NoMusic
1629794023.72,fixation,1,279,,0.0,NoMusic
1629794025.605,stimulus,1,280,0.385,1.0,NoMusic
1629794025.72,fixation,1,280,,0.0,NoMusic
1629794027.556,stimulus,1,281,0.336,1.0,NoMusic
1629794027.72,fixation,1,281,,0.0,NoMusic
1629794029.606,stimulus,1,282,0.386,1.0,NoMusic
1629794029.72,fixation,1,282,,0.0,NoMusic
1629794031.638,stimulus,1,283,0.418,1.0,NoMusic
1629794031.72,fixation,1,283,,0.0,NoMusic
1629794033.5410001,stimulus,1,284,0.321,1.0,NoMusic
1629794033.72,fixation,1,284,,0.0,NoMusic
1629794035.542,stimulus,1,285,0.322,1.0,NoMusic
1629794035.72,fixation,1,285,,0.0,NoMusic
1629794037.22,stimulus,1,286,,0.0,NoMusic
1629794037.72,fixation,1,286,,0.0,NoMusic
1629794039.681,stimulus,1,287,0.461,1.0,NoMusic
1629794039.72,fixation,1,287,,0.0,NoMusic
1629794041.22,stimulus,1,288,,0.0,NoMusic
1629794041.77,fixation,1,288,0.05,1.0,NoMusic
1629794043.514,stimulus,1,289,0.294,1.0,NoMusic
1629794043.72,fixation,1,289,,0.0,NoMusic
1629794045.586,stimulus,1,290,0.366,1.0,NoMusic
1629794045.72,fixation,1,290,,0.0,NoMusic
1629794047.56,stimulus,1,291,0.34,1.0,NoMusic
1629794047.72,fixation,1,291,,0.0,NoMusic
1629794049.517,stimulus,1,292,0.297,1.0,NoMusic
1629794049.72,fixation,1,292,,0.0,NoMusic
1629794051.659,stimulus,1,293,0.439,1.0,NoMusic
1629794051.72,fixation,1,293,,0.0,NoMusic
1629794053.22,stimulus,1,294,,0.0,NoMusic
1629794053.861,fixation,1,294,0.141,0.0,NoMusic
1629794055.598,stimulus,1,295,0.378,0.0,NoMusic
1629794055.72,fixation,1,295,,0.0,NoMusic
1629794057.545,stimulus,1,296,0.325,0.0,NoMusic
1629794057.72,fixation,1,296,,0.0,NoMusic
1629794059.22,stimulus,1,297,,0.0,NoMusic
1629794059.72,fixation,1,297,,0.0,NoMusic
1629794061.709,stimulus,1,298,0.489,0.0,NoMusic
1629794061.72,fixation,1,298,,0.0,NoMusic
1629794063.545,stimulus,1,299,0.325,1.0,NoMusic
1629794063.72,fixation,1,299,,0.0,NoMusic
1629794065.665,stimulus,1,300,0.445,1.0,NoMusic
1629794065.72,fixation,1,300,,0.0,NoMusic
1629794067.535,stimulus,1,301,0.315,1.0,NoMusic
1629794067.72,fixation,1,301,,0.0,NoMusic
1629794069.575,stimulus,1,302,0.355,1.0,NoMusic
1629794069.72,fixation,1,302,,0.0,NoMusic
1629794071.649,stimulus,1,303,0.429,1.0,NoMusic
1629794071.72,fixation,1,303,,0.0,NoMusic
1629794073.608,stimulus,1,304,0.388,0.0,NoMusic
1629794073.72,fixation,1,304,,0.0,NoMusic
1629794075.707,stimulus,1,305,0.487,0.0,NoMusic
1629794075.72,fixation,1,305,,0.0,NoMusic
1629794077.568,stimulus,1,306,0.348,0.0,NoMusic
1629794077.72,fixation,1,306,,0.0,NoMusic
1629794079.545,stimulus,1,307,0.325,1.0,NoMusic
1629794079.72,fixation,1,307,,0.0,NoMusic
1629794081.482,stimulus,1,308,0.262,1.0,NoMusic
1629794081.72,fixation,1,308,,0.0,NoMusic
1629794083.628,stimulus,1,309,0.408,1.0,NoMusic
1629794083.72,fixation,1,309,,0.0,NoMusic
1629794085.22,stimulus,1,310,,0.0,NoMusic
1629794085.788,fixation,1,310,0.068,1.0,NoMusic
1629794087.46,stimulus,1,311,0.24,1.0,NoMusic
1629794087.72,fixation,1,311,,0.0,NoMusic
1629794089.4850001,stimulus,1,312,0.265,1.0,NoMusic
1629794089.72,fixation,1,312,,0.0,NoMusic
1629794091.5970001,stimulus,1,313,0.377,0.0,NoMusic
1629794091.72,fixation,1,313,,0.0,NoMusic
1629794093.22,stimulus,1,314,,0.0,NoMusic
1629794093.7250001,fixation,1,314,0.005,0.0,NoMusic
1629794095.631,stimulus,1,315,0.411,1.0,NoMusic
1629794095.72,fixation,1,315,,0.0,NoMusic
1629794097.566,stimulus,1,316,0.346,1.0,NoMusic
1629794097.72,fixation,1,316,,0.0,NoMusic
1629794099.649,stimulus,1,317,0.429,1.0,NoMusic
1629794099.72,fixation,1,317,,0.0,NoMusic
1629794101.675,stimulus,1,318,0.455,1.0,NoMusic
1629794101.72,fixation,1,318,,0.0,NoMusic
1629794103.569,stimulus,1,319,0.349,1.0,NoMusic
1629794103.72,fixation,1,319,,0.0,NoMusic
1629794105.22,stimulus,1,320,,0.0,NoMusic
1629794105.813,fixation,1,320,0.093,0.0,NoMusic
1629794107.544,stimulus,1,321,0.324,1.0,NoMusic
1629794107.72,fixation,1,321,,0.0,NoMusic
1629794109.496,stimulus,1,322,0.276,1.0,NoMusic
1629794109.72,fixation,1,322,,0.0,NoMusic
1629794111.22,stimulus,1,323,,0.0,NoMusic
1629794111.724,fixation,1,323,0.004,1.0,NoMusic
1629794113.579,stimulus,1,324,0.359,0.0,NoMusic
1629794113.72,fixation,1,324,,0.0,NoMusic
1629794115.54,stimulus,1,325,0.32,1.0,NoMusic
1629794115.72,fixation,1,325,,0.0,NoMusic
1629794117.668,stimulus,1,326,0.448,1.0,NoMusic
1629794117.72,fixation,1,326,,0.0,NoMusic
1629794119.658,stimulus,1,327,0.438,1.0,NoMusic
1629794119.72,fixation,1,327,,0.0,NoMusic
1629794121.528,stimulus,1,328,0.308,0.0,NoMusic
1629794121.72,fixation,1,328,,0.0,NoMusic
1629794123.605,stimulus,1,329,0.385,1.0,NoMusic
1629794123.72,fixation,1,329,,0.0,NoMusic
1629794125.5410001,stimulus,1,330,0.321,1.0,NoMusic
1629794125.72,fixation,1,330,,0.0,NoMusic
1629794127.575,stimulus,1,331,0.355,1.0,NoMusic
1629794127.72,fixation,1,331,,0.0,NoMusic
1629794129.22,stimulus,1,332,,0.0,NoMusic
1629794130.038,fixation,1,332,0.318,1.0,NoMusic
1629794131.567,stimulus,1,333,0.347,1.0,NoMusic
1629794131.72,fixation,1,333,,0.0,NoMusic
1629794133.478,stimulus,1,334,0.258,1.0,NoMusic
1629794133.72,fixation,1,334,,0.0,NoMusic
1629794135.22,stimulus,1,335,,0.0,NoMusic
1629794135.803,fixation,1,335,0.083,1.0,NoMusic
1629794137.64,stimulus,1,336,0.42,1.0,NoMusic
1629794137.72,fixation,1,336,,0.0,NoMusic
1629794139.457,stimulus,1,337,0.237,0.0,NoMusic
1629794139.72,fixation,1,337,,0.0,NoMusic
1629794141.69,stimulus,1,338,0.47,1.0,NoMusic
1629794141.72,fixation,1,338,,0.0,NoMusic
1629794143.676,stimulus,1,339,0.456,0.0,NoMusic
1629794143.72,fixation,1,339,,0.0,NoMusic
1629794145.5970001,stimulus,1,340,0.377,1.0,NoMusic
1629794145.72,fixation,1,340,,0.0,NoMusic
1629794147.22,stimulus,1,341,,0.0,NoMusic
1629794147.724,fixation,1,341,0.004,1.0,NoMusic
1629794149.622,stimulus,1,342,0.402,1.0,NoMusic
1629794149.72,fixation,1,342,,0.0,NoMusic
1629794151.649,stimulus,1,343,0.429,1.0,NoMusic
1629794151.72,fixation,1,343,,0.0,NoMusic
1629794153.589,stimulus,1,344,0.369,1.0,NoMusic
1629794153.72,fixation,1,344,,0.0,NoMusic
1629794155.669,stimulus,1,345,0.449,1.0,NoMusic
1629794155.72,fixation,1,345,,0.0,NoMusic
1629794157.571,stimulus,1,346,0.351,1.0,NoMusic
1629794157.72,fixation,1,346,,0.0,NoMusic
1629794159.459,stimulus,1,347,0.239,1.0,NoMusic
1629794159.72,fixation,1,347,,0.0,NoMusic
1629794161.566,stimulus,1,348,0.346,0.0,NoMusic
1629794161.72,fixation,1,348,,0.0,NoMusic
1629794163.617,stimulus,1,349,0.397,1.0,NoMusic
1629794163.72,fixation,1,349,,0.0,NoMusic
1629794165.22,stimulus,1,350,,0.0,NoMusic
1629794165.82,fixation,1,350,0.1,1.0,NoMusic
1629794167.584,stimulus,1,351,0.364,1.0,NoMusic
1629794167.72,fixation,1,351,,0.0,NoMusic
1629794169.6230001,stimulus,1,352,0.403,1.0,NoMusic
1629794169.72,fixation,1,352,,0.0,NoMusic
1629794171.642,stimulus,1,353,0.422,1.0,NoMusic
1629794171.72,fixation,1,353,,0.0,NoMusic
1629794173.661,stimulus,1,354,0.441,1.0,NoMusic
1629794173.72,fixation,1,354,,0.0,NoMusic
1629794175.459,stimulus,1,355,0.239,1.0,NoMusic
1629794175.8600001,fixation,1,355,0.14,1.0,NoMusic
1629794177.5,stimulus,1,356,0.28,1.0,NoMusic
1629794177.72,fixation,1,356,,0.0,NoMusic
1629794179.593,stimulus,1,357,0.373,1.0,NoMusic
1629794179.72,fixation,1,357,,0.0,NoMusic
1629794181.557,stimulus,1,358,0.337,1.0,NoMusic
1629794181.72,fixation,1,358,,0.0,NoMusic
1629794183.611,stimulus,1,359,0.391,1.0,NoMusic
1629794183.72,fixation,1,359,,0.0,NoMusic
1629794185.532,stimulus,1,360,0.312,1.0,NoMusic
1629794185.72,fixation,1,360,,0.0,NoMusic
1629794187.556,stimulus,1,361,0.336,1.0,NoMusic
1629794187.72,fixation,1,361,,0.0,NoMusic
1629794189.499,stimulus,1,362,0.279,1.0,NoMusic
1629794189.72,fixation,1,362,,0.0,NoMusic
1629794191.523,stimulus,1,363,0.303,0.0,NoMusic
1629794191.72,fixation,1,363,,0.0,NoMusic
1629794193.665,stimulus,1,364,0.445,0.0,NoMusic
1629794193.72,fixation,1,364,,0.0,NoMusic
1629794195.5870001,stimulus,1,365,0.367,1.0,NoMusic
1629794195.72,fixation,1,365,,0.0,NoMusic
1629794197.6100001,stimulus,1,366,0.39,1.0,NoMusic
1629794197.72,fixation,1,366,,0.0,NoMusic
1629794199.519,stimulus,1,367,0.299,0.0,NoMusic
1629794199.72,fixation,1,367,,0.0,NoMusic
1629794201.584,stimulus,1,368,0.364,1.0,NoMusic
1629794201.72,fixation,1,368,,0.0,NoMusic
1629794203.5540001,stimulus,1,369,0.334,0.0,NoMusic
1629794203.72,fixation,1,369,,0.0,NoMusic
1629794205.505,stimulus,1,370,0.285,1.0,NoMusic
1629794205.72,fixation,1,370,,0.0,NoMusic
1629794207.635,stimulus,1,371,0.415,1.0,NoMusic
1629794207.72,fixation,1,371,,0.0,NoMusic
1629794209.573,stimulus,1,372,0.353,1.0,NoMusic
1629794209.72,fixation,1,372,,0.0,NoMusic
1629794211.474,stimulus,1,373,0.254,1.0,NoMusic
1629794211.72,fixation,1,373,,0.0,NoMusic
1629794213.6100001,stimulus,1,374,0.39,1.0,NoMusic
1629794213.72,fixation,1,374,,0.0,NoMusic
1629794215.53,stimulus,1,375,0.31,1.0,NoMusic
1629794215.72,fixation,1,375,,0.0,NoMusic
1629794217.22,stimulus,1,376,,0.0,NoMusic
1629794217.858,fixation,1,376,0.138,1.0,NoMusic
1629794219.22,stimulus,1,377,,0.0,NoMusic
1629794219.925,fixation,1,377,0.205,1.0,NoMusic
1629794221.22,stimulus,1,378,,0.0,NoMusic
1629794221.886,fixation,1,378,0.166,1.0,NoMusic
1629794223.22,stimulus,1,379,,0.0,NoMusic
1629794223.784,fixation,1,379,0.064,1.0,NoMusic
1629794225.606,stimulus,1,380,0.386,1.0,NoMusic
1629794225.72,fixation,1,380,,0.0,NoMusic
1629794227.556,stimulus,1,381,0.336,1.0,NoMusic
1629794227.72,fixation,1,381,,0.0,NoMusic
1629794229.22,stimulus,1,382,,0.0,NoMusic
1629794229.927,fixation,1,382,0.207,1.0,NoMusic
1629794231.67,stimulus,1,383,0.45,1.0,NoMusic
1629794231.72,fixation,1,383,,0.0,NoMusic
1629794233.513,stimulus,1,384,0.293,1.0,NoMusic
1629794233.72,fixation,1,384,,0.0,NoMusic
1629794235.22,stimulus,1,385,,0.0,NoMusic
1629794235.73,fixation,1,385,0.01,1.0,NoMusic
1629794237.6990001,stimulus,1,386,0.479,1.0,NoMusic
1629794237.72,fixation,1,386,,0.0,NoMusic
1629794239.5,stimulus,1,387,0.28,1.0,NoMusic
1629794239.72,fixation,1,387,,0.0,NoMusic
1629794241.658,stimulus,1,388,0.438,1.0,NoMusic
1629794241.72,fixation,1,388,,0.0,NoMusic
1629794243.22,stimulus,1,389,,0.0,NoMusic
1629794243.776,fixation,1,389,0.056,1.0,NoMusic
1629794245.5770001,stimulus,1,390,0.357,1.0,NoMusic
1629794245.72,fixation,1,390,,0.0,NoMusic
1629794247.507,stimulus,1,391,0.287,1.0,NoMusic
1629794247.72,fixation,1,391,,0.0,NoMusic
1629794249.6000001,stimulus,1,392,0.38,1.0,NoMusic
1629794249.72,fixation,1,392,,0.0,NoMusic
1629794251.706,stimulus,1,393,0.486,1.0,NoMusic
1629794251.72,fixation,1,393,,0.0,NoMusic
1629794253.583,stimulus,1,394,0.363,1.0,NoMusic
1629794253.72,fixation,1,394,,0.0,NoMusic
1629794255.49,stimulus,1,395,0.27,1.0,NoMusic
1629794255.72,fixation,1,395,,0.0,NoMusic
1629794257.22,stimulus,1,396,,0.0,NoMusic
1629794257.755,fixation,1,396,0.035,1.0,NoMusic
1629794259.5540001,stimulus,1,397,0.334,1.0,NoMusic
1629794259.72,fixation,1,397,,0.0,NoMusic
1629794261.22,stimulus,1,398,,,RelaxSession
1629794261.72,fixation,1,398,,,RelaxSession
1629794263.22,stimulus,1,399,,,RelaxSession
1629794263.72,fixation,1,399,,,RelaxSession
1629794265.22,stimulus,1,400,,,RelaxSession
1629794265.72,fixation,1,400,,,RelaxSession
1629794267.22,stimulus,1,401,,,RelaxSession
1629794267.72,fixation,1,401,,,RelaxSession
1629794269.22,stimulus,1,402,,,RelaxSession
1629794269.72,fixation,1,402,,,RelaxSession
1629794271.22,stimulus,1,403,,,RelaxSession
1629794271.72,fixation,1,403,,,RelaxSession
1629794273.22,stimulus,1,404,,,RelaxSession
1629794273.72,fixation,1,404,,,RelaxSession
1629794275.22,stimulus,1,405,,,RelaxSession
1629794275.72,fixation,1,405,,,RelaxSession
1629794277.22,stimulus,1,406,,,RelaxSession
1629794277.72,fixation,1,406,,,RelaxSession
1629794279.22,stimulus,1,407,,,RelaxSession
1629794279.72,fixation,1,407,,,RelaxSession
1629794281.22,stimulus,1,408,,,RelaxSession
1629794281.72,fixation,1,408,,,RelaxSession
1629794283.22,stimulus,1,409,,,RelaxSession
1629794283.72,fixation,1,409,,,RelaxSession
1629794285.22,stimulus,1,410,,,RelaxSession
1629794285.72,fixation,1,410,,,RelaxSession
1629794287.22,stimulus,1,411,,,RelaxSession
1629794287.72,fixation,1,411,,,RelaxSession
1629794289.22,stimulus,1,412,,,RelaxSession
1629794289.72,fixation,1,412,,,RelaxSession
1629794291.22,stimulus,1,413,,,RelaxSession
1629794291.72,fixation,1,413,,,RelaxSession
1629794293.22,stimulus,1,414,,,RelaxSession
1629794293.72,fixation,1,414,,,RelaxSession
1629794295.22,stimulus,1,415,,,RelaxSession
1629794295.72,fixation,1,415,,,RelaxSession
1629794297.22,stimulus,1,416,,,RelaxSession
1629794297.72,fixation,1,416,,,RelaxSession
1629794299.22,stimulus,1,417,,,RelaxSession
1629794299.72,fixation,1,417,,,RelaxSession
1629794301.22,stimulus,1,418,,,RelaxSession
1629794301.72,fixation,1,418,,,RelaxSession
1629794303.22,stimulus,1,419,,,RelaxSession
1629794303.72,fixation,1,419,,,RelaxSession
1629794305.22,stimulus,1,420,,,RelaxSession
1629794305.72,fixation,1,420,,,RelaxSession
1629794307.22,stimulus,1,421,,,RelaxSession
1629794307.72,fixation,1,421,,,RelaxSession
1629794309.22,stimulus,1,422,,,RelaxSession
1629794309.72,fixation,1,422,,,RelaxSession
1629794311.22,stimulus,1,423,,,RelaxSession
1629794311.72,fixation,1,423,,,RelaxSession
1629794313.22,stimulus,1,424,,,RelaxSession
1629794313.72,fixation,1,424,,,RelaxSession
1629794315.22,stimulus,1,425,,,RelaxSession
1629794315.72,fixation,1,425,,,RelaxSession
1629794317.22,stimulus,1,426,,,RelaxSession
1629794317.72,fixation,1,426,,,RelaxSession
1629794319.22,stimulus,1,427,,,RelaxSession
1629794319.72,fixation,1,427,,,RelaxSession
1629794321.22,stimulus,1,428,,,RelaxSession
1629794321.72,fixation,1,428,,,RelaxSession
1629794323.22,stimulus,1,429,,,RelaxSession
1629794323.72,fixation,1,429,,,RelaxSession
1629794325.22,stimulus,1,430,,,RelaxSession
1629794325.72,fixation,1,430,,,RelaxSession
1629794327.22,stimulus,1,431,,,RelaxSession
1629794327.72,fixation,1,431,,,RelaxSession
1629794329.22,stimulus,1,432,,,RelaxSession
1629794329.72,fixation,1,432,,,RelaxSession
1629794331.22,stimulus,1,433,,,RelaxSession
1629794331.72,fixation,1,433,,,RelaxSession
1629794333.22,stimulus,1,434,,,RelaxSession
1629794333.72,fixation,1,434,,,RelaxSession
1629794335.22,stimulus,1,435,,,RelaxSession
1629794335.72,fixation,1,435,,,RelaxSession
1629794337.22,stimulus,1,436,,,RelaxSession
1629794337.72,fixation,1,436,,,RelaxSession
1629794339.22,stimulus,1,437,,,RelaxSession
1629794339.72,fixation,1,437,,,RelaxSession
1629794341.22,stimulus,1,438,,,RelaxSession
1629794341.72,fixation,1,438,,,RelaxSession
1629794343.22,stimulus,1,439,,,RelaxSession
1629794343.72,fixation,1,439,,,RelaxSession
1629794345.22,stimulus,1,440,,,RelaxSession
1629794345.72,fixation,1,440,,,RelaxSession
1629794347.22,stimulus,1,441,,,RelaxSession
1629794347.72,fixation,1,441,,,RelaxSession
1629794349.22,stimulus,1,442,,,RelaxSession
1629794349.72,fixation,1,442,,,RelaxSession
1629794351.22,stimulus,1,443,,,RelaxSession
1629794351.72,fixation,1,443,,,RelaxSession
1629794353.22,stimulus,1,444,,,RelaxSession
1629794353.72,fixation,1,444,,,RelaxSession
1629794355.22,stimulus,1,445,,,RelaxSession
1629794355.72,fixation,1,445,,,RelaxSession
1629794357.22,stimulus,1,446,,,RelaxSession
1629794357.72,fixation,1,446,,,RelaxSession
1629794359.22,stimulus,1,447,,,RelaxSession
1629794359.72,fixation,1,447,,,RelaxSession
1629794361.22,stimulus,1,448,,,RelaxSession
1629794361.72,fixation,1,448,,,RelaxSession
1629794363.22,stimulus,1,449,,,RelaxSession
1629794363.72,fixation,1,449,,,RelaxSession
1629794365.22,stimulus,1,450,,,RelaxSession
1629794365.72,fixation,1,450,,,RelaxSession
1629794367.22,stimulus,1,451,,,RelaxSession
1629794367.72,fixation,1,451,,,RelaxSession
1629794369.22,stimulus,1,452,,,RelaxSession
1629794369.72,fixation,1,452,,,RelaxSession
1629794371.22,stimulus,1,453,,,RelaxSession
1629794371.72,fixation,1,453,,,RelaxSession
1629794373.22,stimulus,1,454,,,RelaxSession
1629794373.72,fixation,1,454,,,RelaxSession
1629794375.22,stimulus,1,455,,,RelaxSession
1629794375.72,fixation,1,455,,,RelaxSession
1629794377.22,stimulus,1,456,,,RelaxSession
1629794377.72,fixation,1,456,,,RelaxSession
1629794379.22,stimulus,1,457,,,RelaxSession
1629794379.72,fixation,1,457,,,RelaxSession
1629794381.22,stimulus,1,458,,,RelaxSession
1629794381.72,fixation,1,458,,,RelaxSession
1629794383.22,stimulus,1,459,,,RelaxSession
1629794383.72,fixation,1,459,,,RelaxSession
1629794385.22,stimulus,1,460,,,RelaxSession
1629794385.72,fixation,1,460,,,RelaxSession
1629794387.22,stimulus,1,461,,,RelaxSession
1629794387.72,fixation,1,461,,,RelaxSession
1629794389.22,stimulus,1,462,,,RelaxSession
1629794389.72,fixation,1,462,,,RelaxSession
1629794391.22,stimulus,1,463,,,RelaxSession
1629794391.72,fixation,1,463,,,RelaxSession
1629794393.22,stimulus,1,464,,,RelaxSession
1629794393.72,fixation,1,464,,,RelaxSession
1629794395.22,stimulus,1,465,,,RelaxSession
1629794395.72,fixation,1,465,,,RelaxSession
1629794397.22,stimulus,1,466,,,RelaxSession
1629794397.72,fixation,1,466,,,RelaxSession
1629794399.22,stimulus,1,467,,,RelaxSession
1629794399.72,fixation,1,467,,,RelaxSession
1629794401.22,stimulus,1,468,,,RelaxSession
1629794401.72,fixation,1,468,,,RelaxSession
1629794403.22,stimulus,1,469,,,RelaxSession
1629794403.72,fixation,1,469,,,RelaxSession
1629794405.22,stimulus,1,470,,,RelaxSession
1629794405.72,fixation,1,470,,,RelaxSession
1629794407.22,stimulus,1,471,,,RelaxSession
1629794407.72,fixation,1,471,,,RelaxSession
1629794409.22,stimulus,1,472,,,RelaxSession
1629794409.72,fixation,1,472,,,RelaxSession
1629794411.22,stimulus,1,473,,,RelaxSession
1629794411.72,fixation,1,473,,,RelaxSession
1629794413.22,stimulus,1,474,,,RelaxSession
1629794413.72,fixation,1,474,,,RelaxSession
1629794415.22,stimulus,1,475,,,RelaxSession
1629794415.72,fixation,1,475,,,RelaxSession
1629794417.22,stimulus,1,476,,,RelaxSession
1629794417.72,fixation,1,476,,,RelaxSession
1629794419.22,stimulus,1,477,,,RelaxSession
1629794419.72,fixation,1,477,,,RelaxSession
1629794421.22,stimulus,1,478,,,RelaxSession
1629794421.72,fixation,1,478,,,RelaxSession
1629794423.22,stimulus,1,479,,,RelaxSession
1629794423.72,fixation,1,479,,,RelaxSession
1629794425.22,stimulus,1,480,,,RelaxSession
1629794425.72,fixation,1,480,,,RelaxSession
1629794427.22,stimulus,1,481,,,RelaxSession
1629794427.72,fixation,1,481,,,RelaxSession
1629794429.22,stimulus,1,482,,,RelaxSession
1629794429.72,fixation,1,482,,,RelaxSession
1629794431.22,stimulus,1,483,,,RelaxSession
1629794431.72,fixation,1,483,,,RelaxSession
1629794433.22,stimulus,1,484,,,RelaxSession
1629794433.72,fixation,1,484,,,RelaxSession
1629794435.22,stimulus,1,485,,,RelaxSession
1629794435.72,fixation,1,485,,,RelaxSession
1629794437.22,stimulus,1,486,,,RelaxSession
1629794437.72,fixation,1,486,,,RelaxSession
1629794439.22,stimulus,1,487,,,RelaxSession
1629794439.72,fixation,1,487,,,RelaxSession
1629794441.22,stimulus,1,488,,,RelaxSession
1629794441.72,fixation,1,488,,,RelaxSession
1629794443.22,stimulus,1,489,,,RelaxSession
1629794443.72,fixation,1,489,,,RelaxSession
1629794445.22,stimulus,1,490,,,RelaxSession
1629794445.72,fixation,1,490,,,RelaxSession
1629794447.22,stimulus,1,491,,,RelaxSession
1629794447.72,fixation,1,491,,,RelaxSession
1629794449.22,stimulus,1,492,,,RelaxSession
1629794449.72,fixation,1,492,,,RelaxSession
1629794451.22,stimulus,1,493,,,RelaxSession
1629794451.72,fixation,1,493,,,RelaxSession
1629794453.22,stimulus,1,494,,,RelaxSession
1629794453.72,fixation,1,494,,,RelaxSession
1629794455.22,stimulus,1,495,,,RelaxSession
1629794455.72,fixation,1,495,,,RelaxSession
1629794455.75,stimulus,2,1,,,PracticeSession
1629794456.25,fixation,2,1,,,PracticeSession
1629794457.22,stimulus,1,496,,,RelaxSession
1629794457.72,fixation,1,496,,,RelaxSession
1629794457.75,stimulus,2,2,,,PracticeSession
1629794458.25,fixation,2,2,,,PracticeSession
1629794459.22,stimulus,1,497,,,RelaxSession
1629794459.72,fixation,1,497,,,RelaxSession
1629794459.75,stimulus,2,3,,,PracticeSession
1629794460.25,fixation,2,3,,,PracticeSession
1629794461.22,stimulus,1,498,,,RelaxSession
1629794461.72,fixation,1,498,,,RelaxSession
1629794461.75,stimulus,2,4,,,PracticeSession
1629794462.25,fixation,2,4,,,PracticeSession
1629794463.22,stimulus,1,499,,,RelaxSession
1629794463.72,fixation,1,499,,,RelaxSession
1629794463.75,stimulus,2,5,,,PracticeSession
1629794464.25,fixation,2,5,,,PracticeSession
1629794465.22,stimulus,1,500,,,RelaxSession
1629794465.72,fixation,1,500,,,RelaxSession
1629794465.75,stimulus,2,6,,,PracticeSession
1629794466.25,fixation,2,6,,,PracticeSession
1629794467.22,stimulus,1,501,,,RelaxSession
1629794467.72,fixation,1,501,,,RelaxSession
1629794467.75,stimulus,2,7,,,PracticeSession
1629794468.25,fixation,2,7,,,PracticeSession
1629794469.22,stimulus,1,502,,,RelaxSession
1629794469.72,fixation,1,502,,,RelaxSession
1629794469.75,stimulus,2,8,,,PracticeSession
1629794470.25,fixation,2,8,,,PracticeSession
1629794471.22,stimulus,1,503,,,RelaxSession
1629794471.72,fixation,1,503,,,RelaxSession
1629794471.75,stimulus,2,9,,,PracticeSession
1629794472.25,fixation,2,9,,,PracticeSession
1629794473.22,stimulus,1,504,,,RelaxSession
1629794473.72,fixation,1,504,,,RelaxSession
1629794473.75,stimulus,2,10,,,PracticeSession
1629794474.25,fixation,2,10,,,PracticeSession
1629794475.22,stimulus,1,505,,,RelaxSession
1629794475.72,fixation,1,505,,,RelaxSession
1629794475.75,stimulus,2,11,,,PracticeSession
1629794476.25,fixation,2,11,,,PracticeSession
1629794477.22,stimulus,1,506,,,RelaxSession
1629794477.72,fixation,1,506,,,RelaxSession
1629794477.75,stimulus,2,12,,,PracticeSession
1629794478.25,fixation,2,12,,,PracticeSession
1629794479.22,stimulus,1,507,,,RelaxSession
1629794479.72,fixation,1,507,,,RelaxSession
1629794479.75,stimulus,2,13,,,PracticeSession
1629794480.25,fixation,2,13,,,PracticeSession
1629794481.22,stimulus,1,508,,,RelaxSession
1629794481.72,fixation,1,508,,,RelaxSession
1629794481.75,stimulus,2,14,,,PracticeSession
1629794482.25,fixation,2,14,,,PracticeSession
1629794483.22,stimulus,1,509,,,RelaxSession
1629794483.72,fixation,1,509,,,RelaxSession
1629794483.75,stimulus,2,15,,,PracticeSession
1629794484.25,fixation,2,15,,,PracticeSession
1629794485.22,stimulus,1,510,,,RelaxSession
1629794485.72,fixation,1,510,,,RelaxSession
1629794485.75,stimulus,2,16,,,PracticeSession
1629794486.25,fixation,2,16,,,PracticeSession
1629794487.22,stimulus,1,511,,,RelaxSession
1629794487.72,fixation,1,511,,,RelaxSession
1629794487.75,stimulus,2,17,,,PracticeSession
1629794488.25,fixation,2,17,,,PracticeSession
1629794489.22,stimulus,1,512,,,RelaxSession
1629794489.72,fixation,1,512,,,RelaxSession
1629794489.75,stimulus,2,18,,,PracticeSession
1629794490.25,fixation,2,18,,,PracticeSession
1629794491.22,stimulus,1,513,,,RelaxSession
1629794491.72,fixation,1,513,,,RelaxSession
1629794491.75,stimulus,2,19,,,PracticeSession
1629794492.25,fixation,2,19,,,PracticeSession
1629794493.22,stimulus,1,514,,,RelaxSession
1629794493.72,fixation,1,514,,,RelaxSession
1629794493.75,stimulus,2,20,,,PracticeSession
1629794494.25,fixation,2,20,,,PracticeSession
1629794495.22,stimulus,1,515,,,RelaxSession
1629794495.72,fixation,1,515,,,RelaxSession
1629794495.75,stimulus,2,21,,,PracticeSession
1629794496.25,fixation,2,21,,,PracticeSession
1629794497.22,stimulus,1,516,,,RelaxSession
1629794497.72,fixation,1,516,,,RelaxSession
1629794497.75,stimulus,2,22,,,PracticeSession
1629794498.25,fixation,2,22,,,PracticeSession
1629794499.22,stimulus,1,517,,,RelaxSession
1629794499.72,fixation,1,517,,,RelaxSession
1629794499.75,stimulus,2,23,,,PracticeSession
1629794500.25,fixation,2,23,,,PracticeSession
1629794501.22,stimulus,1,518,,,RelaxSession
1629794501.72,fixation,1,518,,,RelaxSession
1629794501.75,stimulus,2,24,,,PracticeSession
1629794502.25,fixation,2,24,,,PracticeSession
1629794503.22,stimulus,1,519,,,RelaxSession
1629794503.72,fixation,1,519,,,RelaxSession
1629794503.75,stimulus,2,25,,,PracticeSession
1629794504.25,fixation,2,25,,,PracticeSession
1629794505.22,stimulus,1,520,,,RelaxSession
1629794505.72,fixation,1,520,,,RelaxSession
1629794505.75,stimulus,2,26,,,PracticeSession
1629794506.25,fixation,2,26,,,PracticeSession
1629794507.22,stimulus,1,521,,,RelaxSession
1629794507.72,fixation,1,521,,,RelaxSession
1629794507.75,stimulus,2,27,,,PracticeSession
1629794508.25,fixation,2,27,,,PracticeSession
1629794509.22,stimulus,1,522,,,RelaxSession
1629794509.72,fixation,1,522,,,RelaxSession
1629794509.75,stimulus,2,28,,,PracticeSession
1629794510.25,fixation,2,28,,,PracticeSession
1629794511.22,stimulus,1,523,,,RelaxSession
1629794511.72,fixation,1,523,,,RelaxSession
1629794511.75,stimulus,2,29,,,PracticeSession
1629794512.25,fixation,2,29,,,PracticeSession
1629794513.22,stimulus,1,524,,,RelaxSession
1629794513.72,fixation,1,524,,,RelaxSession
1629794513.75,stimulus,2,30,,,PracticeSession
1629794514.25,fixation,2,30,,,PracticeSession
1629794515.22,stimulus,1,525,,,RelaxSession
1629794515.72,fixation,1,525,,,RelaxSession
1629794515.75,stimulus,2,31,,,PracticeSession
1629794516.25,fixation,2,31,,,PracticeSession
1629794517.22,stimulus,1,526,,,RelaxSession
1629794517.72,fixation,1,526,,,RelaxSession
1629794517.75,stimulus,2,32,,,PracticeSession
1629794518.25,fixation,2,32,,,PracticeSession
1629794519.22,stimulus,1,527,,,RelaxSession
1629794519.72,fixation,1,527,,,RelaxSession
1629794519.75,stimulus,2,33,,,PracticeSession
1629794520.25,fixation,2,33,,,PracticeSession
1629794521.22,stimulus,1,528,,,RelaxSession
1629794521.72,fixation,1,528,,,RelaxSession
1629794521.75,stimulus,2,34,,,PracticeSession
1629794522.25,fixation,2,34,,,PracticeSession
1629794523.22,stimulus,1,529,,,RelaxSession
1629794523.72,fixation,1,529,,,RelaxSession
1629794523.75,stimulus,2,35,,,PracticeSession
1629794524.25,fixation,2,35,,,PracticeSession
1629794525.22,stimulus,1,530,,,RelaxSession
1629794525.72,fixation,1,530,,,RelaxSession
1629794525.75,stimulus,2,36,,,PracticeSession
1629794526.25,fixation,2,36,,,PracticeSession
1629794527.22,stimulus,1,531,,,RelaxSession
1629794527.72,fixation,1,531,,,RelaxSession
1629794527.75,stimulus,2,37,,,PracticeSession
1629794528.25,fixation,2,37,,,PracticeSession
1629794529.22,stimulus,1,532,,,RelaxSession
1629794529.72,fixation,1,532,,,RelaxSession
1629794529.75,stimulus,2,38,,,PracticeSession
1629794530.25,fixation,2,38,,,PracticeSession
1629794531.22,stimulus,1,533,,,RelaxSession
1629794531.72,fixation,1,533,,,RelaxSession
1629794531.75,stimulus,2,39,,,PracticeSession
1629794532.25,fixation,2,39,,,PracticeSession
1629794533.22,stimulus,1,534,,,RelaxSession
1629794533.72,fixation,1,534,,,RelaxSession
1629794533.75,stimulus,2,40,,,PracticeSession
1629794534.25,fixation,2,40,,,PracticeSession
1629794535.22,stimulus,1,535,,,RelaxSession
1629794535.72,fixation,1,535,,,RelaxSession
1629794535.75,stimulus,2,41,,,PracticeSession
1629794536.25,fixation,2,41,,,PracticeSession
1629794537.22,stimulus,1,536,,,RelaxSession
1629794537.72,fixation,1,536,,,RelaxSession
1629794537.75,stimulus,2,42,,,PracticeSession
1629794538.25,fixation,2,42,,,PracticeSession
1629794539.22,stimulus,1,537,,,RelaxSession
1629794539.72,fixation,1,537,,,RelaxSession
1629794539.75,stimulus,2,43,,,PracticeSession
1629794540.25,fixation,2,43,,,PracticeSession
1629794541.22,stimulus,1,538,,,RelaxSession
1629794541.72,fixation,1,538,,,RelaxSession
1629794541.75,stimulus,2,44,,,PracticeSession
1629794542.25,fixation,2,44,,,PracticeSession
1629794543.22,stimulus,1,539,,,RelaxSession
1629794543.72,fixation,1,539,,,RelaxSession
1629794543.75,stimulus,2,45,,,NoMusic
1629794544.25,fixation,2,45,,,NoMusic
1629794545.22,stimulus,1,540,,,RelaxSession
1629794545.72,fixation,1,540,,,RelaxSession
1629794545.75,stimulus,2,46,,,NoMusic
1629794546.25,fixation,2,46,,,NoMusic
1629794547.22,stimulus,1,541,,,RelaxSession
1629794547.72,fixation,1,541,,,RelaxSession
1629794547.75,stimulus,2,47,,,NoMusic
1629794548.25,fixation,2,47,,,NoMusic
1629794549.22,stimulus,1,542,,,RelaxSession
1629794549.72,fixation,1,542,,,RelaxSession
1629794549.75,stimulus,2,48,,,NoMusic
1629794550.25,fixation,2,48,,,NoMusic
1629794551.22,stimulus,1,543,,,RelaxSession
1629794551.72,fixation,1,543,,,RelaxSession
1629794551.75,stimulus,2,49,,,NoMusic
1629794552.25,fixation,2,49,,,NoMusic
1629794553.22,stimulus,1,544,,,RelaxSession
1629794553.72,fixation,1,544,,,RelaxSession
1629794553.75,stimulus,2,50,,,NoMusic
1629794554.25,fixation,2,50,,,NoMusic
1629794555.22,stimulus,1,545,,,RelaxSession
1629794555.72,fixation,1,545,,,RelaxSession
1629794555.75,stimulus,2,51,,,NoMusic
1629794556.25,fixation,2,51,,,NoMusic
1629794557.22,stimulus,1,546,,,RelaxSession
1629794557.72,fixation,1,546,,,RelaxSession
1629794557.75,stimulus,2,52,,,NoMusic
1629794558.25,fixation,2,52,,,NoMusic
1629794559.22,stimulus,1,547,,,RelaxSession
1629794559.72,fixation,1,547,,,RelaxSession
1629794559.75,stimulus,2,53,,,NoMusic
1629794560.25,fixation,2,53,,,NoMusic
1629794561.22,stimulus,1,548,,,RelaxSession
1629794561.72,fixation,1,548,,,RelaxSession
1629794561.75,stimulus,2,54,,,NoMusic
1629794562.25,fixation,2,54,,,NoMusic
1629794563.22,stimulus,1,549,,,RelaxSession
1629794563.72,fixation,1,549,,,RelaxSession
1629794563.75,stimulus,2,55,,,NoMusic
1629794564.25,fixation,2,55,,,NoMusic
1629794565.22,stimulus,1,550,,,RelaxSession
1629794565.72,fixation,1,550,,,RelaxSession
1629794565.75,stimulus,2,56,,,NoMusic
1629794566.25,fixation,2,56,,,NoMusic
1629794567.22,stimulus,1,551,,,RelaxSession
1629794567.72,fixation,1,551,,,RelaxSession
1629794567.75,stimulus,2,57,,,NoMusic
1629794568.25,fixation,2,57,,,NoMusic
1629794569.22,stimulus,1,552,,,RelaxSession
1629794569.72,fixation,1,552,,,RelaxSession
1629794569.75,stimulus,2,58,,,NoMusic
1629794570.25,fixation,2,58,,,NoMusic
1629794571.22,stimulus,1,553,,,RelaxSession
1629794571.72,fixation,1,553,,,RelaxSession
1629794571.75,stimulus,2,59,,,NoMusic
1629794572.25,fixation,2,59,,,NoMusic
1629794573.22,stimulus,1,554,,,RelaxSession
1629794573.72,fixation,1,554,,,RelaxSession
1629794573.75,stimulus,2,60,,,NoMusic
1629794574.25,fixation,2,60,,,NoMusic
1629794575.22,stimulus,1,555,,,RelaxSession
1629794575.72,fixation,1,555,,,RelaxSession
1629794575.75,stimulus,2,61,,,NoMusic
1629794576.25,fixation,2,61,,,NoMusic
1629794577.22,stimulus,1,556,,,RelaxSession
1629794577.72,fixation,1,556,,,RelaxSession
1629794577.75,stimulus,2,62,,,NoMusic
1629794578.25,fixation,2,62,,,NoMusic
1629794579.22,stimulus,1,557,,,RelaxSession
1629794579.72,fixation,1,557,,,RelaxSession
1629794579.75,stimulus,2,63,,,NoMusic
1629794580.25,fixation,2,63,,,NoMusic
1629794581.22,stimulus,1,558,,,RelaxSession
1629794581.72,fixation,1,558,,,RelaxSession
1629794581.75,stimulus,2,64,,,NoMusic
1629794582.25,fixation,2,64,,,NoMusic
1629794583.22,stimulus,1,559,,,RelaxSession
1629794583.72,fixation,1,559,,,RelaxSession
1629794583.75,stimulus,2,65,,,NoMusic
1629794584.25,fixation,2,65,,,NoMusic
1629794585.22,stimulus,1,560,,,RelaxSession
1629794585.72,fixation,1,560,,,RelaxSession
1629794585.75,stimulus,2,66,,,NoMusic
1629794586.25,fixation,2,66,,,NoMusic
1629794587.22,stimulus,1,561,,,RelaxSession
1629794587.72,fixation,1,561,,,RelaxSession
1629794587.75,stimulus,2,67,,,NoMusic
1629794588.25,fixation,2,67,,,NoMusic
1629794589.22,stimulus,1,562,,,RelaxSession
1629794589.72,fixation,1,562,,,RelaxSession
1629794589.75,stimulus,2,68,,,NoMusic
1629794590.25,fixation,2,68,,,NoMusic
1629794591.22,stimulus,1,563,,,RelaxSession
1629794591.72,fixation,1,563,,,RelaxSession
1629794591.75,stimulus,2,69,,,NoMusic
1629794592.25,fixation,2,69,,,NoMusic
1629794593.22,stimulus,1,564,,,RelaxSession
1629794593.72,fixation,1,564,,,RelaxSession
1629794593.75,stimulus,2,70,,,NoMusic
1629794594.25,fixation,2,70,,,NoMusic
1629794595.22,stimulus,1,565,,,RelaxSession
1629794595.72,fixation,1,565,,,RelaxSession
1629794595.75,stimulus,2,71,,,NoMusic
1629794596.25,fixation,2,71,,,NoMusic
1629794597.22,stimulus,1,566,,,RelaxSession
1629794597.72,fixation,1,566,,,RelaxSession
1629794597.75,stimulus,2,72,,,NoMusic
1629794598.25,fixation,2,72,,,NoMusic
1629794599.22,stimulus,1,567,,,RelaxSession
1629794599.72,fixation,1,567,,,RelaxSession
1629794599.75,stimulus,2,73,,,NoMusic
1629794600.25,fixation,2,73,,,NoMusic
1629794601.22,stimulus,1,568,,,RelaxSession
1629794601.72,fixation,1,568,,,RelaxSession
1629794601.75,stimulus,2,74,,,NoMusic
1629794602.25,fixation,2,74,,,NoMusic
1629794603.22,stimulus,1,569,,,RelaxSession
1629794603.72,fixation,1,569,,,RelaxSession
1629794603.75,stimulus,2,75,,,NoMusic
1629794604.25,fixation,2,75,,,NoMusic
1629794605.22,stimulus,1,570,,,RelaxSession
1629794605.72,fixation,1,570,,,RelaxSession
1629794605.75,stimulus,2,76,,,NoMusic
1629794606.25,fixation,2,76,,,NoMusic
1629794607.22,stimulus,1,571,,,RelaxSession
1629794607.72,fixation,1,571,,,RelaxSession
1629794607.75,stimulus,2,77,,,NoMusic
1629794608.25,fixation,2,77,,,NoMusic
1629794609.22,stimulus,1,572,,,RelaxSession
1629794609.72,fixation,1,572,,,RelaxSession
1629794609.75,stimulus,2,78,,,NoMusic
1629794610.25,fixation,2,78,,,NoMusic
1629794611.22,stimulus,1,573,,,RelaxSession
1629794611.72,fixation,1,573,,,RelaxSession
1629794611.75,stimulus,2,79,,,NoMusic
1629794612.25,fixation,2,79,,,NoMusic
1629794613.22,stimulus,1,574,,,RelaxSession
1629794613.72,fixation,1,574,,,RelaxSession
1629794613.75,stimulus,2,80,,,NoMusic
1629794614.25,fixation,2,80,,,NoMusic
1629794615.22,stimulus,1,575,,,RelaxSession
1629794615.72,fixation,1,575,,,RelaxSession
1629794615.75,stimulus,2,81,,,NoMusic
1629794616.25,fixation,2,81,,,NoMusic
1629794617.22,stimulus,1,576,,,RelaxSession
1629794617.72,fixation,1,576,,,RelaxSession
1629794617.75,stimulus,2,82,,,NoMusic
1629794618.25,fixation,2,82,,,NoMusic
1629794619.22,stimulus,1,577,,,RelaxSession
1629794619.72,fixation,1,577,,,RelaxSession
1629794619.75,stimulus,2,83,,,NoMusic
1629794620.25,fixation,2,83,,,NoMusic
1629794621.22,stimulus,1,578,,,RelaxSession
1629794621.72,fixation,1,578,,,RelaxSession
1629794621.75,stimulus,2,84,,,NoMusic
1629794622.25,fixation,2,84,,,NoMusic
1629794623.22,stimulus,1,579,,,RelaxSession
1629794623.72,fixation,1,579,,,RelaxSession
1629794623.75,stimulus,2,85,,,NoMusic
1629794624.25,fixation,2,85,,,NoMusic
1629794625.22,stimulus,1,580,,,RelaxSession
1629794625.72,fixation,1,580,,,RelaxSession
1629794625.75,stimulus,2,86,,,NoMusic
1629794626.25,fixation,2,86,,,NoMusic
1629794627.22,stimulus,1,581,,,RelaxSession
1629794627.72,fixation,1,581,,,RelaxSession
1629794627.75,stimulus,2,87,,,NoMusic
1629794628.25,fixation,2,87,,,NoMusic
1629794629.22,stimulus,1,582,,,RelaxSession
1629794629.72,fixation,1,582,,,RelaxSession
1629794629.75,stimulus,2,88,,,NoMusic
1629794630.25,fixation,2,88,,,NoMusic
1629794631.22,stimulus,1,583,,,RelaxSession
1629794631.72,fixation,1,583,,,RelaxSession
1629794631.75,stimulus,2,89,,,NoMusic
1629794632.25,fixation,2,89,,,NoMusic
1629794633.22,stimulus,1,584,,,RelaxSession
1629794633.72,fixation,1,584,,,RelaxSession
1629794633.75,stimulus,2,90,,,NoMusic
1629794634.25,fixation,2,90,,,NoMusic
1629794635.22,stimulus,1,585,,,RelaxSession
1629794635.72,fixation,1,585,,,RelaxSession
1629794635.75,stimulus,2,91,,,NoMusic
1629794636.25,fixation,2,91,,,NoMusic
1629794637.22,stimulus,1,586,,,RelaxSession
1629794637.72,fixation,1,586,,,RelaxSession
1629794637.75,stimulus,2,92,,,NoMusic
1629794638.25,fixation,2,92,,,NoMusic
1629794639.22,stimulus,1,587,,,RelaxSession
1629794639.72,fixation,1,587,,,RelaxSession
1629794639.75,stimulus,2,93,,,NoMusic
1629794640.25,fixation,2,93,,,NoMusic
1629794641.22,stimulus,1,588,,,RelaxSession
1629794641.72,fixation,1,588,,,RelaxSession
1629794641.75,stimulus,2,94,,,NoMusic
1629794642.25,fixation,2,94,,,NoMusic
1629794643.22,stimulus,1,589,,,RelaxSession
1629794643.72,fixation,1,589,,,RelaxSession
1629794643.75,stimulus,2,95,,,NoMusic
1629794644.25,fixation,2,95,,,NoMusic
1629794644.86,stimulus,3,1,,,PracticeSession
1629794645.22,stimulus,1,590,,,RelaxSession
1629794645.36,fixation,3,1,,,PracticeSession
1629794645.72,fixation,1,590,,,RelaxSession
1629794645.75,stimulus,2,96,,,NoMusic
1629794646.25,fixation,2,96,,,NoMusic
1629794646.86,stimulus,3,2,,,PracticeSession
1629794647.22,stimulus,1,591,,,RelaxSession
1629794647.36,fixation,3,2,,,PracticeSession
1629794647.72,fixation,1,591,,,RelaxSession
1629794647.75,stimulus,2,97,,,NoMusic
1629794648.25,fixation,2,97,,,NoMusic
1629794648.86,stimulus,3,3,,,PracticeSession
1629794649.22,stimulus,1,592,,,RelaxSession
1629794649.36,fixation,3,3,,,PracticeSession
1629794649.72,fixation,1,592,,,RelaxSession
1629794649.75,stimulus,2,98,,,NoMusic
1629794650.25,fixation,2,98,,,NoMusic
1629794650.86,stimulus,3,4,,,PracticeSession
1629794651.22,stimulus,1,593,,,RelaxSession
1629794651.36,fixation,3,4,,,PracticeSession
1629794651.72,fixation,1,593,,,RelaxSession
1629794651.75,stimulus,2,99,,,NoMusic
1629794652.25,fixation,2,99,,,NoMusic
1629794652.86,stimulus,3,5,,,PracticeSession
1629794653.22,stimulus,1,594,,,RelaxSession
1629794653.36,fixation,3,5,,,PracticeSession
1629794653.72,fixation,1,594,,,RelaxSession
1629794653.75,stimulus,2,100,,,NoMusic
1629794654.25,fixation,2,100,,,NoMusic
1629794654.86,stimulus,3,6,,,PracticeSession
1629794655.22,stimulus,1,595,,,RelaxSession
1629794655.36,fixation,3,6,,,PracticeSession
1629794655.72,fixation,1,595,,,RelaxSession
1629794655.75,stimulus,2,101,,,NoMusic
1629794656.25,fixation,2,101,,,NoMusic
1629794656.86,stimulus,3,7,,,PracticeSession
1629794657.22,stimulus,1,596,,,RelaxSession
1629794657.36,fixation,3,7,,,PracticeSession
1629794657.72,fixation,1,596,,,RelaxSession
1629794657.75,stimulus,2,102,,,NoMusic
1629794658.25,fixation,2,102,,,NoMusic
1629794658.86,stimulus,3,8,,,PracticeSession
1629794659.22,stimulus,1,597,,,RelaxSession
1629794659.36,fixation,3,8,,,PracticeSession
1629794659.72,fixation,1,597,,,RelaxSession
1629794659.75,stimulus,2,103,,,NoMusic
1629794660.25,fixation,2,103,,,NoMusic
1629794660.86,stimulus,3,9,,,PracticeSession
1629794661.22,stimulus,1,598,,,RelaxSession
1629794661.36,fixation,3,9,,,PracticeSession
1629794661.72,fixation,1,598,,,RelaxSession
1629794661.75,stimulus,2,104,,,NoMusic
1629794662.25,fixation,2,104,,,NoMusic
1629794662.86,stimulus,3,10,,,PracticeSession
1629794663.22,stimulus,1,599,,,RelaxSession
1629794663.36,fixation,3,10,,,PracticeSession
1629794663.72,fixation,1,599,,,RelaxSession
1629794663.75,stimulus,2,105,,,NoMusic
1629794664.25,fixation,2,105,,,NoMusic
1629794664.86,stimulus,3,11,,,PracticeSession
1629794665.22,stimulus,1,600,,,RelaxSession
1629794665.36,fixation,3,11,,,PracticeSession
1629794665.72,fixation,1,600,,,RelaxSession
1629794665.75,stimulus,2,106,,,NoMusic
1629794666.25,fixation,2,106,,,NoMusic
1629794666.86,stimulus,3,12,,,PracticeSession
1629794667.22,stimulus,1,601,,,RelaxSession
1629794667.36,fixation,3,12,,,PracticeSession
1629794667.72,fixation,1,601,,,RelaxSession
1629794667.75,stimulus,2,107,,,NoMusic
1629794668.25,fixation,2,107,,,NoMusic
1629794668.86,stimulus,3,13,,,PracticeSession
1629794669.22,stimulus,1,602,,,RelaxSession
1629794669.36,fixation,3,13,,,PracticeSession
1629794669.72,fixation,1,602,,,RelaxSession
1629794669.75,stimulus,2,108,,,NoMusic
1629794670.25,fixation,2,108,,,NoMusic
1629794670.86,stimulus,3,14,,,PracticeSession
1629794671.22,stimulus,1,603,,,RelaxSession
1629794671.36,fixation,3,14,,,PracticeSession
1629794671.72,fixation,1,603,,,RelaxSession
1629794671.75,stimulus,2,109,,,NoMusic
1629794672.25,fixation,2,109,,,NoMusic
1629794672.86,stimulus,3,15,,,PracticeSession
1629794673.22,stimulus,1,604,,,RelaxSession
1629794673.36,fixation,3,15,,,PracticeSession
1629794673.72,fixation,1,604,,,RelaxSession
1629794673.75,stimulus,2,110,,,NoMusic
1629794674.25,fixation,2,110,,,NoMusic
1629794674.86,stimulus,3,16,,,PracticeSession
1629794675.22,stimulus,1,605,,,RelaxSession
1629794675.36,fixation,3,16,,,PracticeSession
1629794675.72,fixation,1,605,,,RelaxSession
1629794675.75,stimulus,2,111,,,NoMusic
1629794676.25,fixation,2,111,,,NoMusic
1629794676.86,stimulus,3,17,,,PracticeSession
1629794677.22,stimulus,1,606,,,RelaxSession
1629794677.36,fixation,3,17,,,PracticeSession
1629794677.72,fixation,1,606,,,RelaxSession
1629794677.75,stimulus,2,112,,,NoMusic
1629794678.25,fixation,2,112,,,NoMusic
1629794678.86,stimulus,3,18,,,PracticeSession
1629794679.22,stimulus,1,607,,,RelaxSession
1629794679.36,fixation,3,18,,,PracticeSession
1629794679.72,fixation,1,607,,,RelaxSession
1629794679.75,stimulus,2,113,,,NoMusic
1629794680.25,fixation,2,113,,,NoMusic
1629794680.86,stimulus,3,19,,,PracticeSession
1629794681.22,stimulus,1,608,,,RelaxSession
1629794681.36,fixation,3,19,,,PracticeSession
1629794681.72,fixation,1,608,,,RelaxSession
1629794681.75,stimulus,2,114,,,NoMusic
1629794682.25,fixation,2,114,,,NoMusic
1629794682.86,stimulus,3,20,,,PracticeSession
1629794683.22,stimulus,1,609,,,RelaxSession
1629794683.36,fixation,3,20,,,PracticeSession
1629794683.72,fixation,1,609,,,RelaxSession
1629794683.75,stimulus,2,115,,,NoMusic
1629794684.25,fixation,2,115,,,NoMusic
1629794684.86,stimulus,3,21,,,PracticeSession
1629794685.22,stimulus,1,610,,,RelaxSession
1629794685.36,fixation,3,21,,,PracticeSession
1629794685.72,fixation,1,610,,,RelaxSession
1629794685.75,stimulus,2,116,,,NoMusic
1629794686.25,fixation,2,116,,,NoMusic
1629794686.86,stimulus,3,22,,,PracticeSession
1629794687.22,stimulus,1,611,,,RelaxSession
1629794687.36,fixation,3,22,,,PracticeSession
1629794687.72,fixation,1,611,,,RelaxSession
1629794687.75,stimulus,2,117,,,NoMusic
1629794688.25,fixation,2,117,,,NoMusic
1629794688.86,stimulus,3,23,,,PracticeSession
1629794689.22,stimulus,1,612,,,RelaxSession
1629794689.36,fixation,3,23,,,PracticeSession
1629794689.72,fixation,1,612,,,RelaxSession
1629794689.75,stimulus,2,118,,,NoMusic
1629794690.25,fixation,2,118,,,NoMusic
1629794690.86,stimulus,3,24,,,PracticeSession
1629794691.22,stimulus,1,613,,,RelaxSession
1629794691.36,fixation,3,24,,,PracticeSession
1629794691.72,fixation,1,613,,,RelaxSession
1629794691.75,stimulus,2,119,,,NoMusic
1629794692.25,fixation,2,119,,,NoMusic
1629794692.86,stimulus,3,25,,,PracticeSession
1629794693.22,stimulus,1,614,,,RelaxSession
1629794693.36,fixation,3,25,,,PracticeSession
1629794693.72,fixation,1,614,,,RelaxSession
1629794693.75,stimulus,2,120,,,NoMusic
1629794694.25,fixation,2,120,,,NoMusic
1629794694.86,stimulus,3,26,,,PracticeSession
1629794695.22,stimulus,1,615,,,RelaxSession
1629794695.36,fixation,3,26,,,PracticeSession
1629794695.72,fixation,1,615,,,RelaxSession
1629794695.75,stimulus,2,121,,,NoMusic
1629794696.25,fixation,2,121,,,NoMusic
1629794696.86,stimulus,3,27,,,PracticeSession
1629794697.22,stimulus,1,616,,,RelaxSession
1629794697.36,fixation,3,27,,,PracticeSession
1629794697.72,fixation,1,616,,,RelaxSession
1629794697.75,stimulus,2,122,,,NoMusic
1629794698.25,fixation,2,122,,,NoMusic
1629794698.86,stimulus,3,28,,,PracticeSession
1629794699.22,stimulus,1,617,,,RelaxSession
1629794699.36,fixation,3,28,,,PracticeSession
1629794699.72,fixation,1,617,,,RelaxSession
1629794699.75,stimulus,2,123,,,NoMusic
1629794700.25,fixation,2,123,,,NoMusic
1629794700.86,stimulus,3,29,,,PracticeSession
1629794701.22,stimulus,1,618,,,RelaxSession
1629794701.36,fixation,3,29,,,PracticeSession
1629794701.72,fixation,1,618,,,RelaxSession
1629794701.75,stimulus,2,124,,,NoMusic
1629794702.25,fixation,2,124,,,NoMusic
1629794702.86,stimulus,3,30,,,PracticeSession
1629794703.22,stimulus,1,619,,,RelaxSession
1629794703.36,fixation,3,30,,,PracticeSession
1629794703.72,fixation,1,619,,,RelaxSession
1629794703.75,stimulus,2,125,,,NoMusic
1629794704.25,fixation,2,125,,,NoMusic
1629794704.86,stimulus,3,31,,,PracticeSession
1629794705.22,stimulus,1,620,,,RelaxSession
1629794705.36,fixation,3,31,,,PracticeSession
1629794705.72,fixation,1,620,,,RelaxSession
1629794705.75,stimulus,2,126,,,NoMusic
1629794706.25,fixation,2,126,,,NoMusic
1629794706.86,stimulus,3,32,,,PracticeSession
1629794707.22,stimulus,1,621,,,RelaxSession
1629794707.36,fixation,3,32,,,PracticeSession
1629794707.72,fixation,1,621,,,RelaxSession
1629794707.75,stimulus,2,127,,,NoMusic
1629794708.25,fixation,2,127,,,NoMusic
1629794708.86,stimulus,3,33,,,PracticeSession
1629794709.22,stimulus,1,622,,,RelaxSession
1629794709.36,fixation,3,33,,,PracticeSession
1629794709.72,fixation,1,622,,,RelaxSession
1629794709.75,stimulus,2,128,,,NoMusic
1629794710.25,fixation,2,128,,,NoMusic
1629794710.86,stimulus,3,34,,,PracticeSession
1629794711.22,stimulus,1,623,,,RelaxSession
1629794711.36,fixation,3,34,,,PracticeSession
1629794711.72,fixation,1,623,,,RelaxSession
1629794711.75,stimulus,2,129,,,NoMusic
1629794712.25,fixation,2,129,,,NoMusic
1629794712.86,stimulus,3,35,,,PracticeSession
1629794713.22,stimulus,1,624,,,RelaxSession
1629794713.36,fixation,3,35,,,PracticeSession
1629794713.72,fixation,1,624,,,RelaxSession
1629794713.75,stimulus,2,130,,,NoMusic
1629794714.25,fixation,2,130,,,NoMusic
1629794714.86,stimulus,3,36,,,PracticeSession
1629794715.22,stimulus,1,625,,,RelaxSession
1629794715.36,fixation,3,36,,,PracticeSession
1629794715.72,fixation,1,625,,,RelaxSession
1629794715.75,stimulus,2,131,,,NoMusic
1629794716.25,fixation,2,131,,,NoMusic
1629794716.86,stimulus,3,37,,,PracticeSession
1629794717.22,stimulus,1,626,,,RelaxSession
1629794717.36,fixation,3,37,,,PracticeSession
1629794717.72,fixation,1,626,,,RelaxSession
1629794717.75,stimulus,2,132,,,NoMusic
1629794718.25,fixation,2,132,,,NoMusic
1629794718.86,stimulus,3,38,,,PracticeSession
1629794719.22,stimulus,1,627,,,RelaxSession
1629794719.36,fixation,3,38,,,PracticeSession
1629794719.72,fixation,1,627,,,RelaxSession
1629794719.75,stimulus,2,133,,,NoMusic
1629794720.25,fixation,2,133,,,NoMusic
1629794720.86,stimulus,3,39,,,PracticeSession
1629794721.22,stimulus,1,628,,,RelaxSession
1629794721.36,fixation,3,39,,,PracticeSession
1629794721.72,fixation,1,628,,,RelaxSession
1629794721.75,stimulus,2,134,,,NoMusic
1629794722.25,fixation,2,134,,,NoMusic
1629794722.86,stimulus,3,40,,,PracticeSession
1629794723.22,stimulus,1,629,,,RelaxSession
1629794723.36,fixation,3,40,,,PracticeSession
1629794723.72,fixation,1,629,,,RelaxSession
1629794723.75,stimulus,2,135,,,NoMusic
1629794724.25,fixation,2,135,,,NoMusic
1629794724.86,stimulus,3,41,,,PracticeSession
1629794725.22,stimulus,1,630,,,RelaxSession
1629794725.36,fixation,3,41,,,PracticeSession
1629794725.72,fixation,1,630,,,RelaxSession
1629794725.75,stimulus,2,136,,,NoMusic
1629794726.25,fixation,2,136,,,NoMusic
1629794726.86,stimulus,3,42,,,PracticeSession
1629794727.22,stimulus,1,631,,,RelaxSession
1629794727.36,fixation,3,42,,,PracticeSession
1629794727.72,fixation,1,631,,,RelaxSession
1629794727.75,stimulus,2,137,,,NoMusic
1629794728.25,fixation,2,137,,,NoMusic
1629794728.86,stimulus,3,43,,,PracticeSession
1629794729.22,stimulus,1,632,,,RelaxSession
1629794729.36,fixation,3,43,,,PracticeSession
1629794729.72,fixation,1,632,,,RelaxSession
1629794729.75,stimulus,2,138,,,NoMusic
1629794730.25,fixation,2,138,,,NoMusic
1629794730.86,stimulus,3,44,,,PracticeSession
1629794731.22,stimulus,1,633,,,RelaxSession
1629794731.36,fixation,3,44,,,PracticeSession
1629794731.72,fixation,1,633,,,RelaxSession
1629794731.75,stimulus,2,139,,,NoMusic
1629794732.25,fixation,2,139,,,NoMusic
1629794732.86,stimulus,3,45,,,NoMusic
1629794733.22,stimulus,1,634,,,RelaxSession
1629794733.36,fixation,3,45,,,NoMusic
1629794733.72,fixation,1,634,,,RelaxSession
1629794733.75,stimulus,2,140,,,NoMusic
1629794734.25,fixation,2,140,,,NoMusic
1629794734.86,stimulus,3,46,,,NoMusic
1629794735.22,stimulus,1,635,,,RelaxSession
1629794735.36,fixation,3,46,,,NoMusic
1629794735.72,fixation,1,635,,,RelaxSession
1629794735.75,stimulus,2,141,,,NoMusic
1629794736.25,fixation,2,141,,,NoMusic
1629794736.86,stimulus,3,47,,,NoMusic
1629794737.22,stimulus,1,636,,,RelaxSession
1629794737.36,fixation,3,47,,,NoMusic
1629794737.72,fixation,1,636,,,RelaxSession
1629794737.75,stimulus,2,142,,,NoMusic
1629794738.25,fixation,2,142,,,NoMusic
1629794738.86,stimulus,3,48,,,NoMusic
1629794739.22,stimulus,1,637,,,RelaxSession
1629794739.36,fixation,3,48,,,NoMusic
1629794739.72,fixation,1,637,,,RelaxSession
1629794739.75,stimulus,2,143,,,NoMusic
1629794740.25,fixation,2,143,,,NoMusic
1629794740.86,stimulus,3,49,,,NoMusic
1629794741.22,stimulus,1,638,,,RelaxSession
1629794741.36,fixation,3,49,,,NoMusic
1629794741.72,fixation,1,638,,,RelaxSession
1629794741.75,stimulus,2,144,,,NoMusic
1629794742.25,fixation,2,144,,,NoMusic
1629794742.86,stimulus,3,50,,,NoMusic
1629794743.22,stimulus,1,639,,,RelaxSession
1629794743.36,fixation,3,50,,,NoMusic
1629794743.72,fixation,1,639,,,RelaxSession
1629794743.75,stimulus,2,145,,,NoMusic
1629794744.25,fixation,2,145,,,NoMusic
1629794744.86,stimulus,3,51,,,NoMusic
1629794745.22,stimulus,1,640,,,RelaxSession
1629794745.36,fixation,3,51,,,NoMusic
1629794745.72,fixation,1,640,,,RelaxSession
1629794745.75,stimulus,2,146,,,NoMusic
1629794746.25,fixation,2,146,,,NoMusic
1629794746.86,stimulus,3,52,,,NoMusic
1629794747.22,stimulus,1,641,,,RelaxSession
1629794747.36,fixation,3,52,,,NoMusic
1629794747.72,fixation,1,641,,,RelaxSession
1629794747.75,stimulus,2,147,,,NoMusic
1629794748.25,fixation,2,147,,,NoMusic
1629794748.86,stimulus,3,53,,,NoMusic
1629794749.22,stimulus,1,642,,,RelaxSession
1629794749.36,fixation,3,53,,,NoMusic
1629794749.72,fixation,1,642,,,RelaxSession
1629794749.75,stimulus,2,148,,,NoMusic
1629794750.25,fixation,2,148,,,NoMusic
1629794750.86,stimulus,3,54,,,NoMusic
1629794751.22,stimulus,1,643,,,RelaxSession
1629794751.36,fixation,3,54,,,NoMusic
1629794751.72,fixation,1,643,,,RelaxSession
1629794751.75,stimulus,2,149,,,NoMusic
1629794752.25,fixation,2,149,,,NoMusic
1629794752.86,stimulus,3,55,,,NoMusic
1629794753.22,stimulus,1,644,,,RelaxSession
1629794753.36,fixation,3,55,,,NoMusic
1629794753.72,fixation,1,644,,,RelaxSession
1629794753.75,stimulus,2,150,,,NoMusic
1629794754.25,fixation,2,150,,,NoMusic
1629794754.86,stimulus,3,56,,,NoMusic
1629794755.22,stimulus,1,645,,,RelaxSession
1629794755.36,fixation,3,56,,,NoMusic
1629794755.72,fixation,1,645,,,RelaxSession
1629794755.75,stimulus,2,151,,,NoMusic
1629794756.25,fixation,2,151,,,NoMusic
1629794756.86,stimulus,3,57,,,NoMusic
1629794757.22,stimulus,1,646,,,RelaxSession
1629794757.36,fixation,3,57,,,NoMusic
1629794757.72,fixation,1,646,,,RelaxSession
1629794757.75,stimulus,2,152,,,NoMusic
1629794758.25,fixation,2,152,,,NoMusic
1629794758.86,stimulus,3,58,,,NoMusic
1629794759.22,stimulus,1,647,,,RelaxSession
1629794759.36,fixation,3,58,,,NoMusic
1629794759.72,fixation,1,647,,,RelaxSession
1629794759.75,stimulus,2,153,,,NoMusic
1629794760.25,fixation,2,153,,,NoMusic
1629794760.86,stimulus,3,59,,,NoMusic
1629794761.22,stimulus,1,648,,,RelaxSession
1629794761.36,fixation,3,59,,,NoMusic
1629794761.72,fixation,1,648,,,RelaxSession
1629794761.75,stimulus,2,154,,,NoMusic
1629794762.25,fixation,2,154,,,NoMusic
1629794762.86,stimulus,3,60,,,NoMusic
1629794763.22,stimulus,1,649,,,RelaxSession
1629794763.36,fixation,3,60,,,NoMusic
1629794763.72,fixation,1,649,,,RelaxSession
1629794763.75,stimulus,2,155,,,NoMusic
1629794764.25,fixation,2,155,,,NoMusic
1629794764.86,stimulus,3,61,,,NoMusic
1629794765.22,stimulus,1,650,,,RelaxSession
1629794765.36,fixation,3,61,,,NoMusic
1629794765.72,fixation,1,650,,,RelaxSession
1629794765.75,stimulus,2,156,,,NoMusic
1629794766.25,fixation,2,156,,,NoMusic
1629794766.86,stimulus,3,62,,,NoMusic
1629794767.22,stimulus,1,651,,,RelaxSession
1629794767.36,fixation,3,62,,,NoMusic
1629794767.72,fixation,1,651,,,RelaxSession
1629794767.75,stimulus,2,157,,,NoMusic
1629794768.25,fixation,2,157,,,NoMusic
1629794768.86,stimulus,3,63,,,NoMusic
1629794769.22,stimulus,1,652,,,RelaxSession
1629794769.36,fixation,3,63,,,NoMusic
1629794769.72,fixation,1,652,,,RelaxSession
1629794769.75,stimulus,2,158,,,NoMusic
1629794770.25,fixation,2,158,,,NoMusic
1629794770.86,stimulus,3,64,,,NoMusic
1629794771.22,stimulus,1,653,,,RelaxSession
1629794771.36,fixation,3,64,,,NoMusic
1629794771.72,fixation,1,653,,,RelaxSession
1629794771.75,stimulus,2,159,,,NoMusic
1629794772.25,fixation,2,159,,,NoMusic
1629794772.86,stimulus,3,65,,,NoMusic
1629794773.22,stimulus,1,654,,,RelaxSession
1629794773.36,fixation,3,65,,,NoMusic
1629794773.72,fixation,1,654,,,RelaxSession
1629794773.75,stimulus,2,160,,,NoMusic
1629794774.25,fixation,2,160,,,NoMusic
1629794774.86,stimulus,3,66,,,NoMusic
1629794775.22,stimulus,1,655,,,RelaxSession
1629794775.36,fixation,3,66,,,NoMusic
1629794775.72,fixation,1,655,,,RelaxSession
1629794775.75,stimulus,2,161,,,NoMusic
1629794776.25,fixation,2,161,,,NoMusic
1629794776.86,stimulus,3,67,,,NoMusic
1629794777.22,stimulus,1,656,,,RelaxSession
1629794777.36,fixation,3,67,,,NoMusic
1629794777.72,fixation,1,656,,,RelaxSession
1629794777.75,stimulus,2,162,,,NoMusic
1629794778.25,fixation,2,162,,,NoMusic
1629794778.86,stimulus,3,68,,,NoMusic
1629794779.22,stimulus,1,657,,,RelaxSession
1629794779.36,fixation,3,68,,,NoMusic
1629794779.72,fixation,1,657,,,RelaxSession
1629794779.75,stimulus,2,163,,,NoMusic
1629794780.25,fixation,2,163,,,NoMusic
1629794780.86,stimulus,3,69,,,NoMusic
1629794781.22,stimulus,1,658,,,RelaxSession
1629794781.36,fixation,3,69,,,NoMusic
1629794781.72,fixation,1,658,,,RelaxSession
1629794781.75,stimulus,2,164,,,NoMusic
1629794782.25,fixation,2,164,,,NoMusic
1629794782.86,stimulus,3,70,,,NoMusic
1629794783.22,stimulus,1,659,,,RelaxSession
1629794783.36,fixation,3,70,,,NoMusic
1629794783.72,fixation,1,659,,,RelaxSession
1629794783.75,stimulus,2,165,,,NoMusic
1629794784.25,fixation,2,165,,,NoMusic
1629794784.86,stimulus,3,71,,,NoMusic
1629794785.22,stimulus,1,660,,,RelaxSession
1629794785.36,fixation,3,71,,,NoMusic
1629794785.72,fixation,1,660,,,RelaxSession
1629794785.75,stimulus,2,166,,,NoMusic
1629794786.25,fixation,2,166,,,NoMusic
1629794786.86,stimulus,3,72,,,NoMusic
1629794787.22,stimulus,1,661,,,RelaxSession
1629794787.36,fixation,3,72,,,NoMusic
1629794787.72,fixation,1,661,,,RelaxSession
1629794787.75,stimulus,2,167,,,NoMusic
1629794788.25,fixation,2,167,,,NoMusic
1629794788.86,stimulus,3,73,,,NoMusic
1629794789.22,stimulus,1,662,,,RelaxSession
1629794789.36,fixation,3,73,,,NoMusic
1629794789.72,fixation,1,662,,,RelaxSession
1629794789.75,stimulus,2,168,,,NoMusic
1629794790.25,fixation,2,168,,,NoMusic
1629794790.86,stimulus,3,74,,,NoMusic
1629794791.22,stimulus,1,663,,,RelaxSession
1629794791.36,fixation,3,74,,,NoMusic
1629794791.72,fixation,1,663,,,RelaxSession
1629794791.75,stimulus,2,169,,,NoMusic
1629794792.25,fixation,2,169,,,NoMusic
1629794792.86,stimulus,3,75,,,NoMusic
1629794793.22,stimulus,1,664,,,RelaxSession
1629794793.36,fixation,3,75,,,NoMusic
1629794793.72,fixation,1,664,,,RelaxSession
1629794793.75,stimulus,2,170,,,NoMusic
1629794794.25,fixation,2,170,,,NoMusic
1629794794.86,stimulus,3,76,,,NoMusic
1629794795.22,stimulus,1,665,,,RelaxSession
1629794795.36,fixation,3,76,,,NoMusic
1629794795.72,fixation,1,665,,,RelaxSession
1629794795.75,stimulus,2,171,,,NoMusic
1629794796.25,fixation,2,171,,,NoMusic
1629794796.86,stimulus,3,77,,,NoMusic
1629794797.22,stimulus,1,666,,,RelaxSession
1629794797.36,fixation,3,77,,,NoMusic
1629794797.72,fixation,1,666,,,RelaxSession
1629794797.75,stimulus,2,172,,,NoMusic
1629794798.25,fixation,2,172,,,NoMusic
1629794798.86,stimulus,3,78,,,NoMusic
1629794799.22,stimulus,1,667,,,RelaxSession
1629794799.36,fixation,3,78,,,NoMusic
1629794799.72,fixation,1,667,,,RelaxSession
1629794799.75,stimulus,2,173,,,NoMusic
1629794800.25,fixation,2,173,,,NoMusic
1629794800.86,stimulus,3,79,,,NoMusic
1629794801.22,stimulus,1,668,,,RelaxSession
1629794801.36,fixation,3,79,,,NoMusic
1629794801.72,fixation,1,668,,,RelaxSession
1629794801.75,stimulus,2,174,,,NoMusic
1629794802.25,fixation,2,174,,,NoMusic
1629794802.86,stimulus,3,80,,,NoMusic
1629794803.22,stimulus,1,669,,,RelaxSession
1629794803.36,fixation,3,80,,,NoMusic
1629794803.72,fixation,1,669,,,RelaxSession
1629794803.75,stimulus,2,175,,,NoMusic
1629794804.25,fixation,2,175,,,NoMusic
1629794804.86,stimulus,3,81,,,NoMusic
1629794805.22,stimulus,1,670,,,RelaxSession
1629794805.36,fixation,3,81,,,NoMusic
1629794805.72,fixation,1,670,,,RelaxSession
1629794805.75,stimulus,2,176,,,NoMusic
1629794806.25,fixation,2,176,,,NoMusic
1629794806.86,stimulus,3,82,,,NoMusic
1629794807.22,stimulus,1,671,,,RelaxSession
1629794807.36,fixation,3,82,,,NoMusic
1629794807.72,fixation,1,671,,,RelaxSession
1629794807.75,stimulus,2,177,,,NoMusic
1629794808.25,fixation,2,177,,,NoMusic
1629794808.86,stimulus,3,83,,,NoMusic
1629794809.22,stimulus,1,672,,,RelaxSession
1629794809.36,fixation,3,83,,,NoMusic
1629794809.72,fixation,1,672,,,RelaxSession
1629794809.75,stimulus,2,178,,,NoMusic
1629794810.25,fixation,2,178,,,NoMusic
1629794810.86,stimulus,3,84,,,NoMusic
1629794811.22,stimulus,1,673,,,RelaxSession
1629794811.36,fixation,3,84,,,NoMusic
1629794811.72,fixation,1,673,,,RelaxSession
1629794811.75,stimulus,2,179,,,NoMusic
1629794812.25,fixation,2,179,,,NoMusic
1629794812.86,stimulus,3,85,,,NoMusic
1629794813.22,stimulus,1,674,,,RelaxSession
1629794813.36,fixation,3,85,,,NoMusic
1629794813.72,fixation,1,674,,,RelaxSession
1629794813.75,stimulus,2,180,,,NoMusic
1629794814.25,fixation,2,180,,,NoMusic
1629794814.86,stimulus,3,86,,,NoMusic
1629794815.22,stimulus,1,675,,,RelaxSession
1629794815.36,fixation,3,86,,,NoMusic
1629794815.72,fixation,1,675,,,RelaxSession
1629794815.75,stimulus,2,181,,,NoMusic
1629794816.25,fixation,2,181,,,NoMusic
1629794816.86,stimulus,3,87,,,NoMusic
1629794817.22,stimulus,1,676,,,RelaxSession
1629794817.36,fixation,3,87,,,NoMusic
1629794817.72,fixation,1,676,,,RelaxSession
1629794817.75,stimulus,2,182,,,NoMusic
1629794818.25,fixation,2,182,,,NoMusic
1629794818.86,stimulus,3,88,,,NoMusic
1629794819.22,stimulus,1,677,,,RelaxSession
1629794819.36,fixation,3,88,,,NoMusic
1629794819.72,fixation,1,677,,,RelaxSession
1629794819.75,stimulus,2,183,,,NoMusic
1629794820.25,fixation,2,183,,,NoMusic
1629794820.86,stimulus,3,89,,,NoMusic
1629794821.22,stimulus,1,678,,,RelaxSession
1629794821.36,fixation,3,89,,,NoMusic
1629794821.72,fixation,1,678,,,RelaxSession
1629794821.75,stimulus,2,184,,,NoMusic
1629794822.25,fixation,2,184,,,NoMusic
1629794822.86,stimulus,3,90,,,NoMusic
1629794823.22,stimulus,1,679,,,RelaxSession
1629794823.36,fixation,3,90,,,NoMusic
1629794823.72,fixation,1,679,,,RelaxSession
1629794823.75,stimulus,2,185,,,NoMusic
1629794824.25,fixation,2,185,,,NoMusic
1629794824.86,stimulus,3,91,,,NoMusic
1629794825.22,stimulus,1,680,,,RelaxSession
1629794825.36,fixation,3,91,,,NoMusic
1629794825.72,fixation,1,680,,,RelaxSession
1629794825.75,stimulus,2,186,,,NoMusic
1629794826.25,fixation,2,186,,,NoMusic
1629794826.86,stimulus,3,92,,,NoMusic
1629794827.22,stimulus,1,681,,,RelaxSession
1629794827.36,fixation,3,92,,,NoMusic
1629794827.72,fixation,1,681,,,RelaxSession
1629794827.75,stimulus,2,187,,,NoMusic
1629794828.25,fixation,2,187,,,NoMusic
1629794828.86,stimulus,3,93,,,NoMusic
1629794829.22,stimulus,1,682,,,RelaxSession
1629794829.36,fixation,3,93,,,NoMusic
1629794829.72,fixation,1,682,,,RelaxSession
1629794829.75,stimulus,2,188,,,NoMusic
1629794830.25,fixation,2,188,,,NoMusic
1629794830.86,stimulus,3,94,,,NoMusic
1629794831.22,stimulus,1,683,,,RelaxSession
1629794831.36,fixation,3,94,,,NoMusic
1629794831.72,fixation,1,683,,,RelaxSession
1629794831.75,stimulus,2,189,,,NoMusic
1629794832.25,fixation,2,189,,,NoMusic
1629794832.86,stimulus,3,95,,,NoMusic
1629794833.22,stimulus,1,684,,,RelaxSession
1629794833.36,fixation,3,95,,,NoMusic
1629794833.72,fixation,1,684,,,RelaxSession
1629794833.75,stimulus,2,190,,,NoMusic
1629794834.25,fixation,2,190,,,NoMusic
1629794834.86,stimulus,3,96,,,NoMusic
1629794835.22,stimulus,1,685,,,RelaxSession
1629794835.36,fixation,3,96,,,NoMusic
1629794835.72,fixation,1,685,,,RelaxSession
1629794835.75,stimulus,2,191,,,NoMusic
1629794836.25,fixation,2,191,,,NoMusic
1629794836.86,stimulus,3,97,,,NoMusic
1629794837.22,stimulus,1,686,,,RelaxSession
1629794837.36,fixation,3,97,,,NoMusic
1629794837.72,fixation,1,686,,,RelaxSession
1629794837.75,stimulus,2,192,,,NoMusic
1629794838.25,fixation,2,192,,,NoMusic
1629794838.86,stimulus,3,98,,,NoMusic
1629794839.22,stimulus,1,687,,,RelaxSession
1629794839.36,fixation,3,98,,,NoMusic
1629794839.72,fixation,1,687,,,RelaxSession
1629794839.75,stimulus,2,193,,,NoMusic
1629794840.25,fixation,2,193,,,NoMusic
1629794840.86,stimulus,3,99,,,NoMusic
1629794841.22,stimulus,1,688,,,RelaxSession
1629794841.36,fixation,3,99,,,NoMusic
1629794841.72,fixation,1,688,,,RelaxSession
1629794841.75,stimulus,2,194,,,NoMusic
1629794842.25,fixation,2,194,,,NoMusic
1629794842.86,stimulus,3,100,,,NoMusic
1629794843.22,stimulus,1,689,,,RelaxSession
1629794843.36,fixation,3,100,,,NoMusic
1629794843.72,fixation,1,689,,,RelaxSession
1629794843.75,stimulus,2,195,,,NoMusic
1629794844.25,fixation,2,195,,,NoMusic
1629794844.86,stimulus,3,101,,,NoMusic
1629794845.22,stimulus,1,690,,,RelaxSession
1629794845.36,fixation,3,101,,,NoMusic
1629794845.72,fixation,1,690,,,RelaxSession
1629794845.75,stimulus,2,196,,,NoMusic
1629794846.25,fixation,2,196,,,NoMusic
1629794846.86,stimulus,3,102,,,NoMusic
1629794847.22,stimulus,1,691,,,RelaxSession
1629794847.36,fixation,3,102,,,NoMusic
1629794847.72,fixation,1,691,,,RelaxSession
1629794847.75,stimulus,2,197,,,NoMusic
1629794848.25,fixation,2,197,,,NoMusic
1629794848.86,stimulus,3,103,,,NoMusic
1629794849.22,stimulus,1,692,,,RelaxSession
1629794849.36,fixation,3,103,,,NoMusic
1629794849.72,fixation,1,692,,,RelaxSession
1629794849.75,stimulus,2,198,,,NoMusic
1629794850.25,fixation,2,198,,,NoMusic
1629794850.86,stimulus,3,104,,,NoMusic
1629794851.22,stimulus,1,693,,,RelaxSession
1629794851.36,fixation,3,104,,,NoMusic
1629794851.72,fixation,1,693,,,RelaxSession
1629794851.75,stimulus,2,199,,,NoMusic
1629794852.25,fixation,2,199,,,NoMusic
1629794852.86,stimulus,3,105,,,NoMusic
1629794853.22,stimulus,1,694,,,RelaxSession
1629794853.36,fixation,3,105,,,NoMusic
1629794853.72,fixation,1,694,,,RelaxSession
1629794853.75,stimulus,2,200,,,NoMusic
1629794854.25,fixation,2,200,,,NoMusic
1629794854.86,stimulus,3,106,,,NoMusic
1629794855.22,stimulus,1,695,,,RelaxSession
1629794855.36,fixation,3,106,,,NoMusic
1629794855.72,fixation,1,695,,,RelaxSession
1629794855.75,stimulus,2,201,,,NoMusic
1629794856.25,fixation,2,201,,,NoMusic
1629794856.86,stimulus,3,107,,,NoMusic
1629794857.22,stimulus,1,696,,,RelaxSession
1629794857.36,fixation,3,107,,,NoMusic
1629794857.72,fixation,1,696,,,RelaxSession
1629794857.75,stimulus,2,202,,,NoMusic
1629794858.25,fixation,2,202,,,NoMusic
1629794858.86,stimulus,3,108,,,NoMusic
1629794859.22,stimulus,1,697,,,RelaxSession
1629794859.36,fixation,3,108,,,NoMusic
1629794859.72,fixation,1,697,,,RelaxSession
1629794859.75,stimulus,2,203,,,NoMusic
1629794860.25,fixation,2,203,,,NoMusic
1629794860.86,stimulus,3,109,,,NoMusic
1629794861.22,stimulus,1,698,,,RelaxSession
1629794861.36,fixation,3,109,,,NoMusic
1629794861.72,fixation,1,698,,,RelaxSession
1629794861.75,stimulus,2,204,,,NoMusic
1629794862.25,fixation,2,204,,,NoMusic
1629794862.86,stimulus,3,110,,,NoMusic
1629794863.22,stimulus,1,699,,,RelaxSession
1629794863.36,fixation,3,110,,,NoMusic
1629794863.72,fixation,1,699,,,RelaxSession
1629794863.75,stimulus,2,205,,,NoMusic
1629794864.25,fixation,2,205,,,NoMusic
1629794864.86,stimulus,3,111,,,NoMusic
1629794865.22,stimulus,1,700,,,RelaxSession
1629794865.36,fixation,3,111,,,NoMusic
1629794865.72,fixation,1,700,,,RelaxSession
1629794865.75,stimulus,2,206,,,NoMusic
1629794866.25,fixation,2,206,,,NoMusic
1629794866.86,stimulus,3,112,,,NoMusic
1629794867.22,stimulus,1,701,,,RelaxSession
1629794867.36,fixation,3,112,,,NoMusic
1629794867.72,fixation,1,701,,,RelaxSession
1629794867.75,stimulus,2,207,,,NoMusic
1629794868.25,fixation,2,207,,,NoMusic
1629794868.86,stimulus,3,113,,,NoMusic
1629794869.22,stimulus,1,702,,,RelaxSession
1629794869.36,fixation,3,113,,,NoMusic
1629794869.72,fixation,1,702,,,RelaxSession
1629794869.75,stimulus,2,208,,,NoMusic
1629794870.25,fixation,2,208,,,NoMusic
1629794870.86,stimulus,3,114,,,NoMusic
1629794871.22,stimulus,1,703,,,RelaxSession
1629794871.36,fixation,3,114,,,NoMusic
1629794871.72,fixation,1,703,,,RelaxSession
1629794871.75,stimulus,2,209,,,NoMusic
1629794872.25,fixation,2,209,,,NoMusic
1629794872.86,stimulus,3,115,,,NoMusic
1629794873.22,stimulus,1,704,,,RelaxSession
1629794873.36,fixation,3,115,,,NoMusic
1629794873.72,fixation,1,704,,,RelaxSession
1629794873.75,stimulus,2,210,,,NoMusic
1629794874.25,fixation,2,210,,,NoMusic
1629794874.86,stimulus,3,116,,,NoMusic
1629794875.22,stimulus,1,705,,,RelaxSession
1629794875.36,fixation,3,116,,,NoMusic
1629794875.72,fixation,1,705,,,RelaxSession
1629794875.75,stimulus,2,211,,,NoMusic
1629794876.25,fixation,2,211,,,NoMusic
1629794876.86,stimulus,3,117,,,NoMusic
1629794877.22,stimulus,1,706,,,RelaxSession
1629794877.36,fixation,3,117,,,NoMusic
1629794877.72,fixation,1,706,,,RelaxSession
1629794877.75,stimulus,2,212,,,NoMusic
1629794878.25,fixation,2,212,,,NoMusic
1629794878.86,stimulus,3,118,,,NoMusic
1629794879.22,stimulus,1,707,,,RelaxSession
1629794879.36,fixation,3,118,,,NoMusic
1629794879.72,fixation,1,707,,,RelaxSession
1629794879.75,stimulus,2,213,,,NoMusic
1629794880.25,fixation,2,213,,,NoMusic
1629794880.86,stimulus,3,119,,,NoMusic
1629794881.22,stimulus,1,708,,,RelaxSession
1629794881.36,fixation,3,119,,,NoMusic
1629794881.72,fixation,1,708,,,RelaxSession
1629794881.75,stimulus,2,214,,,NoMusic
1629794882.25,fixation,2,214,,,NoMusic
1629794882.86,stimulus,3,120,,,NoMusic
1629794883.22,stimulus,1,709,,,RelaxSession
1629794883.36,fixation,3,120,,,NoMusic
1629794883.72,fixation,1,709,,,RelaxSession
1629794883.75,stimulus,2,215,,,NoMusic
1629794884.25,fixation,2,215,,,NoMusic
1629794884.86,stimulus,3,121,,,NoMusic
1629794885.22,stimulus,1,710,,,RelaxSession
1629794885.36,fixation,3,121,,,NoMusic
1629794885.72,fixation,1,710,,,RelaxSession
1629794885.75,stimulus,2,216,,,NoMusic
1629794886.25,fixation,2,216,,,NoMusic
1629794886.86,stimulus,3,122,,,NoMusic
1629794887.22,stimulus,1,711,,,RelaxSession
1629794887.36,fixation,3,122,,,NoMusic
1629794887.72,fixation,1,711,,,RelaxSession
1629794887.75,stimulus,2,217,,,NoMusic
1629794888.25,fixation,2,217,,,NoMusic
1629794888.86,stimulus,3,123,,,NoMusic
1629794889.22,stimulus,1,712,,,RelaxSession
1629794889.36,fixation,3,123,,,NoMusic
1629794889.72,fixation,1,712,,,RelaxSession
1629794889.75,stimulus,2,218,,,NoMusic
1629794890.25,fixation,2,218,,,NoMusic
1629794890.86,stimulus,3,124,,,NoMusic
1629794891.22,stimulus,1,713,,,RelaxSession
1629794891.36,fixation,3,124,,,NoMusic
1629794891.72,fixation,1,713,,,RelaxSession
1629794891.75,stimulus,2,219,,,NoMusic
1629794892.25,fixation,2,219,,,NoMusic
1629794892.86,stimulus,3,125,,,NoMusic
1629794893.22,stimulus,1,714,,,RelaxSession
1629794893.36,fixation,3,125,,,NoMusic
1629794893.72,fixation,1,714,,,RelaxSession
1629794893.75,stimulus,2,220,,,NoMusic
1629794894.25,fixation,2,220,,,NoMusic
1629794894.86,stimulus,3,126,,,NoMusic
1629794895.22,stimulus,1,715,,,RelaxSession
1629794895.36,fixation,3,126,,,NoMusic
1629794895.72,fixation,1,715,,,RelaxSession
1629794895.75,stimulus,2,221,,,NoMusic
1629794896.25,fixation,2,221,,,NoMusic
1629794896.86,stimulus,3,127,,,NoMusic
1629794897.22,stimulus,1,716,,,RelaxSession
1629794897.36,fixation,3,127,,,NoMusic
1629794897.72,fixation,1,716,,,RelaxSession
1629794897.75,stimulus,2,222,,,NoMusic
1629794898.25,fixation,2,222,,,NoMusic
1629794898.86,stimulus,3,128,,,NoMusic
1629794899.22,stimulus,1,717,,,RelaxSession
1629794899.36,fixation,3,128,,,NoMusic
1629794899.72,fixation,1,717,,,RelaxSession
1629794899.75,stimulus,2,223,,,NoMusic
1629794900.25,fixation,2,223,,,NoMusic
1629794900.86,stimulus,3,129,,,NoMusic
1629794901.22,stimulus,1,718,,,RelaxSession
1629794901.36,fixation,3,129,,,NoMusic
1629794901.72,fixation,1,718,,,RelaxSession
1629794901.75,stimulus,2,224,,,NoMusic
1629794902.25,fixation,2,224,,,NoMusic
1629794902.86,stimulus,3,130,,,NoMusic
1629794903.22,stimulus,1,719,,,RelaxSession
1629794903.36,fixation,3,130,,,NoMusic
1629794903.72,fixation,1,719,,,RelaxSession
1629794903.75,stimulus,2,225,,,NoMusic
1629794904.25,fixation,2,225,,,NoMusic
1629794904.86,stimulus,3,131,,,NoMusic
1629794905.22,stimulus,1,720,,,RelaxSession
1629794905.36,fixation,3,131,,,NoMusic
1629794905.72,fixation,1,720,,,RelaxSession
1629794905.75,stimulus,2,226,,,NoMusic
1629794906.25,fixation,2,226,,,NoMusic
1629794906.86,stimulus,3,132,,,NoMusic
1629794907.22,stimulus,1,721,,,RelaxSession
1629794907.36,fixation,3,132,,,NoMusic
1629794907.72,fixation,1,721,,,RelaxSession
1629794907.75,stimulus,2,227,,,NoMusic
1629794908.25,fixation,2,227,,,NoMusic
1629794908.86,stimulus,3,133,,,NoMusic
1629794909.22,stimulus,1,722,,,RelaxSession
1629794909.36,fixation,3,133,,,NoMusic
1629794909.72,fixation,1,722,,,RelaxSession
1629794909.75,stimulus,2,228,,,NoMusic
1629794910.25,fixation,2,228,,,NoMusic
1629794910.86,stimulus,3,134,,,NoMusic
1629794911.22,stimulus,1,723,,,RelaxSession
1629794911.36,fixation,3,134,,,NoMusic
1629794911.72,fixation,1,723,,,RelaxSession
1629794911.75,stimulus,2,229,,,NoMusic
1629794912.25,fixation,2,229,,,NoMusic
1629794912.86,stimulus,3,135,,,NoMusic
1629794913.22,stimulus,1,724,,,RelaxSession
1629794913.36,fixation,3,135,,,NoMusic
1629794913.72,fixation,1,724,,,RelaxSession
1629794913.75,stimulus,2,230,,,NoMusic
1629794914.25,fixation,2,230,,,NoMusic
1629794914.86,stimulus,3,136,,,NoMusic
1629794915.22,stimulus,1,725,,,RelaxSession
1629794915.36,fixation,3,136,,,NoMusic
1629794915.72,fixation,1,725,,,RelaxSession
1629794915.75,stimulus,2,231,,,NoMusic
1629794916.25,fixation,2,231,,,NoMusic
1629794916.86,stimulus,3,137,,,NoMusic
1629794917.22,stimulus,1,726,,,RelaxSession
1629794917.36,fixation,3,137,,,NoMusic
1629794917.72,fixation,1,726,,,RelaxSession
1629794917.75,stimulus,2,232,,,NoMusic
1629794918.25,fixation,2,232,,,NoMusic
1629794918.86,stimulus,3,138,,,NoMusic
1629794919.22,stimulus,1,727,,,RelaxSession
1629794919.36,fixation,3,138,,,NoMusic
1629794919.72,fixation,1,727,,,RelaxSession
1629794919.75,stimulus,2,233,,,NoMusic
1629794920.25,fixation,2,233,,,NoMusic
1629794920.86,stimulus,3,139,,,NoMusic
1629794921.22,stimulus,1,728,,,RelaxSession
1629794921.36,fixation,3,139,,,NoMusic
1629794921.72,fixation,1,728,,,RelaxSession
1629794921.75,stimulus,2,234,,,NoMusic
1629794922.25,fixation,2,234,,,NoMusic
1629794922.86,stimulus,3,140,,,NoMusic
1629794923.22,stimulus,1,729,,,RelaxSession
1629794923.36,fixation,3,140,,,NoMusic
1629794923.72,fixation,1,729,,,RelaxSession
1629794923.75,stimulus,2,235,,,NoMusic
1629794924.25,fixation,2,235,,,NoMusic
1629794924.86,stimulus,3,141,,,NoMusic
1629794925.22,stimulus,1,730,,,RelaxSession
1629794925.36,fixation,3,141,,,NoMusic
1629794925.72,fixation,1,730,,,RelaxSession
1629794925.75,stimulus,2,236,,,NoMusic
1629794926.25,fixation,2,236,,,NoMusic
1629794926.86,stimulus,3,142,,,NoMusic
1629794927.22,stimulus,1,731,,,RelaxSession
1629794927.36,fixation,3,142,,,NoMusic
1629794927.72,fixation,1,731,,,RelaxSession
1629794927.75,stimulus,2,237,,,NoMusic
1629794928.25,fixation,2,237,,,NoMusic
1629794928.86,stimulus,3,143,,,NoMusic
1629794929.22,stimulus,1,732,,,RelaxSession
1629794929.36,fixation,3,143,,,NoMusic
1629794929.72,fixation,1,732,,,RelaxSession
1629794929.75,stimulus,2,238,,,NoMusic
1629794930.25,fixation,2,238,,,NoMusic
1629794930.86,stimulus,3,144,,,NoMusic
1629794931.22,stimulus,1,733,,,RelaxSession
1629794931.36,fixation,3,144,,,NoMusic
1629794931.72,fixation,1,733,,,RelaxSession
1629794931.75,stimulus,2,239,,,NoMusic
1629794932.25,fixation,2,239,,,NoMusic
1629794932.86,stimulus,3,145,,,NoMusic
1629794933.22,stimulus,1,734,,,RelaxSession
1629794933.36,fixation,3,145,,,NoMusic
1629794933.72,fixation,1,734,,,RelaxSession
1629794933.75,stimulus,2,240,,,NoMusic
1629794934.25,fixation,2,240,,,NoMusic
1629794934.86,stimulus,3,146,,,NoMusic
1629794935.22,stimulus,1,735,,,RelaxSession
1629794935.36,fixation,3,146,,,NoMusic
1629794935.72,fixation,1,735,,,RelaxSession
1629794935.75,stimulus,2,241,,,NoMusic
1629794936.25,fixation,2,241,,,NoMusic
1629794936.86,stimulus,3,147,,,NoMusic
1629794937.22,stimulus,1,736,,,RelaxSession
1629794937.36,fixation,3,147,,,NoMusic
1629794937.72,fixation,1,736,,,RelaxSession
1629794937.75,stimulus,2,242,,,NoMusic
1629794938.25,fixation,2,242,,,NoMusic
1629794938.86,stimulus,3,148,,,NoMusic
1629794939.22,stimulus,1,737,,,RelaxSession
1629794939.36,fixation,3,148,,,NoMusic
1629794939.72,fixation,1,737,,,RelaxSession
1629794939.75,stimulus,2,243,,,NoMusic
1629794940.25,fixation,2,243,,,NoMusic
1629794940.86,stimulus,3,149,,,NoMusic
1629794941.22,stimulus,1,738,,,RelaxSession
1629794941.36,fixation,3,149,,,NoMusic
1629794941.72,fixation,1,738,,,RelaxSession
1629794941.75,stimulus,2,244,,,NoMusic
1629794942.25,fixation,2,244,,,NoMusic
1629794942.86,stimulus,3,150,,,NoMusic
1629794943.22,stimulus,1,739,,,RelaxSession
1629794943.36,fixation,3,150,,,NoMusic
1629794943.72,fixation,1,739,,,RelaxSession
1629794943.75,stimulus,2,245,,,NoMusic
1629794944.25,fixation,2,245,,,NoMusic
1629794944.86,stimulus,3,151,,,NoMusic
1629794945.22,stimulus,1,740,,,RelaxSession
1629794945.36,fixation,3,151,,,NoMusic
1629794945.72,fixation,1,740,,,RelaxSession
1629794945.75,stimulus,2,246,,,NoMusic
1629794946.25,fixation,2,246,,,NoMusic
1629794946.86,stimulus,3,152,,,NoMusic
1629794947.22,stimulus,1,741,,,RelaxSession
1629794947.36,fixation,3,152,,,NoMusic
1629794947.72,fixation,1,741,,,RelaxSession
1629794947.75,stimulus,2,247,,,NoMusic
1629794948.25,fixation,2,247,,,NoMusic
1629794948.86,stimulus,3,153,,,NoMusic
1629794949.22,stimulus,1,742,,,RelaxSession
1629794949.36,fixation,3,153,,,NoMusic
1629794949.72,fixation,1,742,,,RelaxSession
1629794949.75,stimulus,2,248,,,NoMusic
1629794950.25,fixation,2,248,,,NoMusic
1629794950.86,stimulus,3,154,,,NoMusic
1629794951.22,stimulus,1,743,,,RelaxSession
1629794951.36,fixation,3,154,,,NoMusic
1629794951.72,fixation,1,743,,,RelaxSession
1629794951.75,stimulus,2,249,,,NoMusic
1629794952.25,fixation,2,249,,,NoMusic
1629794952.86,stimulus,3,155,,,NoMusic
1629794953.22,stimulus,1,744,,,RelaxSession
1629794953.36,fixation,3,155,,,NoMusic
1629794953.72,fixation,1,744,,,RelaxSession
1629794953.75,stimulus,2,250,,,NoMusic
1629794954.25,fixation,2,250,,,NoMusic
1629794954.86,stimulus,3,156,,,NoMusic
1629794955.22,stimulus,1,745,,,RelaxSession
1629794955.36,fixation,3,156,,,NoMusic
1629794955.72,fixation,1,745,,,RelaxSession
1629794955.75,stimulus,2,251,,,NoMusic
1629794956.25,fixation,2,251,,,NoMusic
1629794956.86,stimulus,3,157,,,NoMusic
1629794957.22,stimulus,1,746,,,RelaxSession
1629794957.36,fixation,3,157,,,NoMusic
1629794957.72,fixation,1,746,,,RelaxSession
1629794957.75,stimulus,2,252,,,NoMusic
1629794958.25,fixation,2,252,,,NoMusic
1629794958.86,stimulus,3,158,,,NoMusic
1629794959.22,stimulus,1,747,,,RelaxSession
1629794959.36,fixation,3,158,,,NoMusic
1629794959.72,fixation,1,747,,,RelaxSession
1629794959.75,stimulus,2,253,,,NoMusic
1629794960.25,fixation,2,253,,,NoMusic
1629794960.86,stimulus,3,159,,,NoMusic
1629794961.22,stimulus,1,748,,,RelaxSession
1629794961.36,fixation,3,159,,,NoMusic
1629794961.72,fixation,1,748,,,RelaxSession
1629794961.75,stimulus,2,254,,,NoMusic
1629794962.25,fixation,2,254,,,NoMusic
1629794962.86,stimulus,3,160,,,NoMusic
1629794963.22,stimulus,1,749,,,RelaxSession
