event_time_s,trial_type,session_idx,trial_idx,RT_s,ACC,session_type
1634891932.41,stimulus,1,1,,,PracticeSession
1634891932.91,fixation,1,1,,,PracticeSession
1634891934.41,stimulus,1,2,,,PracticeSession
1634891934.91,fixation,1,2,,,PracticeSession
1634891936.41,stimulus,1,3,,,PracticeSession
1634891936.91,fixation,1,3,,,PracticeSession
1634891938.41,stimulus,1,4,,,PracticeSession
1634891938.91,fixation,1,4,,,PracticeSession
1634891940.41,stimulus,1,5,,,PracticeSession
1634891940.91,fixation,1,5,,,PracticeSession
1634891942.41,stimulus,1,6,,,PracticeSession
1634891942.91,fixation,1,6,,,PracticeSession
1634891944.41,stimulus,1,7,,,PracticeSession
1634891944.91,fixation,1,7,,,PracticeSession
1634891946.41,stimulus,1,8,,,PracticeSession
1634891946.91,fixation,1,8,,,PracticeSession
1634891948.41,stimulus,1,9,,,PracticeSession
1634891948.91,fixation,1,9,,,PracticeSession
1634891950.41,stimulus,1,10,,,PracticeSession
1634891950.91,fixation,1,10,,,PracticeSession
1634891952.41,stimulus,1,11,,,PracticeSession
1634891952.91,fixation,1,11,,,PracticeSession
1634891954.41,stimulus,1,12,,,PracticeSession
1634891954.91,fixation,1,12,,,PracticeSession
1634891956.41,stimulus,1,13,,,PracticeSession
1634891956.91,fixation,1,13,,,PracticeSession
1634891958.41,stimulus,1,14,,,PracticeSession
1634891958.91,fixation,1,14,,,PracticeSession
1634891960.41,stimulus,1,15,,,PracticeSession
1634891960.91,fixation,1,15,,,PracticeSession
1634891962.41,stimulus,1,16,,,PracticeSession
1634891962.91,fixation,1,16,,,PracticeSession
1634891964.41,stimulus,1,17,,,PracticeSession
1634891964.91,fixation,1,17,,,PracticeSession
1634891966.41,stimulus,1,18,,,PracticeSession
1634891966.91,fixation,1,18,,,PracticeSession
1634891968.41,stimulus,1,19,,,PracticeSession
1634891968.91,fixation,1,19,,,PracticeSession
1634891970.41,stimulus,1,20,,,PracticeSession
1634891970.91,fixation,1,20,,,PracticeSession
1634891972.41,stimulus,1,21,,,PracticeSession
1634891972.91,fixation,1,21,,,PracticeSession
1634891974.41,stimulus,1,22,,,PracticeSession
1634891974.91,fixation,1,22,,,PracticeSession
1634891976.41,stimulus,1,23,,,PracticeSession
1634891976.91,fixation,1,23,,,PracticeSession
1634891978.41,stimulus,1,24,,,PracticeSession
1634891978.91,fixation,1,24,,,PracticeSession
1634891980.41,stimulus,1,25,,,PracticeSession
1634891980.91,fixation,1,25,,,PracticeSession
1634891982.41,stimulus,1,26,,,PracticeSession
1634891982.91,fixation,1,26,,,PracticeSession
1634891984.41,stimulus,1,27,,,PracticeSession
1634891984.91,fixation,1,27,,,PracticeSession
1634891986.41,stimulus,1,28,,,PracticeSession
1634891986.91,fixation,1,28,,,PracticeSession
1634891988.41,stimulus,1,29,,,PracticeSession
1634891988.91,fixation,1,29,,,PracticeSession
1634891990.41,stimulus,1,30,,,PracticeSession
1634891990.91,fixation,1,30,,,PracticeSession
1634891992.41,stimulus,1,31,,,PracticeSession
1634891992.91,fixation,1,31,,,PracticeSession
1634891994.41,stimulus,1,32,,,PracticeSession
1634891994.91,fixation,1,32,,,PracticeSession
1634891996.41,stimulus,1,33,,,PracticeSession
1634891996.91,fixation,1,33,,,PracticeSession
1634891998.41,stimulus,1,34,,,PracticeSession
1634891998.91,fixation,1,34,,,PracticeSession
1634892000.41,stimulus,1,35,,,PracticeSession
1634892000.91,fixation,1,35,,,PracticeSession
1634892002.41,stimulus,1,36,,,PracticeSession
1634892002.91,fixation,1,36,,,PracticeSession
1634892004.41,stimulus,1,37,,,PracticeSession
1634892004.91,fixation,1,37,,,PracticeSession
1634892006.41,stimulus,1,38,,,PracticeSession
1634892006.91,fixation,1,38,,,PracticeSession
1634892008.41,stimulus,1,39,,,PracticeSession
1634892008.91,fixation,1,39,,,PracticeSession
1634892010.41,stimulus,1,40,,,PracticeSession
1634892010.91,fixation,1,40,,,PracticeSession
1634892012.41,stimulus,1,41,,,PracticeSession
1634892012.91,fixation,1,41,,,PracticeSession
1634892014.41,stimulus,1,42,,,PracticeSession
1634892014.91,fixation,1,42,,,PracticeSession
1634892016.41,stimulus,1,43,,,PracticeSession
1634892016.91,fixation,1,43,,,PracticeSession
1634892018.41,stimulus,1,44,,,PracticeSession
1634892018.91,fixation,1,44,,,PracticeSession
1634892020.41,stimulus,1,45,,0.0,NoMusic
1634892022.18,fixation,1,45,1.27,1.0,NoMusic
1634892022.41,stimulus,1,46,,0.0,NoMusic
1634892023.1000001,fixation,1,46,0.19,1.0,NoMusic
1634892024.41,stimulus,1,47,,0.0,NoMusic
1634892025.25,fixation,1,47,0.34,1.0,NoMusic
1634892026.41,stimulus,1,48,,0.0,NoMusic
1634892027.378,fixation,1,48,0.468,1.0,NoMusic
1634892028.41,stimulus,1,49,,0.0,NoMusic
1634892029.158,fixation,1,49,0.248,1.0,NoMusic
1634892030.41,stimulus,1,50,,0.0,NoMusic
1634892031.155,fixation,1,50,0.245,1.0,NoMusic
1634892032.41,stimulus,1,51,,0.0,NoMusic
1634892033.548,fixation,1,51,0.638,0.0,NoMusic
1634892034.41,stimulus,1,52,,0.0,NoMusic
1634892035.1720002,fixation,1,52,0.262,1.0,NoMusic
1634892036.41,stimulus,1,53,,0.0,NoMusic
1634892037.094,fixation,1,53,0.184,1.0,NoMusic
1634892038.41,stimulus,1,54,,0.0,NoMusic
1634892039.15,fixation,1,54,0.24,1.0,NoMusic
1634892040.41,stimulus,1,55,,0.0,NoMusic
1634892041.068,fixation,1,55,0.158,1.0,NoMusic
1634892042.41,stimulus,1,56,,0.0,NoMusic
1634892043.081,fixation,1,56,0.171,1.0,NoMusic
1634892044.41,stimulus,1,57,,0.0,NoMusic
1634892044.982,fixation,1,57,0.072,1.0,NoMusic
1634892046.41,stimulus,1,58,,0.0,NoMusic
1634892046.943,fixation,1,58,0.033,1.0,NoMusic
1634892048.41,stimulus,1,59,,0.0,NoMusic
1634892049.061,fixation,1,59,0.151,1.0,NoMusic
1634892050.41,stimulus,1,60,,0.0,NoMusic
1634892051.0180001,fixation,1,60,0.108,1.0,NoMusic
1634892052.41,stimulus,1,61,,0.0,NoMusic
1634892053.13,fixation,1,61,0.22,1.0,NoMusic
1634892054.41,stimulus,1,62,,0.0,NoMusic
1634892055.026,fixation,1,62,0.116,1.0,NoMusic
1634892056.41,stimulus,1,63,,0.0,NoMusic
1634892056.999,fixation,1,63,0.089,1.0,NoMusic
1634892058.41,stimulus,1,64,,0.0,NoMusic
1634892058.986,fixation,1,64,0.076,1.0,NoMusic
1634892060.41,stimulus,1,65,,0.0,NoMusic
1634892060.9450002,fixation,1,65,0.035,1.0,NoMusic
1634892062.41,stimulus,1,66,,0.0,NoMusic
1634892062.918,fixation,1,66,0.008,1.0,NoMusic
1634892064.41,stimulus,1,67,,0.0,NoMusic
1634892066.105,fixation,1,67,1.195,1.0,NoMusic
1634892066.41,stimulus,1,68,,0.0,NoMusic
1634892067.368,fixation,1,68,0.458,1.0,NoMusic
1634892068.41,stimulus,1,69,,0.0,NoMusic
1634892069.252,fixation,1,69,0.342,1.0,NoMusic
1634892070.41,stimulus,1,70,,0.0,NoMusic
1634892071.203,fixation,1,70,0.293,1.0,NoMusic
1634892072.41,stimulus,1,71,,0.0,NoMusic
1634892073.385,fixation,1,71,0.475,1.0,NoMusic
1634892074.41,stimulus,1,72,,0.0,NoMusic
1634892076.3500001,fixation,1,72,1.44,1.0,NoMusic
1634892076.41,stimulus,1,73,,0.0,NoMusic
1634892078.121,fixation,1,73,1.211,0.0,NoMusic
1634892078.41,stimulus,1,74,,0.0,NoMusic
1634892078.91,fixation,1,74,,0.0,NoMusic
1634892080.4520001,stimulus,1,75,0.042,0.0,NoMusic
1634892080.91,fixation,1,75,,0.0,NoMusic
1634892082.41,stimulus,1,76,,0.0,NoMusic
1634892083.263,fixation,1,76,0.353,1.0,NoMusic
1634892084.41,stimulus,1,77,,0.0,NoMusic
1634892085.213,fixation,1,77,0.303,0.0,NoMusic
1634892086.41,stimulus,1,78,,0.0,NoMusic
1634892087.4490001,fixation,1,78,0.539,1.0,NoMusic
1634892088.41,stimulus,1,79,,0.0,NoMusic
1634892089.183,fixation,1,79,0.273,1.0,NoMusic
1634892090.41,stimulus,1,80,,0.0,NoMusic
1634892091.943,fixation,1,80,1.033,1.0,NoMusic
1634892092.41,stimulus,1,81,,0.0,NoMusic
1634892093.4780002,fixation,1,81,0.568,1.0,NoMusic
1634892094.41,stimulus,1,82,,0.0,NoMusic
1634892095.519,fixation,1,82,0.609,1.0,NoMusic
1634892096.41,stimulus,1,83,,0.0,NoMusic
1634892097.466,fixation,1,83,0.556,1.0,NoMusic
1634892098.41,stimulus,1,84,,0.0,NoMusic
1634892099.4060001,fixation,1,84,0.496,0.0,NoMusic
1634892100.41,stimulus,1,85,,0.0,NoMusic
1634892101.467,fixation,1,85,0.557,1.0,NoMusic
1634892102.41,stimulus,1,86,,0.0,NoMusic
1634892103.766,fixation,1,86,0.856,1.0,NoMusic
1634892104.41,stimulus,1,87,,0.0,NoMusic
1634892105.918,fixation,1,87,1.008,0.0,NoMusic
1634892106.41,stimulus,1,88,,0.0,NoMusic
1634892108.016,fixation,1,88,1.106,0.0,NoMusic
1634892108.41,stimulus,1,89,,0.0,NoMusic
1634892109.729,fixation,1,89,0.819,1.0,NoMusic
1634892110.41,stimulus,1,90,,0.0,NoMusic
1634892111.013,fixation,1,90,0.103,1.0,NoMusic
1634892112.41,stimulus,1,91,,0.0,NoMusic
1634892113.127,fixation,1,91,0.217,1.0,NoMusic
1634892114.41,stimulus,1,92,,0.0,NoMusic
1634892115.443,fixation,1,92,0.533,1.0,NoMusic
1634892116.41,stimulus,1,93,,0.0,NoMusic
1634892117.403,fixation,1,93,0.493,0.0,NoMusic
1634892118.41,stimulus,1,94,,0.0,NoMusic
1634892119.497,fixation,1,94,0.587,1.0,NoMusic
1634892120.41,stimulus,1,95,,0.0,NoMusic
1634892121.5210001,fixation,1,95,0.611,1.0,NoMusic
1634892122.41,stimulus,1,96,,0.0,NoMusic
1634892123.562,fixation,1,96,0.652,1.0,NoMusic
1634892124.41,stimulus,1,97,,0.0,NoMusic
1634892125.562,fixation,1,97,0.652,1.0,NoMusic
1634892126.41,stimulus,1,98,,0.0,NoMusic
1634892127.674,fixation,1,98,0.764,1.0,NoMusic
1634892128.41,stimulus,1,99,,0.0,NoMusic
1634892129.255,fixation,1,99,0.345,1.0,NoMusic
1634892130.41,stimulus,1,100,,0.0,NoMusic
1634892131.7970002,fixation,1,100,0.887,1.0,NoMusic
1634892132.41,stimulus,1,101,,0.0,NoMusic
1634892133.5730002,fixation,1,101,0.663,1.0,NoMusic
1634892134.41,stimulus,1,102,,0.0,NoMusic
1634892135.6330001,fixation,1,102,0.723,1.0,NoMusic
1634892136.41,stimulus,1,103,,0.0,NoMusic
1634892137.839,fixation,1,103,0.929,1.0,NoMusic
1634892138.41,stimulus,1,104,,0.0,NoMusic
1634892139.538,fixation,1,104,0.628,1.0,NoMusic
1634892140.41,stimulus,1,105,,0.0,NoMusic
1634892141.7510002,fixation,1,105,0.841,1.0,NoMusic
1634892142.41,stimulus,1,106,,0.0,NoMusic
1634892143.7610002,fixation,1,106,0.851,0.0,NoMusic
1634892144.41,stimulus,1,107,,0.0,NoMusic
1634892145.75,fixation,1,107,0.84,1.0,NoMusic
1634892146.41,stimulus,1,108,,0.0,NoMusic
1634892147.007,fixation,1,108,0.097,1.0,NoMusic
1634892148.41,stimulus,1,109,,0.0,NoMusic
1634892149.17,fixation,1,109,0.26,1.0,NoMusic
1634892150.41,stimulus,1,110,,0.0,NoMusic
1634892151.398,fixation,1,110,0.488,0.0,NoMusic
1634892152.41,stimulus,1,111,,0.0,NoMusic
1634892153.6850002,fixation,1,111,0.775,1.0,NoMusic
1634892154.41,stimulus,1,112,,0.0,NoMusic
1634892154.9780002,fixation,1,112,0.068,1.0,NoMusic
1634892156.9060001,stimulus,1,113,0.496,1.0,NoMusic
1634892156.91,fixation,1,113,,0.0,NoMusic
1634892158.41,stimulus,1,114,,0.0,NoMusic
1634892159.092,fixation,1,114,0.182,1.0,NoMusic
1634892160.41,stimulus,1,115,,0.0,NoMusic
1634892161.153,fixation,1,115,0.243,1.0,NoMusic
1634892162.41,stimulus,1,116,,0.0,NoMusic
1634892163.0040002,fixation,1,116,0.094,1.0,NoMusic
1634892164.41,stimulus,1,117,,0.0,NoMusic
1634892165.2440002,fixation,1,117,0.334,1.0,NoMusic
1634892166.41,stimulus,1,118,,0.0,NoMusic
1634892167.0860002,fixation,1,118,0.176,1.0,NoMusic
1634892168.41,stimulus,1,119,,0.0,NoMusic
1634892169.0730002,fixation,1,119,0.163,1.0,NoMusic
1634892170.41,stimulus,1,120,,0.0,NoMusic
1634892171.1290002,fixation,1,120,0.219,1.0,NoMusic
1634892172.8930001,stimulus,1,121,0.483,1.0,NoMusic
1634892172.91,fixation,1,121,,0.0,NoMusic
1634892174.41,stimulus,1,122,,0.0,NoMusic
1634892175.1990001,fixation,1,122,0.289,1.0,NoMusic
1634892176.41,stimulus,1,123,,0.0,NoMusic
1634892176.944,fixation,1,123,0.034,1.0,NoMusic
1634892178.41,stimulus,1,124,,0.0,NoMusic
1634892178.911,fixation,1,124,0.001,1.0,NoMusic
1634892180.41,stimulus,1,125,,0.0,NoMusic
1634892181.058,fixation,1,125,0.148,1.0,NoMusic
1634892182.41,stimulus,1,126,,0.0,NoMusic
1634892183.036,fixation,1,126,0.126,1.0,NoMusic
1634892184.41,stimulus,1,127,,0.0,NoMusic
1634892185.0730002,fixation,1,127,0.163,1.0,NoMusic
1634892186.41,stimulus,1,128,,0.0,NoMusic
1634892187.066,fixation,1,128,0.156,1.0,NoMusic
1634892188.41,stimulus,1,129,,0.0,NoMusic
1634892189.035,fixation,1,129,0.125,1.0,NoMusic
1634892190.41,stimulus,1,130,,0.0,NoMusic
1634892191.131,fixation,1,130,0.221,0.0,NoMusic
1634892192.41,stimulus,1,131,,0.0,NoMusic
1634892193.1430001,fixation,1,131,0.233,1.0,NoMusic
1634892194.857,stimulus,1,132,0.447,1.0,NoMusic
1634892194.91,fixation,1,132,,0.0,NoMusic
1634892196.41,stimulus,1,133,,0.0,NoMusic
1634892196.91,fixation,1,133,,0.0,NoMusic
1634892198.41,stimulus,1,134,,0.0,NoMusic
1634892199.6690001,fixation,1,134,0.759,1.0,NoMusic
1634892200.799,stimulus,1,135,0.389,1.0,NoMusic
1634892200.91,fixation,1,135,,0.0,NoMusic
1634892202.782,stimulus,1,136,0.372,1.0,NoMusic
1634892202.91,fixation,1,136,,0.0,NoMusic
1634892204.41,stimulus,1,137,,0.0,NoMusic
1634892205.536,fixation,1,137,0.626,1.0,NoMusic
1634892206.41,stimulus,1,138,,0.0,NoMusic
1634892207.457,fixation,1,138,0.547,1.0,NoMusic
1634892208.41,stimulus,1,139,,0.0,NoMusic
1634892209.1460001,fixation,1,139,0.236,1.0,NoMusic
1634892210.41,stimulus,1,140,,0.0,NoMusic
1634892211.209,fixation,1,140,0.299,1.0,NoMusic
1634892212.41,stimulus,1,141,,0.0,NoMusic
1634892213.322,fixation,1,141,0.412,1.0,NoMusic
1634892214.41,stimulus,1,142,,0.0,NoMusic
1634892215.382,fixation,1,142,0.472,1.0,NoMusic
1634892216.41,stimulus,1,143,,0.0,NoMusic
1634892217.2710001,fixation,1,143,0.361,1.0,NoMusic
1634892218.41,stimulus,1,144,,0.0,NoMusic
1634892219.5900002,fixation,1,144,0.68,1.0,NoMusic
1634892220.41,stimulus,1,145,,0.0,NoMusic
1634892221.1650002,fixation,1,145,0.255,0.0,NoMusic
1634892222.41,stimulus,1,146,,0.0,NoMusic
1634892223.403,fixation,1,146,0.493,1.0,NoMusic
1634892224.41,stimulus,1,147,,0.0,NoMusic
1634892226.108,fixation,1,147,1.198,1.0,NoMusic
1634892226.41,stimulus,1,148,,0.0,NoMusic
1634892227.51,fixation,1,148,0.6,1.0,NoMusic
1634892228.41,stimulus,1,149,,0.0,NoMusic
1634892229.048,fixation,1,149,0.138,1.0,NoMusic
1634892230.41,stimulus,1,150,,0.0,NoMusic
1634892231.4350002,fixation,1,150,0.525,1.0,NoMusic
1634892232.41,stimulus,1,151,,0.0,NoMusic
1634892233.6460001,fixation,1,151,0.736,0.0,NoMusic
1634892234.41,stimulus,1,152,,0.0,NoMusic
1634892235.2710001,fixation,1,152,0.361,1.0,NoMusic
1634892236.41,stimulus,1,153,,0.0,NoMusic
1634892237.2900002,fixation,1,153,0.38,1.0,NoMusic
1634892238.41,stimulus,1,154,,0.0,NoMusic
1634892239.236,fixation,1,154,0.326,1.0,NoMusic
1634892240.41,stimulus,1,155,,0.0,NoMusic
1634892240.91,fixation,1,155,,0.0,NoMusic
1634892242.41,stimulus,1,156,,0.0,NoMusic
1634892243.1950002,fixation,1,156,0.285,1.0,NoMusic
1634892244.41,stimulus,1,157,,0.0,NoMusic
1634892244.926,fixation,1,157,0.016,1.0,NoMusic
1634892246.41,stimulus,1,158,,0.0,NoMusic
1634892247.0410001,fixation,1,158,0.131,1.0,NoMusic
1634892248.41,stimulus,1,159,,0.0,NoMusic
1634892249.055,fixation,1,159,0.145,1.0,NoMusic
1634892250.7900002,stimulus,1,160,0.38,1.0,NoMusic
1634892250.91,fixation,1,160,,0.0,NoMusic
1634892252.41,stimulus,1,161,,0.0,NoMusic
1634892253.0110002,fixation,1,161,0.101,1.0,NoMusic
1634892254.41,stimulus,1,162,,0.0,NoMusic
1634892255.003,fixation,1,162,0.093,1.0,NoMusic
1634892256.41,stimulus,1,163,,0.0,NoMusic
1634892257.21,fixation,1,163,0.3,1.0,NoMusic
1634892258.41,stimulus,1,164,,0.0,NoMusic
1634892258.91,fixation,1,164,,0.0,NoMusic
1634892260.41,stimulus,1,165,,0.0,NoMusic
1634892260.963,fixation,1,165,0.053,1.0,NoMusic
1634892262.41,stimulus,1,166,,0.0,NoMusic
1634892263.138,fixation,1,166,0.228,1.0,NoMusic
1634892264.41,stimulus,1,167,,0.0,NoMusic
1634892265.138,fixation,1,167,0.228,1.0,NoMusic
1634892266.41,stimulus,1,168,,0.0,NoMusic
1634892267.0210001,fixation,1,168,0.111,1.0,NoMusic
1634892268.41,stimulus,1,169,,0.0,NoMusic
1634892269.289,fixation,1,169,0.379,1.0,NoMusic
1634892270.41,stimulus,1,170,,0.0,NoMusic
1634892270.973,fixation,1,170,0.063,1.0,NoMusic
1634892272.8530002,stimulus,1,171,0.443,1.0,NoMusic
1634892272.91,fixation,1,171,,0.0,NoMusic
1634892274.41,stimulus,1,172,,0.0,NoMusic
1634892274.9290001,fixation,1,172,0.019,1.0,NoMusic
1634892276.41,stimulus,1,173,,0.0,NoMusic
1634892276.984,fixation,1,173,0.074,1.0,NoMusic
1634892278.41,stimulus,1,174,,0.0,NoMusic
1634892279.3140001,fixation,1,174,0.404,1.0,NoMusic
1634892280.41,stimulus,1,175,,0.0,NoMusic
1634892281.253,fixation,1,175,0.343,0.0,NoMusic
1634892282.41,stimulus,1,176,,0.0,NoMusic
1634892283.118,fixation,1,176,0.208,1.0,NoMusic
1634892284.41,stimulus,1,177,,0.0,NoMusic
1634892284.91,fixation,1,177,,0.0,NoMusic
1634892286.41,stimulus,1,178,,0.0,NoMusic
1634892287.0770001,fixation,1,178,0.167,1.0,NoMusic
1634892288.41,stimulus,1,179,,0.0,NoMusic
1634892289.127,fixation,1,179,0.217,1.0,NoMusic
1634892290.41,stimulus,1,180,,0.0,NoMusic
1634892291.908,fixation,1,180,0.998,0.0,NoMusic
1634892292.41,stimulus,1,181,,0.0,NoMusic
1634892293.469,fixation,1,181,0.559,1.0,NoMusic
1634892294.41,stimulus,1,182,,0.0,NoMusic
1634892294.91,fixation,1,182,,0.0,NoMusic
1634892296.792,stimulus,1,183,0.382,1.0,NoMusic
1634892296.91,fixation,1,183,,0.0,NoMusic
1634892298.7450001,stimulus,1,184,0.335,0.0,NoMusic
1634892298.91,fixation,1,184,,0.0,NoMusic
1634892300.6290002,stimulus,1,185,0.219,1.0,NoMusic
1634892300.91,fixation,1,185,,0.0,NoMusic
1634892302.41,stimulus,1,186,,0.0,NoMusic
1634892303.02,fixation,1,186,0.11,1.0,NoMusic
1634892304.7640002,stimulus,1,187,0.354,0.0,NoMusic
1634892304.91,fixation,1,187,,0.0,NoMusic
1634892306.41,stimulus,1,188,,0.0,NoMusic
1634892306.91,fixation,1,188,,0.0,NoMusic
1634892308.655,stimulus,1,189,0.245,0.0,NoMusic
1634892308.91,fixation,1,189,,0.0,NoMusic
1634892310.41,stimulus,1,190,,0.0,NoMusic
1634892311.122,fixation,1,190,0.212,1.0,NoMusic
1634892312.41,stimulus,1,191,,0.0,NoMusic
1634892312.974,fixation,1,191,0.064,1.0,NoMusic
1634892314.865,stimulus,1,192,0.455,1.0,NoMusic
1634892314.91,fixation,1,192,,0.0,NoMusic
1634892316.41,stimulus,1,193,,0.0,NoMusic
1634892317.091,fixation,1,193,0.181,1.0,NoMusic
1634892318.41,stimulus,1,194,,0.0,NoMusic
1634892319.144,fixation,1,194,0.234,1.0,NoMusic
1634892320.41,stimulus,1,195,,0.0,NoMusic
1634892320.956,fixation,1,195,0.046,1.0,NoMusic
1634892322.8100002,stimulus,1,196,0.4,1.0,NoMusic
1634892322.91,fixation,1,196,,0.0,NoMusic
1634892324.41,stimulus,1,197,,0.0,NoMusic
1634892325.132,fixation,1,197,0.222,1.0,NoMusic
1634892326.41,stimulus,1,198,,0.0,NoMusic
1634892326.9710002,fixation,1,198,0.061,1.0,NoMusic
1634892328.41,stimulus,1,199,,0.0,NoMusic
1634892328.91,fixation,1,199,,0.0,NoMusic
1634892330.41,stimulus,1,200,,0.0,NoMusic
1634892331.6590002,fixation,1,200,0.749,1.0,NoMusic
1634892332.41,stimulus,1,201,,0.0,NoMusic
1634892332.993,fixation,1,201,0.083,1.0,NoMusic
1634892334.41,stimulus,1,202,,0.0,NoMusic
1634892335.0900002,fixation,1,202,0.18,1.0,NoMusic
1634892336.41,stimulus,1,203,,0.0,NoMusic
1634892337.253,fixation,1,203,0.343,1.0,NoMusic
1634892338.41,stimulus,1,204,,0.0,NoMusic
1634892338.926,fixation,1,204,0.016,1.0,NoMusic
1634892340.41,stimulus,1,205,,0.0,NoMusic
1634892341.154,fixation,1,205,0.244,1.0,NoMusic
1634892342.41,stimulus,1,206,,0.0,NoMusic
1634892343.414,fixation,1,206,0.504,1.0,NoMusic
1634892344.41,stimulus,1,207,,0.0,NoMusic
1634892345.2410002,fixation,1,207,0.331,1.0,NoMusic
1634892346.41,stimulus,1,208,,0.0,NoMusic
1634892347.042,fixation,1,208,0.132,1.0,NoMusic
1634892348.41,stimulus,1,209,,0.0,NoMusic
1634892348.973,fixation,1,209,0.063,1.0,NoMusic
1634892350.41,stimulus,1,210,,0.0,NoMusic
1634892352.186,fixation,1,210,1.276,1.0,NoMusic
1634892352.41,stimulus,1,211,,0.0,NoMusic
1634892353.4880002,fixation,1,211,0.578,1.0,NoMusic
1634892354.41,stimulus,1,212,,0.0,NoMusic
1634892355.417,fixation,1,212,0.507,1.0,NoMusic
1634892356.41,stimulus,1,213,,0.0,NoMusic
1634892357.4780002,fixation,1,213,0.568,1.0,NoMusic
1634892358.41,stimulus,1,214,,0.0,NoMusic
1634892359.671,fixation,1,214,0.761,1.0,NoMusic
1634892360.41,stimulus,1,215,,0.0,NoMusic
1634892361.2480001,fixation,1,215,0.338,1.0,NoMusic
1634892362.41,stimulus,1,216,,0.0,NoMusic
1634892363.395,fixation,1,216,0.485,1.0,NoMusic
1634892364.41,stimulus,1,217,,0.0,NoMusic
1634892365.763,fixation,1,217,0.853,1.0,NoMusic
1634892366.41,stimulus,1,218,,0.0,NoMusic
1634892367.1920002,fixation,1,218,0.282,1.0,NoMusic
1634892368.41,stimulus,1,219,,0.0,NoMusic
1634892369.082,fixation,1,219,0.172,1.0,NoMusic
1634892370.41,stimulus,1,220,,0.0,NoMusic
1634892371.331,fixation,1,220,0.421,1.0,NoMusic
1634892372.41,stimulus,1,221,,,NoMusic
1634892372.91,fixation,1,221,,,NoMusic
1634892374.41,stimulus,1,222,,0.0,NoMusic
1634892376.233,fixation,1,222,1.323,1.0,NoMusic
1634892376.41,stimulus,1,223,,0.0,NoMusic
1634892377.14,fixation,1,223,0.23,1.0,NoMusic
1634892378.41,stimulus,1,224,,0.0,NoMusic
1634892379.365,fixation,1,224,0.455,1.0,NoMusic
1634892380.41,stimulus,1,225,,0.0,NoMusic
1634892381.1850002,fixation,1,225,0.275,1.0,NoMusic
1634892382.41,stimulus,1,226,,0.0,NoMusic
1634892383.115,fixation,1,226,0.205,1.0,NoMusic
1634892384.41,stimulus,1,227,,0.0,NoMusic
1634892385.035,fixation,1,227,0.125,1.0,NoMusic
1634892386.41,stimulus,1,228,,0.0,NoMusic
1634892387.174,fixation,1,228,0.264,1.0,NoMusic
1634892388.41,stimulus,1,229,,0.0,NoMusic
1634892389.1850002,fixation,1,229,0.275,1.0,NoMusic
1634892390.41,stimulus,1,230,,0.0,NoMusic
1634892391.104,fixation,1,230,0.194,1.0,NoMusic
1634892392.41,stimulus,1,231,,0.0,NoMusic
1634892393.053,fixation,1,231,0.143,1.0,NoMusic
1634892394.41,stimulus,1,232,,0.0,NoMusic
1634892394.914,fixation,1,232,0.004,1.0,NoMusic
1634892396.7940001,stimulus,1,233,0.384,1.0,NoMusic
1634892396.91,fixation,1,233,,0.0,NoMusic
1634892398.41,stimulus,1,234,,0.0,NoMusic
1634892398.933,fixation,1,234,0.023,0.0,NoMusic
1634892400.41,stimulus,1,235,,0.0,NoMusic
1634892401.094,fixation,1,235,0.184,0.0,NoMusic
1634892402.858,stimulus,1,236,0.448,0.0,NoMusic
1634892402.91,fixation,1,236,,0.0,NoMusic
1634892404.41,stimulus,1,237,,0.0,NoMusic
1634892405.0670002,fixation,1,237,0.157,1.0,NoMusic
1634892406.41,stimulus,1,238,,0.0,NoMusic
1634892407.023,fixation,1,238,0.113,1.0,NoMusic
1634892408.41,stimulus,1,239,,0.0,NoMusic
1634892408.9680002,fixation,1,239,0.058,1.0,NoMusic
1634892410.41,stimulus,1,240,,0.0,NoMusic
1634892411.0700002,fixation,1,240,0.16,1.0,NoMusic
1634892412.862,stimulus,1,241,0.452,1.0,NoMusic
1634892412.91,fixation,1,241,,0.0,NoMusic
1634892414.8530002,stimulus,1,242,0.443,1.0,NoMusic
1634892414.91,fixation,1,242,,0.0,NoMusic
1634892416.776,stimulus,1,243,0.366,1.0,NoMusic
1634892416.91,fixation,1,243,,0.0,NoMusic
1634892418.41,stimulus,1,244,,0.0,NoMusic
1634892419.7050002,fixation,1,244,0.795,1.0,NoMusic
1634892420.41,stimulus,1,245,,0.0,NoMusic
1634892421.0570002,fixation,1,245,0.147,1.0,NoMusic
1634892422.41,stimulus,1,246,,0.0,NoMusic
1634892422.9620001,fixation,1,246,0.052,1.0,NoMusic
1634892424.41,stimulus,1,247,,0.0,NoMusic
1634892424.957,fixation,1,247,0.047,1.0,NoMusic
1634892426.41,stimulus,1,248,,0.0,NoMusic
1634892426.983,fixation,1,248,0.073,1.0,NoMusic
1634892428.41,stimulus,1,249,,0.0,NoMusic
1634892428.9390001,fixation,1,249,0.029,1.0,NoMusic
1634892430.41,stimulus,1,250,,0.0,NoMusic
1634892430.953,fixation,1,250,0.043,1.0,NoMusic
1634892432.41,stimulus,1,251,,0.0,NoMusic
1634892433.0180001,fixation,1,251,0.108,1.0,NoMusic
1634892434.905,stimulus,1,252,0.495,1.0,NoMusic
1634892434.91,fixation,1,252,,0.0,NoMusic
1634892436.41,stimulus,1,253,,0.0,NoMusic
1634892436.959,fixation,1,253,0.049,1.0,NoMusic
1634892438.8300002,stimulus,1,254,0.42,1.0,NoMusic
1634892438.91,fixation,1,254,,0.0,NoMusic
1634892440.41,stimulus,1,255,,0.0,NoMusic
1634892440.93,fixation,1,255,0.02,1.0,NoMusic
1634892442.8760002,stimulus,1,256,0.466,1.0,NoMusic
1634892442.91,fixation,1,256,,0.0,NoMusic
1634892444.41,stimulus,1,257,,0.0,NoMusic
1634892444.911,fixation,1,257,0.001,1.0,NoMusic
1634892446.828,stimulus,1,258,0.418,1.0,NoMusic
1634892446.91,fixation,1,258,,0.0,NoMusic
1634892448.888,stimulus,1,259,0.478,1.0,NoMusic
1634892448.91,fixation,1,259,,0.0,NoMusic
1634892450.41,stimulus,1,260,,0.0,NoMusic
1634892450.954,fixation,1,260,0.044,1.0,NoMusic
1634892452.41,stimulus,1,261,,0.0,NoMusic
1634892452.979,fixation,1,261,0.069,1.0,NoMusic
1634892454.41,stimulus,1,262,,0.0,NoMusic
1634892454.9650002,fixation,1,262,0.055,1.0,NoMusic
1634892456.8330002,stimulus,1,263,0.423,1.0,NoMusic
1634892456.91,fixation,1,263,,0.0,NoMusic
1634892458.41,stimulus,1,264,,0.0,NoMusic
1634892459.0870001,fixation,1,264,0.177,1.0,NoMusic
1634892460.8690002,stimulus,1,265,0.459,1.0,NoMusic
1634892460.91,fixation,1,265,,0.0,NoMusic
1634892462.41,stimulus,1,266,,0.0,NoMusic
1634892463.306,fixation,1,266,0.396,1.0,NoMusic
1634892464.41,stimulus,1,267,,0.0,NoMusic
1634892465.028,fixation,1,267,0.118,1.0,NoMusic
1634892466.8500001,stimulus,1,268,0.44,1.0,NoMusic
1634892466.91,fixation,1,268,,0.0,NoMusic
1634892468.41,stimulus,1,269,,0.0,NoMusic
1634892468.937,fixation,1,269,0.027,0.0,NoMusic
1634892470.859,stimulus,1,270,0.449,1.0,NoMusic
1634892470.91,fixation,1,270,,0.0,NoMusic
1634892472.8890002,stimulus,1,271,0.479,1.0,NoMusic
1634892472.91,fixation,1,271,,0.0,NoMusic
1634892474.875,stimulus,1,272,0.465,1.0,NoMusic
1634892474.91,fixation,1,272,,0.0,NoMusic
1634892476.778,stimulus,1,273,0.368,1.0,NoMusic
1634892476.91,fixation,1,273,,0.0,NoMusic
1634892478.801,stimulus,1,274,0.391,1.0,NoMusic
1634892478.91,fixation,1,274,,0.0,NoMusic
1634892480.842,stimulus,1,275,0.432,1.0,NoMusic
1634892480.91,fixation,1,275,,0.0,NoMusic
1634892482.8200002,stimulus,1,276,0.41,0.0,NoMusic
1634892482.91,fixation,1,276,,0.0,NoMusic
1634892484.41,stimulus,1,277,,0.0,NoMusic
1634892484.9420002,fixation,1,277,0.032,1.0,NoMusic
1634892486.8560002,stimulus,1,278,0.446,1.0,NoMusic
1634892486.91,fixation,1,278,,0.0,NoMusic
1634892488.41,stimulus,1,279,,0.0,NoMusic
1634892489.2410002,fixation,1,279,0.331,1.0,NoMusic
1634892490.41,stimulus,1,280,,0.0,NoMusic
1634892490.9750001,fixation,1,280,0.065,1.0,NoMusic
1634892492.41,stimulus,1,281,,0.0,NoMusic
1634892492.9810002,fixation,1,281,0.071,1.0,NoMusic
1634892494.8990002,stimulus,1,282,0.489,1.0,NoMusic
1634892494.91,fixation,1,282,,0.0,NoMusic
1634892496.41,stimulus,1,283,,0.0,NoMusic
1634892497.0270002,fixation,1,283,0.117,1.0,NoMusic
1634892498.834,stimulus,1,284,0.424,1.0,NoMusic
1634892498.91,fixation,1,284,,0.0,NoMusic
1634892500.895,stimulus,1,285,0.485,1.0,NoMusic
1634892500.91,fixation,1,285,,0.0,NoMusic
1634892502.8660002,stimulus,1,286,0.456,1.0,NoMusic
1634892502.91,fixation,1,286,,0.0,NoMusic
1634892504.8600001,stimulus,1,287,0.45,1.0,NoMusic
1634892504.91,fixation,1,287,,0.0,NoMusic
1634892506.41,stimulus,1,288,,0.0,NoMusic
1634892507.214,fixation,1,288,0.304,1.0,NoMusic
1634892508.8330002,stimulus,1,289,0.423,1.0,NoMusic
1634892508.91,fixation,1,289,,0.0,NoMusic
1634892510.812,stimulus,1,290,0.402,1.0,NoMusic
1634892510.91,fixation,1,290,,0.0,NoMusic
1634892512.41,stimulus,1,291,,0.0,NoMusic
1634892513.1190002,fixation,1,291,0.209,1.0,NoMusic
1634892514.41,stimulus,1,292,,0.0,NoMusic
1634892515.588,fixation,1,292,0.678,1.0,NoMusic
1634892516.41,stimulus,1,293,,0.0,NoMusic
1634892517.266,fixation,1,293,0.356,1.0,NoMusic
1634892518.41,stimulus,1,294,,0.0,NoMusic
1634892519.348,fixation,1,294,0.438,0.0,NoMusic
1634892520.41,stimulus,1,295,,0.0,NoMusic
1634892521.305,fixation,1,295,0.395,0.0,NoMusic
1634892522.41,stimulus,1,296,,0.0,NoMusic
1634892522.967,fixation,1,296,0.057,0.0,NoMusic
1634892524.41,stimulus,1,297,,0.0,NoMusic
1634892525.0240002,fixation,1,297,0.114,1.0,NoMusic
1634892526.41,stimulus,1,298,,0.0,NoMusic
1634892527.3200002,fixation,1,298,0.41,1.0,NoMusic
1634892528.41,stimulus,1,299,,0.0,NoMusic
1634892529.5170002,fixation,1,299,0.607,1.0,NoMusic
1634892530.41,stimulus,1,300,,0.0,NoMusic
1634892531.77,fixation,1,300,0.86,1.0,NoMusic
1634892532.41,stimulus,1,301,,0.0,NoMusic
1634892533.269,fixation,1,301,0.359,1.0,NoMusic
1634892534.41,stimulus,1,302,,0.0,NoMusic
1634892535.1200001,fixation,1,302,0.21,1.0,NoMusic
1634892536.41,stimulus,1,303,,0.0,NoMusic
1634892537.344,fixation,1,303,0.434,1.0,NoMusic
1634892538.41,stimulus,1,304,,0.0,NoMusic
1634892539.209,fixation,1,304,0.299,1.0,NoMusic
1634892540.41,stimulus,1,305,,0.0,NoMusic
1634892541.256,fixation,1,305,0.346,1.0,NoMusic
1634892542.41,stimulus,1,306,,0.0,NoMusic
1634892543.4580002,fixation,1,306,0.548,1.0,NoMusic
1634892544.41,stimulus,1,307,,0.0,NoMusic
1634892545.4190001,fixation,1,307,0.509,1.0,NoMusic
1634892546.41,stimulus,1,308,,0.0,NoMusic
1634892547.266,fixation,1,308,0.356,1.0,NoMusic
1634892548.41,stimulus,1,309,,0.0,NoMusic
1634892549.196,fixation,1,309,0.286,1.0,NoMusic
1634892550.41,stimulus,1,310,,0.0,NoMusic
1634892551.414,fixation,1,310,0.504,1.0,NoMusic
1634892552.41,stimulus,1,311,,0.0,NoMusic
1634892553.321,fixation,1,311,0.411,1.0,NoMusic
1634892554.41,stimulus,1,312,,0.0,NoMusic
1634892555.061,fixation,1,312,0.151,1.0,NoMusic
1634892556.41,stimulus,1,313,,0.0,NoMusic
1634892557.1420002,fixation,1,313,0.232,1.0,NoMusic
1634892558.41,stimulus,1,314,,0.0,NoMusic
1634892559.1290002,fixation,1,314,0.219,1.0,NoMusic
1634892560.41,stimulus,1,315,,0.0,NoMusic
1634892561.1890001,fixation,1,315,0.279,1.0,NoMusic
1634892562.41,stimulus,1,316,,0.0,NoMusic
1634892563.763,fixation,1,316,0.853,1.0,NoMusic
1634892564.41,stimulus,1,317,,0.0,NoMusic
1634892565.839,fixation,1,317,0.929,1.0,NoMusic
1634892566.41,stimulus,1,318,,0.0,NoMusic
1634892567.681,fixation,1,318,0.771,1.0,NoMusic
1634892568.41,stimulus,1,319,,0.0,NoMusic
1634892569.224,fixation,1,319,0.314,0.0,NoMusic
1634892570.41,stimulus,1,320,,0.0,NoMusic
1634892571.043,fixation,1,320,0.133,1.0,NoMusic
1634892572.41,stimulus,1,321,,0.0,NoMusic
1634892573.609,fixation,1,321,0.699,1.0,NoMusic
1634892574.41,stimulus,1,322,,0.0,NoMusic
1634892575.255,fixation,1,322,0.345,1.0,NoMusic
1634892576.41,stimulus,1,323,,0.0,NoMusic
1634892577.911,fixation,1,323,1.001,1.0,NoMusic
1634892578.41,stimulus,1,324,,0.0,NoMusic
1634892579.352,fixation,1,324,0.442,1.0,NoMusic
1634892580.41,stimulus,1,325,,0.0,NoMusic
1634892581.1750002,fixation,1,325,0.265,1.0,NoMusic
1634892582.41,stimulus,1,326,,0.0,NoMusic
1634892583.095,fixation,1,326,0.185,1.0,NoMusic
1634892584.41,stimulus,1,327,,0.0,NoMusic
1634892584.91,fixation,1,327,,0.0,NoMusic
1634892586.41,stimulus,1,328,,0.0,NoMusic
1634892587.084,fixation,1,328,0.174,1.0,NoMusic
1634892588.41,stimulus,1,329,,0.0,NoMusic
1634892588.911,fixation,1,329,0.001,1.0,NoMusic
1634892590.41,stimulus,1,330,,0.0,NoMusic
1634892591.5800002,fixation,1,330,0.67,1.0,NoMusic
1634892592.41,stimulus,1,331,,0.0,NoMusic
1634892593.351,fixation,1,331,0.441,1.0,NoMusic
1634892594.4780002,stimulus,1,332,0.068,0.0,NoMusic
1634892594.91,fixation,1,332,,0.0,NoMusic
1634892596.41,stimulus,1,333,,0.0,NoMusic
1634892597.321,fixation,1,333,0.411,1.0,NoMusic
1634892598.41,stimulus,1,334,,0.0,NoMusic
1634892599.335,fixation,1,334,0.425,1.0,NoMusic
1634892600.41,stimulus,1,335,,0.0,NoMusic
1634892601.2120001,fixation,1,335,0.302,1.0,NoMusic
1634892602.41,stimulus,1,336,,0.0,NoMusic
1634892603.0730002,fixation,1,336,0.163,1.0,NoMusic
1634892604.41,stimulus,1,337,,0.0,NoMusic
1634892605.124,fixation,1,337,0.214,1.0,NoMusic
1634892606.41,stimulus,1,338,,0.0,NoMusic
1634892606.9550002,fixation,1,338,0.045,1.0,NoMusic
1634892608.41,stimulus,1,339,,0.0,NoMusic
1634892609.048,fixation,1,339,0.138,0.0,NoMusic
1634892610.41,stimulus,1,340,,0.0,NoMusic
1634892611.0210001,fixation,1,340,0.111,1.0,NoMusic
1634892612.41,stimulus,1,341,,0.0,NoMusic
1634892612.936,fixation,1,341,0.026,1.0,NoMusic
1634892614.41,stimulus,1,342,,0.0,NoMusic
1634892614.9420002,fixation,1,342,0.032,1.0,NoMusic
1634892616.41,stimulus,1,343,,0.0,NoMusic
1634892616.9380002,fixation,1,343,0.028,1.0,NoMusic
1634892618.9,stimulus,1,344,0.49,1.0,NoMusic
1634892618.91,fixation,1,344,,0.0,NoMusic
1634892620.41,stimulus,1,345,,0.0,NoMusic
1634892621.246,fixation,1,345,0.336,1.0,NoMusic
1634892622.41,stimulus,1,346,,0.0,NoMusic
1634892622.911,fixation,1,346,0.001,1.0,NoMusic
1634892624.881,stimulus,1,347,0.471,1.0,NoMusic
1634892624.91,fixation,1,347,,0.0,NoMusic
1634892626.41,stimulus,1,348,,0.0,NoMusic
1634892627.1520002,fixation,1,348,0.242,1.0,NoMusic
1634892628.8630002,stimulus,1,349,0.453,1.0,NoMusic
1634892628.91,fixation,1,349,,0.0,NoMusic
1634892630.41,stimulus,1,350,,0.0,NoMusic
1634892631.023,fixation,1,350,0.113,1.0,NoMusic
1634892632.41,stimulus,1,351,,0.0,NoMusic
1634892632.9520001,fixation,1,351,0.042,1.0,NoMusic
1634892634.8040001,stimulus,1,352,0.394,1.0,NoMusic
1634892634.91,fixation,1,352,,0.0,NoMusic
1634892636.41,stimulus,1,353,,0.0,NoMusic
1634892636.931,fixation,1,353,0.021,1.0,NoMusic
1634892638.41,stimulus,1,354,,0.0,NoMusic
1634892640.157,fixation,1,354,1.247,1.0,NoMusic
1634892640.41,stimulus,1,355,,0.0,NoMusic
1634892641.079,fixation,1,355,0.169,1.0,NoMusic
1634892642.885,stimulus,1,356,0.475,1.0,NoMusic
1634892642.91,fixation,1,356,,0.0,NoMusic
1634892644.41,stimulus,1,357,,0.0,NoMusic
1634892645.042,fixation,1,357,0.132,1.0,NoMusic
1634892646.41,stimulus,1,358,,0.0,NoMusic
1634892647.1230001,fixation,1,358,0.213,1.0,NoMusic
1634892648.41,stimulus,1,359,,0.0,NoMusic
1634892649.207,fixation,1,359,0.297,1.0,NoMusic
1634892650.41,stimulus,1,360,,0.0,NoMusic
1634892651.21,fixation,1,360,0.3,1.0,NoMusic
1634892652.41,stimulus,1,361,,0.0,NoMusic
1634892653.163,fixation,1,361,0.253,1.0,NoMusic
1634892654.897,stimulus,1,362,0.487,1.0,NoMusic
1634892654.91,fixation,1,362,,0.0,NoMusic
1634892656.41,stimulus,1,363,,0.0,NoMusic
1634892657.088,fixation,1,363,0.178,0.0,NoMusic
1634892658.41,stimulus,1,364,,0.0,NoMusic
1634892659.158,fixation,1,364,0.248,0.0,NoMusic
1634892660.41,stimulus,1,365,,0.0,NoMusic
1634892661.0800002,fixation,1,365,0.17,1.0,NoMusic
1634892662.41,stimulus,1,366,,0.0,NoMusic
1634892663.102,fixation,1,366,0.192,1.0,NoMusic
1634892664.41,stimulus,1,367,,0.0,NoMusic
1634892665.2740002,fixation,1,367,0.364,1.0,NoMusic
1634892666.41,stimulus,1,368,,0.0,NoMusic
1634892667.03,fixation,1,368,0.12,1.0,NoMusic
1634892668.41,stimulus,1,369,,0.0,NoMusic
1634892669.2640002,fixation,1,369,0.354,1.0,NoMusic
1634892670.41,stimulus,1,370,,0.0,NoMusic
1634892671.178,fixation,1,370,0.268,1.0,NoMusic
1634892672.41,stimulus,1,371,,0.0,NoMusic
1634892673.016,fixation,1,371,0.106,1.0,NoMusic
1634892674.41,stimulus,1,372,,0.0,NoMusic
1634892675.2940001,fixation,1,372,0.384,1.0,NoMusic
1634892676.41,stimulus,1,373,,0.0,NoMusic
1634892677.302,fixation,1,373,0.392,1.0,NoMusic
1634892678.41,stimulus,1,374,,0.0,NoMusic
1634892679.183,fixation,1,374,0.273,1.0,NoMusic
1634892680.41,stimulus,1,375,,0.0,NoMusic
1634892681.0740001,fixation,1,375,0.164,1.0,NoMusic
1634892682.41,stimulus,1,376,,0.0,NoMusic
1634892683.319,fixation,1,376,0.409,1.0,NoMusic
1634892684.41,stimulus,1,377,,0.0,NoMusic
1634892685.0600002,fixation,1,377,0.15,1.0,NoMusic
1634892686.41,stimulus,1,378,,0.0,NoMusic
1634892687.005,fixation,1,378,0.095,1.0,NoMusic
1634892688.864,stimulus,1,379,0.454,1.0,NoMusic
1634892688.91,fixation,1,379,,0.0,NoMusic
1634892690.828,stimulus,1,380,0.418,1.0,NoMusic
1634892690.91,fixation,1,380,,0.0,NoMusic
1634892692.7900002,stimulus,1,381,0.38,1.0,NoMusic
1634892692.91,fixation,1,381,,0.0,NoMusic
1634892694.8500001,stimulus,1,382,0.44,1.0,NoMusic
1634892694.91,fixation,1,382,,0.0,NoMusic
1634892696.7210002,stimulus,1,383,0.311,1.0,NoMusic
1634892696.91,fixation,1,383,,0.0,NoMusic
1634892698.7670002,stimulus,1,384,0.357,1.0,NoMusic
1634892698.91,fixation,1,384,,0.0,NoMusic
1634892700.8760002,stimulus,1,385,0.466,1.0,NoMusic
1634892700.91,fixation,1,385,,0.0,NoMusic
1634892702.41,stimulus,1,386,,0.0,NoMusic
1634892702.9710002,fixation,1,386,0.061,1.0,NoMusic
1634892704.8860002,stimulus,1,387,0.476,1.0,NoMusic
1634892704.91,fixation,1,387,,0.0,NoMusic
1634892706.41,stimulus,1,388,,0.0,NoMusic
1634892706.9120002,fixation,1,388,0.002,1.0,NoMusic
1634892708.41,stimulus,1,389,,0.0,NoMusic
1634892708.99,fixation,1,389,0.08,1.0,NoMusic
1634892710.796,stimulus,1,390,0.386,1.0,NoMusic
1634892710.91,fixation,1,390,,0.0,NoMusic
1634892712.7840002,stimulus,1,391,0.374,1.0,NoMusic
1634892712.91,fixation,1,391,,0.0,NoMusic
1634892714.803,stimulus,1,392,0.393,1.0,NoMusic
1634892714.91,fixation,1,392,,0.0,NoMusic
1634892716.41,stimulus,1,393,,0.0,NoMusic
1634892716.9580002,fixation,1,393,0.048,1.0,NoMusic
1634892718.78,stimulus,1,394,0.37,1.0,NoMusic
1634892718.91,fixation,1,394,,0.0,NoMusic
1634892720.765,stimulus,1,395,0.355,1.0,NoMusic
1634892720.91,fixation,1,395,,0.0,NoMusic
1634892722.41,stimulus,1,396,,0.0,NoMusic
1634892722.966,fixation,1,396,0.056,1.0,NoMusic
1634892724.825,stimulus,1,397,0.415,1.0,NoMusic
1634892724.91,fixation,1,397,,0.0,NoMusic
1634892726.41,stimulus,1,398,,,RelaxSession
1634892726.91,fixation,1,398,,,RelaxSession
1634892728.41,stimulus,1,399,,,RelaxSession
1634892728.91,fixation,1,399,,,RelaxSession
1634892730.41,stimulus,1,400,,,RelaxSession
1634892730.91,fixation,1,400,,,RelaxSession
1634892732.41,stimulus,1,401,,,RelaxSession
1634892732.91,fixation,1,401,,,RelaxSession
1634892734.41,stimulus,1,402,,,RelaxSession
1634892734.91,fixation,1,402,,,RelaxSession
1634892736.41,stimulus,1,403,,,RelaxSession
1634892736.91,fixation,1,403,,,RelaxSession
1634892738.41,stimulus,1,404,,,RelaxSession
1634892738.91,fixation,1,404,,,RelaxSession
1634892740.41,stimulus,1,405,,,RelaxSession
1634892740.91,fixation,1,405,,,RelaxSession
1634892742.41,stimulus,1,406,,,RelaxSession
1634892742.91,fixation,1,406,,,RelaxSession
1634892744.41,stimulus,1,407,,,RelaxSession
1634892744.91,fixation,1,407,,,RelaxSession
1634892746.41,stimulus,1,408,,,RelaxSession
1634892746.91,fixation,1,408,,,RelaxSession
1634892748.41,stimulus,1,409,,,RelaxSession
1634892748.91,fixation,1,409,,,RelaxSession
1634892750.41,stimulus,1,410,,,RelaxSession
1634892750.91,fixation,1,410,,,RelaxSession
1634892752.41,stimulus,1,411,,,RelaxSession
1634892752.91,fixation,1,411,,,RelaxSession
1634892754.41,stimulus,1,412,,,RelaxSession
1634892754.91,fixation,1,412,,,RelaxSession
1634892756.41,stimulus,1,413,,,RelaxSession
1634892756.91,fixation,1,413,,,RelaxSession
1634892758.41,stimulus,1,414,,,RelaxSession
1634892758.91,fixation,1,414,,,RelaxSession
1634892760.41,stimulus,1,415,,,RelaxSession
1634892760.91,fixation,1,415,,,RelaxSession
1634892762.41,stimulus,1,416,,,RelaxSession
1634892762.91,fixation,1,416,,,RelaxSession
1634892764.41,stimulus,1,417,,,RelaxSession
1634892764.91,fixation,1,417,,,RelaxSession
1634892766.41,stimulus,1,418,,,RelaxSession
1634892766.91,fixation,1,418,,,RelaxSession
1634892768.41,stimulus,1,419,,,RelaxSession
1634892768.91,fixation,1,419,,,RelaxSession
1634892770.41,stimulus,1,420,,,RelaxSession
1634892770.91,fixation,1,420,,,RelaxSession
1634892772.41,stimulus,1,421,,,RelaxSession
1634892772.91,fixation,1,421,,,RelaxSession
1634892774.41,stimulus,1,422,,,RelaxSession
1634892774.91,fixation,1,422,,,RelaxSession
1634892776.41,stimulus,1,423,,,RelaxSession
1634892776.91,fixation,1,423,,,RelaxSession
1634892778.41,stimulus,1,424,,,RelaxSession
1634892778.91,fixation,1,424,,,RelaxSession
1634892780.41,stimulus,1,425,,,RelaxSession
1634892780.91,fixation,1,425,,,RelaxSession
1634892782.41,stimulus,1,426,,,RelaxSession
1634892782.91,fixation,1,426,,,RelaxSession
1634892784.41,stimulus,1,427,,,RelaxSession
1634892784.91,fixation,1,427,,,RelaxSession
1634892786.41,stimulus,1,428,,,RelaxSession
1634892786.91,fixation,1,428,,,RelaxSession
1634892788.41,stimulus,1,429,,,RelaxSession
1634892788.91,fixation,1,429,,,RelaxSession
1634892790.41,stimulus,1,430,,,RelaxSession
1634892790.91,fixation,1,430,,,RelaxSession
1634892792.41,stimulus,1,431,,,RelaxSession
1634892792.91,fixation,1,431,,,RelaxSession
1634892794.41,stimulus,1,432,,,RelaxSession
1634892794.91,fixation,1,432,,,RelaxSession
1634892796.41,stimulus,1,433,,,RelaxSession
1634892796.91,fixation,1,433,,,RelaxSession
1634892798.41,stimulus,1,434,,,RelaxSession
1634892798.91,fixation,1,434,,,RelaxSession
1634892800.41,stimulus,1,435,,,RelaxSession
1634892800.91,fixation,1,435,,,RelaxSession
1634892802.41,stimulus,1,436,,,RelaxSession
1634892802.91,fixation,1,436,,,RelaxSession
1634892804.41,stimulus,1,437,,,RelaxSession
1634892804.91,fixation,1,437,,,RelaxSession
1634892806.41,stimulus,1,438,,,RelaxSession
1634892806.91,fixation,1,438,,,RelaxSession
1634892808.41,stimulus,1,439,,,RelaxSession
1634892808.91,fixation,1,439,,,RelaxSession
1634892810.41,stimulus,1,440,,,RelaxSession
1634892810.91,fixation,1,440,,,RelaxSession
1634892812.41,stimulus,1,441,,,RelaxSession
1634892812.91,fixation,1,441,,,RelaxSession
1634892814.41,stimulus,1,442,,,RelaxSession
1634892814.91,fixation,1,442,,,RelaxSession
1634892816.41,stimulus,1,443,,,RelaxSession
1634892816.91,fixation,1,443,,,RelaxSession
1634892818.41,stimulus,1,444,,,RelaxSession
1634892818.91,fixation,1,444,,,RelaxSession
1634892820.41,stimulus,1,445,,,RelaxSession
1634892820.91,fixation,1,445,,,RelaxSession
1634892822.41,stimulus,1,446,,,RelaxSession
1634892822.91,fixation,1,446,,,RelaxSession
1634892824.41,stimulus,1,447,,,RelaxSession
1634892824.91,fixation,1,447,,,RelaxSession
1634892826.41,stimulus,1,448,,,RelaxSession
1634892826.91,fixation,1,448,,,RelaxSession
1634892828.41,stimulus,1,449,,,RelaxSession
1634892828.91,fixation,1,449,,,RelaxSession
1634892830.41,stimulus,1,450,,,RelaxSession
1634892830.91,fixation,1,450,,,RelaxSession
1634892832.41,stimulus,1,451,,,RelaxSession
1634892832.91,fixation,1,451,,,RelaxSession
1634892834.41,stimulus,1,452,,,RelaxSession
1634892834.91,fixation,1,452,,,RelaxSession
1634892836.41,stimulus,1,453,,,RelaxSession
1634892836.91,fixation,1,453,,,RelaxSession
1634892838.41,stimulus,1,454,,,RelaxSession
1634892838.91,fixation,1,454,,,RelaxSession
1634892840.41,stimulus,1,455,,,RelaxSession
1634892840.91,fixation,1,455,,,RelaxSession
1634892842.41,stimulus,1,456,,,RelaxSession
1634892842.91,fixation,1,456,,,RelaxSession
1634892844.41,stimulus,1,457,,,RelaxSession
1634892844.91,fixation,1,457,,,RelaxSession
1634892846.41,stimulus,1,458,,,RelaxSession
1634892846.91,fixation,1,458,,,RelaxSession
1634892848.41,stimulus,1,459,,,RelaxSession
1634892848.91,fixation,1,459,,,RelaxSession
1634892850.41,stimulus,1,460,,,RelaxSession
1634892850.91,fixation,1,460,,,RelaxSession
1634892852.41,stimulus,1,461,,,RelaxSession
1634892852.91,fixation,1,461,,,RelaxSession
1634892854.41,stimulus,1,462,,,RelaxSession
1634892854.91,fixation,1,462,,,RelaxSession
1634892856.41,stimulus,1,463,,,RelaxSession
1634892856.91,fixation,1,463,,,RelaxSession
1634892858.41,stimulus,1,464,,,RelaxSession
1634892858.91,fixation,1,464,,,RelaxSession
1634892860.41,stimulus,1,465,,,RelaxSession
1634892860.91,fixation,1,465,,,RelaxSession
1634892862.41,stimulus,1,466,,,RelaxSession
1634892862.91,fixation,1,466,,,RelaxSession
1634892864.41,stimulus,1,467,,,RelaxSession
1634892864.91,fixation,1,467,,,RelaxSession
1634892866.41,stimulus,1,468,,,RelaxSession
1634892866.91,fixation,1,468,,,RelaxSession
1634892868.41,stimulus,1,469,,,RelaxSession
1634892868.91,fixation,1,469,,,RelaxSession
1634892870.41,stimulus,1,470,,,RelaxSession
1634892870.91,fixation,1,470,,,RelaxSession
1634892872.41,stimulus,1,471,,,RelaxSession
1634892872.91,fixation,1,471,,,RelaxSession
1634892874.41,stimulus,1,472,,,RelaxSession
1634892874.91,fixation,1,472,,,RelaxSession
1634892876.41,stimulus,1,473,,,RelaxSession
1634892876.91,fixation,1,473,,,RelaxSession
1634892878.41,stimulus,1,474,,,RelaxSession
1634892878.91,fixation,1,474,,,RelaxSession
1634892880.41,stimulus,1,475,,,RelaxSession
1634892880.91,fixation,1,475,,,RelaxSession
1634892882.41,stimulus,1,476,,,RelaxSession
1634892882.91,fixation,1,476,,,RelaxSession
1634892884.41,stimulus,1,477,,,RelaxSession
1634892884.91,fixation,1,477,,,RelaxSession
1634892886.41,stimulus,1,478,,,RelaxSession
1634892886.91,fixation,1,478,,,RelaxSession
1634892888.41,stimulus,1,479,,,RelaxSession
1634892888.91,fixation,1,479,,,RelaxSession
1634892890.41,stimulus,1,480,,,RelaxSession
1634892890.91,fixation,1,480,,,RelaxSession
1634892892.41,stimulus,1,481,,,RelaxSession
1634892892.91,fixation,1,481,,,RelaxSession
1634892894.41,stimulus,1,482,,,RelaxSession
1634892894.91,fixation,1,482,,,RelaxSession
1634892896.41,stimulus,1,483,,,RelaxSession
1634892896.91,fixation,1,483,,,RelaxSession
1634892898.41,stimulus,1,484,,,RelaxSession
1634892898.91,fixation,1,484,,,RelaxSession
1634892900.41,stimulus,1,485,,,RelaxSession
1634892900.91,fixation,1,485,,,RelaxSession
1634892902.41,stimulus,1,486,,,RelaxSession
1634892902.91,fixation,1,486,,,RelaxSession
1634892904.41,stimulus,1,487,,,RelaxSession
1634892904.91,fixation,1,487,,,RelaxSession
1634892906.41,stimulus,1,488,,,RelaxSession
1634892906.91,fixation,1,488,,,RelaxSession
1634892908.41,stimulus,1,489,,,RelaxSession
1634892908.91,fixation,1,489,,,RelaxSession
1634892910.41,stimulus,1,490,,,RelaxSession
1634892910.91,fixation,1,490,,,RelaxSession
1634892912.41,stimulus,1,491,,,RelaxSession
1634892912.91,fixation,1,491,,,RelaxSession
1634892914.41,stimulus,1,492,,,RelaxSession
1634892914.91,fixation,1,492,,,RelaxSession
1634892915.03,stimulus,2,1,,,PracticeSession
1634892915.53,fixation,2,1,,,PracticeSession
1634892916.41,stimulus,1,493,,,RelaxSession
1634892916.91,fixation,1,493,,,RelaxSession
1634892917.03,stimulus,2,2,,,PracticeSession
1634892917.53,fixation,2,2,,,PracticeSession
1634892918.41,stimulus,1,494,,,RelaxSession
1634892918.91,fixation,1,494,,,RelaxSession
1634892919.03,stimulus,2,3,,,PracticeSession
1634892919.53,fixation,2,3,,,PracticeSession
1634892920.41,stimulus,1,495,,,RelaxSession
1634892920.91,fixation,1,495,,,RelaxSession
1634892921.03,stimulus,2,4,,,PracticeSession
1634892921.53,fixation,2,4,,,PracticeSession
1634892922.41,stimulus,1,496,,,RelaxSession
1634892922.91,fixation,1,496,,,RelaxSession
1634892923.03,stimulus,2,5,,,PracticeSession
1634892923.53,fixation,2,5,,,PracticeSession
1634892924.41,stimulus,1,497,,,RelaxSession
1634892924.91,fixation,1,497,,,RelaxSession
1634892925.03,stimulus,2,6,,,PracticeSession
1634892925.53,fixation,2,6,,,PracticeSession
1634892926.41,stimulus,1,498,,,RelaxSession
1634892926.91,fixation,1,498,,,RelaxSession
1634892927.03,stimulus,2,7,,,PracticeSession
1634892927.53,fixation,2,7,,,PracticeSession
1634892928.41,stimulus,1,499,,,RelaxSession
1634892928.91,fixation,1,499,,,RelaxSession
1634892929.03,stimulus,2,8,,,PracticeSession
1634892929.53,fixation,2,8,,,PracticeSession
1634892930.41,stimulus,1,500,,,RelaxSession
1634892930.91,fixation,1,500,,,RelaxSession
1634892931.03,stimulus,2,9,,,PracticeSession
1634892931.53,fixation,2,9,,,PracticeSession
1634892932.41,stimulus,1,501,,,RelaxSession
1634892932.91,fixation,1,501,,,RelaxSession
1634892933.03,stimulus,2,10,,,PracticeSession
1634892933.53,fixation,2,10,,,PracticeSession
1634892934.41,stimulus,1,502,,,RelaxSession
1634892934.91,fixation,1,502,,,RelaxSession
1634892935.03,stimulus,2,11,,,PracticeSession
1634892935.53,fixation,2,11,,,PracticeSession
1634892936.41,stimulus,1,503,,,RelaxSession
1634892936.91,fixation,1,503,,,RelaxSession
1634892937.03,stimulus,2,12,,,PracticeSession
1634892937.53,fixation,2,12,,,PracticeSession
1634892938.41,stimulus,1,504,,,RelaxSession
1634892938.91,fixation,1,504,,,RelaxSession
1634892939.03,stimulus,2,13,,,PracticeSession
1634892939.53,fixation,2,13,,,PracticeSession
1634892940.41,stimulus,1,505,,,RelaxSession
1634892940.91,fixation,1,505,,,RelaxSession
1634892941.03,stimulus,2,14,,,PracticeSession
1634892941.53,fixation,2,14,,,PracticeSession
1634892942.41,stimulus,1,506,,,RelaxSession
1634892942.91,fixation,1,506,,,RelaxSession
1634892943.03,stimulus,2,15,,,PracticeSession
1634892943.53,fixation,2,15,,,PracticeSession
1634892944.41,stimulus,1,507,,,RelaxSession
1634892944.91,fixation,1,507,,,RelaxSession
1634892945.03,stimulus,2,16,,,PracticeSession
1634892945.53,fixation,2,16,,,PracticeSession
1634892946.41,stimulus,1,508,,,RelaxSession
1634892946.91,fixation,1,508,,,RelaxSession
1634892947.03,stimulus,2,17,,,PracticeSession
1634892947.53,fixation,2,17,,,PracticeSession
1634892948.41,stimulus,1,509,,,RelaxSession
1634892948.91,fixation,1,509,,,RelaxSession
1634892949.03,stimulus,2,18,,,PracticeSession
1634892949.53,fixation,2,18,,,PracticeSession
1634892950.41,stimulus,1,510,,,RelaxSession
1634892950.91,fixation,1,510,,,RelaxSession
1634892951.03,stimulus,2,19,,,PracticeSession
1634892951.53,fixation,2,19,,,PracticeSession
1634892952.41,stimulus,1,511,,,RelaxSession
1634892952.91,fixation,1,511,,,RelaxSession
1634892953.03,stimulus,2,20,,,PracticeSession
1634892953.53,fixation,2,20,,,PracticeSession
1634892954.41,stimulus,1,512,,,RelaxSession
1634892954.91,fixation,1,512,,,RelaxSession
1634892955.03,stimulus,2,21,,,PracticeSession
1634892955.53,fixation,2,21,,,PracticeSession
1634892956.41,stimulus,1,513,,,RelaxSession
1634892956.91,fixation,1,513,,,RelaxSession
1634892957.03,stimulus,2,22,,,PracticeSession
1634892957.53,fixation,2,22,,,PracticeSession
1634892958.41,stimulus,1,514,,,RelaxSession
1634892958.91,fixation,1,514,,,RelaxSession
1634892959.03,stimulus,2,23,,,PracticeSession
1634892959.53,fixation,2,23,,,PracticeSession
1634892960.41,stimulus,1,515,,,RelaxSession
1634892960.91,fixation,1,515,,,RelaxSession
1634892961.03,stimulus,2,24,,,PracticeSession
1634892961.53,fixation,2,24,,,PracticeSession
1634892962.41,stimulus,1,516,,,RelaxSession
1634892962.91,fixation,1,516,,,RelaxSession
1634892963.03,stimulus,2,25,,,PracticeSession
1634892963.53,fixation,2,25,,,PracticeSession
1634892964.41,stimulus,1,517,,,RelaxSession
1634892964.91,fixation,1,517,,,RelaxSession
1634892965.03,stimulus,2,26,,,PracticeSession
1634892965.53,fixation,2,26,,,PracticeSession
1634892966.41,stimulus,1,518,,,RelaxSession
1634892966.91,fixation,1,518,,,RelaxSession
1634892967.03,stimulus,2,27,,,PracticeSession
1634892967.53,fixation,2,27,,,PracticeSession
1634892968.41,stimulus,1,519,,,RelaxSession
1634892968.91,fixation,1,519,,,RelaxSession
1634892969.03,stimulus,2,28,,,PracticeSession
1634892969.53,fixation,2,28,,,PracticeSession
1634892970.41,stimulus,1,520,,,RelaxSession
1634892970.91,fixation,1,520,,,RelaxSession
1634892971.03,stimulus,2,29,,,PracticeSession
1634892971.53,fixation,2,29,,,PracticeSession
1634892972.41,stimulus,1,521,,,RelaxSession
1634892972.91,fixation,1,521,,,RelaxSession
1634892973.03,stimulus,2,30,,,PracticeSession
1634892973.53,fixation,2,30,,,PracticeSession
1634892974.41,stimulus,1,522,,,RelaxSession
1634892974.91,fixation,1,522,,,RelaxSession
1634892975.03,stimulus,2,31,,,PracticeSession
1634892975.53,fixation,2,31,,,PracticeSession
1634892976.41,stimulus,1,523,,,RelaxSession
1634892976.91,fixation,1,523,,,RelaxSession
1634892977.03,stimulus,2,32,,,PracticeSession
1634892977.53,fixation,2,32,,,PracticeSession
1634892978.41,stimulus,1,524,,,RelaxSession
1634892978.91,fixation,1,524,,,RelaxSession
1634892979.03,stimulus,2,33,,,PracticeSession
1634892979.53,fixation,2,33,,,PracticeSession
1634892980.41,stimulus,1,525,,,RelaxSession
1634892980.91,fixation,1,525,,,RelaxSession
1634892981.03,stimulus,2,34,,,PracticeSession
1634892981.53,fixation,2,34,,,PracticeSession
1634892982.41,stimulus,1,526,,,RelaxSession
1634892982.91,fixation,1,526,,,RelaxSession
1634892983.03,stimulus,2,35,,,PracticeSession
1634892983.53,fixation,2,35,,,PracticeSession
1634892984.41,stimulus,1,527,,,RelaxSession
1634892984.91,fixation,1,527,,,RelaxSession
1634892985.03,stimulus,2,36,,,PracticeSession
1634892985.53,fixation,2,36,,,PracticeSession
1634892986.41,stimulus,1,528,,,RelaxSession
1634892986.91,fixation,1,528,,,RelaxSession
1634892987.03,stimulus,2,37,,,PracticeSession
1634892987.53,fixation,2,37,,,PracticeSession
1634892988.41,stimulus,1,529,,,RelaxSession
1634892988.91,fixation,1,529,,,RelaxSession
1634892989.03,stimulus,2,38,,,PracticeSession
1634892989.53,fixation,2,38,,,PracticeSession
1634892990.41,stimulus,1,530,,,RelaxSession
1634892990.91,fixation,1,530,,,RelaxSession
1634892991.03,stimulus,2,39,,,PracticeSession
1634892991.53,fixation,2,39,,,PracticeSession
1634892992.41,stimulus,1,531,,,RelaxSession
1634892992.91,fixation,1,531,,,RelaxSession
1634892993.03,stimulus,2,40,,,PracticeSession
1634892993.53,fixation,2,40,,,PracticeSession
1634892994.41,stimulus,1,532,,,RelaxSession
1634892994.91,fixation,1,532,,,RelaxSession
1634892995.03,stimulus,2,41,,,PracticeSession
1634892995.53,fixation,2,41,,,PracticeSession
1634892996.41,stimulus,1,533,,,RelaxSession
1634892996.91,fixation,1,533,,,RelaxSession
1634892997.03,stimulus,2,42,,,PracticeSession
1634892997.53,fixation,2,42,,,PracticeSession
1634892998.41,stimulus,1,534,,,RelaxSession
1634892998.91,fixation,1,534,,,RelaxSession
1634892999.03,stimulus,2,43,,,PracticeSession
1634892999.53,fixation,2,43,,,PracticeSession
1634893000.41,stimulus,1,535,,,RelaxSession
1634893000.91,fixation,1,535,,,RelaxSession
1634893001.03,stimulus,2,44,,,PracticeSession
1634893001.53,fixation,2,44,,,PracticeSession
1634893002.41,stimulus,1,536,,,RelaxSession
1634893002.91,fixation,1,536,,,RelaxSession
1634893003.03,stimulus,2,45,,,NoMusic
1634893003.53,fixation,2,45,,,NoMusic
1634893004.41,stimulus,1,537,,,RelaxSession
1634893004.91,fixation,1,537,,,RelaxSession
1634893005.03,stimulus,2,46,,,NoMusic
1634893005.53,fixation,2,46,,,NoMusic
1634893006.41,stimulus,1,538,,,RelaxSession
1634893006.91,fixation,1,538,,,RelaxSession
1634893007.03,stimulus,2,47,,,NoMusic
1634893007.53,fixation,2,47,,,NoMusic
1634893008.41,stimulus,1,539,,,RelaxSession
1634893008.91,fixation,1,539,,,RelaxSession
1634893009.03,stimulus,2,48,,,NoMusic
1634893009.53,fixation,2,48,,,NoMusic
1634893010.41,stimulus,1,540,,,RelaxSession
1634893010.91,fixation,1,540,,,RelaxSession
1634893011.03,stimulus,2,49,,,NoMusic
1634893011.53,fixation,2,49,,,NoMusic
1634893012.41,stimulus,1,541,,,RelaxSession
1634893012.91,fixation,1,541,,,RelaxSession
1634893013.03,stimulus,2,50,,,NoMusic
1634893013.53,fixation,2,50,,,NoMusic
1634893014.41,stimulus,1,542,,,RelaxSession
1634893014.91,fixation,1,542,,,RelaxSession
1634893015.03,stimulus,2,51,,,NoMusic
1634893015.53,fixation,2,51,,,NoMusic
1634893016.41,stimulus,1,543,,,RelaxSession
1634893016.91,fixation,1,543,,,RelaxSession
1634893017.03,stimulus,2,52,,,NoMusic
1634893017.53,fixation,2,52,,,NoMusic
1634893018.41,stimulus,1,544,,,RelaxSession
1634893018.91,fixation,1,544,,,RelaxSession
1634893019.03,stimulus,2,53,,,NoMusic
1634893019.53,fixation,2,53,,,NoMusic
1634893020.41,stimulus,1,545,,,RelaxSession
1634893020.91,fixation,1,545,,,RelaxSession
1634893021.03,stimulus,2,54,,,NoMusic
1634893021.53,fixation,2,54,,,NoMusic
1634893022.41,stimulus,1,546,,,RelaxSession
1634893022.91,fixation,1,546,,,RelaxSession
1634893023.03,stimulus,2,55,,,NoMusic
1634893023.53,fixation,2,55,,,NoMusic
1634893024.41,stimulus,1,547,,,RelaxSession
1634893024.91,fixation,1,547,,,RelaxSession
1634893025.03,stimulus,2,56,,,NoMusic
1634893025.53,fixation,2,56,,,NoMusic
1634893026.41,stimulus,1,548,,,RelaxSession
1634893026.91,fixation,1,548,,,RelaxSession
1634893027.03,stimulus,2,57,,,NoMusic
1634893027.53,fixation,2,57,,,NoMusic
1634893028.41,stimulus,1,549,,,RelaxSession
1634893028.91,fixation,1,549,,,RelaxSession
1634893029.03,stimulus,2,58,,,NoMusic
1634893029.53,fixation,2,58,,,NoMusic
1634893030.41,stimulus,1,550,,,RelaxSession
1634893030.91,fixation,1,550,,,RelaxSession
1634893031.03,stimulus,2,59,,,NoMusic
1634893031.53,fixation,2,59,,,NoMusic
1634893032.41,stimulus,1,551,,,RelaxSession
1634893032.91,fixation,1,551,,,RelaxSession
1634893033.03,stimulus,2,60,,,NoMusic
1634893033.53,fixation,2,60,,,NoMusic
1634893034.41,stimulus,1,552,,,RelaxSession
1634893034.91,fixation,1,552,,,RelaxSession
1634893035.03,stimulus,2,61,,,NoMusic
1634893035.53,fixation,2,61,,,NoMusic
1634893036.41,stimulus,1,553,,,RelaxSession
1634893036.91,fixation,1,553,,,RelaxSession
1634893037.03,stimulus,2,62,,,NoMusic
1634893037.53,fixation,2,62,,,NoMusic
1634893038.41,stimulus,1,554,,,RelaxSession
1634893038.91,fixation,1,554,,,RelaxSession
1634893039.03,stimulus,2,63,,,NoMusic
1634893039.53,fixation,2,63,,,NoMusic
1634893040.41,stimulus,1,555,,,RelaxSession
1634893040.91,fixation,1,555,,,RelaxSession
1634893041.03,stimulus,2,64,,,NoMusic
1634893041.53,fixation,2,64,,,NoMusic
1634893042.41,stimulus,1,556,,,RelaxSession
1634893042.91,fixation,1,556,,,RelaxSession
1634893043.03,stimulus,2,65,,,NoMusic
1634893043.53,fixation,2,65,,,NoMusic
1634893044.41,stimulus,1,557,,,RelaxSession
1634893044.91,fixation,1,557,,,RelaxSession
1634893045.03,stimulus,2,66,,,NoMusic
1634893045.53,fixation,2,66,,,NoMusic
1634893046.41,stimulus,1,558,,,RelaxSession
1634893046.91,fixation,1,558,,,RelaxSession
1634893047.03,stimulus,2,67,,,NoMusic
1634893047.53,fixation,2,67,,,NoMusic
1634893048.41,stimulus,1,559,,,RelaxSession
1634893048.91,fixation,1,559,,,RelaxSession
1634893049.03,stimulus,2,68,,,NoMusic
1634893049.53,fixation,2,68,,,NoMusic
1634893050.41,stimulus,1,560,,,RelaxSession
1634893050.91,fixation,1,560,,,RelaxSession
1634893051.03,stimulus,2,69,,,NoMusic
1634893051.53,fixation,2,69,,,NoMusic
1634893052.41,stimulus,1,561,,,RelaxSession
1634893052.91,fixation,1,561,,,RelaxSession
1634893053.03,stimulus,2,70,,,NoMusic
1634893053.53,fixation,2,70,,,NoMusic
1634893054.41,stimulus,1,562,,,RelaxSession
1634893054.91,fixation,1,562,,,RelaxSession
1634893055.03,stimulus,2,71,,,NoMusic
1634893055.53,fixation,2,71,,,NoMusic
1634893056.41,stimulus,1,563,,,RelaxSession
1634893056.91,fixation,1,563,,,RelaxSession
1634893057.03,stimulus,2,72,,,NoMusic
1634893057.53,fixation,2,72,,,NoMusic
1634893058.41,stimulus,1,564,,,RelaxSession
1634893058.91,fixation,1,564,,,RelaxSession
1634893059.03,stimulus,2,73,,,NoMusic
1634893059.53,fixation,2,73,,,NoMusic
1634893060.41,stimulus,1,565,,,RelaxSession
1634893060.91,fixation,1,565,,,RelaxSession
1634893061.03,stimulus,2,74,,,NoMusic
1634893061.53,fixation,2,74,,,NoMusic
1634893062.41,stimulus,1,566,,,RelaxSession
1634893062.91,fixation,1,566,,,RelaxSession
1634893063.03,stimulus,2,75,,,NoMusic
1634893063.53,fixation,2,75,,,NoMusic
1634893064.41,stimulus,1,567,,,RelaxSession
1634893064.91,fixation,1,567,,,RelaxSession
1634893065.03,stimulus,2,76,,,NoMusic
1634893065.53,fixation,2,76,,,NoMusic
1634893066.41,stimulus,1,568,,,RelaxSession
1634893066.91,fixation,1,568,,,RelaxSession
1634893067.03,stimulus,2,77,,,NoMusic
1634893067.53,fixation,2,77,,,NoMusic
1634893068.41,stimulus,1,569,,,RelaxSession
1634893068.91,fixation,1,569,,,RelaxSession
1634893069.03,stimulus,2,78,,,NoMusic
1634893069.53,fixation,2,78,,,NoMusic
1634893070.41,stimulus,1,570,,,RelaxSession
1634893070.91,fixation,1,570,,,RelaxSession
1634893071.03,stimulus,2,79,,,NoMusic
1634893071.53,fixation,2,79,,,NoMusic
1634893072.41,stimulus,1,571,,,RelaxSession
1634893072.91,fixation,1,571,,,RelaxSession
1634893073.03,stimulus,2,80,,,NoMusic
1634893073.53,fixation,2,80,,,NoMusic
1634893074.41,stimulus,1,572,,,RelaxSession
1634893074.91,fixation,1,572,,,RelaxSession
1634893075.03,stimulus,2,81,,,NoMusic
1634893075.53,fixation,2,81,,,NoMusic
1634893076.41,stimulus,1,573,,,RelaxSession
1634893076.91,fixation,1,573,,,RelaxSession
1634893077.03,stimulus,2,82,,,NoMusic
1634893077.53,fixation,2,82,,,NoMusic
1634893078.41,stimulus,1,574,,,RelaxSession
1634893078.91,fixation,1,574,,,RelaxSession
1634893079.03,stimulus,2,83,,,NoMusic
1634893079.53,fixation,2,83,,,NoMusic
1634893080.41,stimulus,1,575,,,RelaxSession
1634893080.91,fixation,1,575,,,RelaxSession
1634893081.03,stimulus,2,84,,,NoMusic
1634893081.53,fixation,2,84,,,NoMusic
1634893082.41,stimulus,1,576,,,RelaxSession
1634893082.91,fixation,1,576,,,RelaxSession
1634893083.03,stimulus,2,85,,,NoMusic
1634893083.53,fixation,2,85,,,NoMusic
1634893084.41,stimulus,1,577,,,RelaxSession
1634893084.91,fixation,1,577,,,RelaxSession
1634893085.03,stimulus,2,86,,,NoMusic
1634893085.53,fixation,2,86,,,NoMusic
1634893086.41,stimulus,1,578,,,RelaxSession
1634893086.91,fixation,1,578,,,RelaxSession
1634893087.03,stimulus,2,87,,,NoMusic
1634893087.53,fixation,2,87,,,NoMusic
1634893088.41,stimulus,1,579,,,RelaxSession
1634893088.91,fixation,1,579,,,RelaxSession
1634893089.03,stimulus,2,88,,,NoMusic
1634893089.53,fixation,2,88,,,NoMusic
1634893090.41,stimulus,1,580,,,RelaxSession
1634893090.91,fixation,1,580,,,RelaxSession
1634893091.03,stimulus,2,89,,,NoMusic
1634893091.53,fixation,2,89,,,NoMusic
1634893092.41,stimulus,1,581,,,RelaxSession
1634893092.91,fixation,1,581,,,RelaxSession
1634893093.03,stimulus,2,90,,,NoMusic
1634893093.53,fixation,2,90,,,NoMusic
1634893094.41,stimulus,1,582,,,RelaxSession
1634893094.91,fixation,1,582,,,RelaxSession
1634893095.03,stimulus,2,91,,,NoMusic
1634893095.53,fixation,2,91,,,NoMusic
1634893096.41,stimulus,1,583,,,RelaxSession
1634893096.91,fixation,1,583,,,RelaxSession
1634893097.03,stimulus,2,92,,,NoMusic
1634893097.53,fixation,2,92,,,NoMusic
1634893098.41,stimulus,1,584,,,RelaxSession
1634893098.91,fixation,1,584,,,RelaxSession
1634893099.03,stimulus,2,93,,,NoMusic
1634893099.53,fixation,2,93,,,NoMusic
1634893100.41,stimulus,1,585,,,RelaxSession
1634893100.91,fixation,1,585,,,RelaxSession
1634893101.03,stimulus,2,94,,,NoMusic
1634893101.53,fixation,2,94,,,NoMusic
1634893102.41,stimulus,1,586,,,RelaxSession
1634893102.91,fixation,1,586,,,RelaxSession
1634893103.03,stimulus,2,95,,,NoMusic
1634893103.53,fixation,2,95,,,NoMusic
1634893104.41,stimulus,1,587,,,RelaxSession
1634893104.91,fixation,1,587,,,RelaxSession
1634893105.03,stimulus,2,96,,,NoMusic
1634893105.53,fixation,2,96,,,NoMusic
1634893106.41,stimulus,1,588,,,RelaxSession
1634893106.91,fixation,1,588,,,RelaxSession
1634893107.03,stimulus,2,97,,,NoMusic
1634893107.53,fixation,2,97,,,NoMusic
1634893108.41,stimulus,1,589,,,RelaxSession
1634893108.91,fixation,1,589,,,RelaxSession
1634893109.03,stimulus,2,98,,,NoMusic
1634893109.53,fixation,2,98,,,NoMusic
1634893110.41,stimulus,1,590,,,RelaxSession
1634893110.91,fixation,1,590,,,RelaxSession
1634893111.03,stimulus,2,99,,,NoMusic
1634893111.53,fixation,2,99,,,NoMusic
1634893112.41,stimulus,1,591,,,RelaxSession
1634893112.91,fixation,1,591,,,RelaxSession
1634893113.03,stimulus,2,100,,,NoMusic
1634893113.53,fixation,2,100,,,NoMusic
1634893114.41,stimulus,1,592,,,RelaxSession
1634893114.91,fixation,1,592,,,RelaxSession
1634893115.03,stimulus,2,101,,,NoMusic
1634893115.53,fixation,2,101,,,NoMusic
1634893116.41,stimulus,1,593,,,RelaxSession
1634893116.91,fixation,1,593,,,RelaxSession
1634893117.03,stimulus,2,102,,,NoMusic
1634893117.53,fixation,2,102,,,NoMusic
1634893118.41,stimulus,1,594,,,RelaxSession
1634893118.91,fixation,1,594,,,RelaxSession
1634893119.03,stimulus,2,103,,,NoMusic
1634893119.53,fixation,2,103,,,NoMusic
1634893120.41,stimulus,1,595,,,RelaxSession
1634893120.91,fixation,1,595,,,RelaxSession
1634893121.03,stimulus,2,104,,,NoMusic
1634893121.53,fixation,2,104,,,NoMusic
1634893122.41,stimulus,1,596,,,RelaxSession
1634893122.91,fixation,1,596,,,RelaxSession
1634893123.03,stimulus,2,105,,,NoMusic
1634893123.53,fixation,2,105,,,NoMusic
1634893124.41,stimulus,1,597,,,RelaxSession
1634893124.91,fixation,1,597,,,RelaxSession
1634893125.03,stimulus,2,106,,,NoMusic
1634893125.53,fixation,2,106,,,NoMusic
1634893126.41,stimulus,1,598,,,RelaxSession
1634893126.91,fixation,1,598,,,RelaxSession
1634893127.03,stimulus,2,107,,,NoMusic
1634893127.53,fixation,2,107,,,NoMusic
1634893128.41,stimulus,1,599,,,RelaxSession
1634893128.91,fixation,1,599,,,RelaxSession
1634893129.03,stimulus,2,108,,,NoMusic
1634893129.53,fixation,2,108,,,NoMusic
1634893130.41,stimulus,1,600,,,RelaxSession
1634893130.91,fixation,1,600,,,RelaxSession
1634893131.03,stimulus,2,109,,,NoMusic
1634893131.53,fixation,2,109,,,NoMusic
1634893132.41,stimulus,1,601,,,RelaxSession
1634893132.91,fixation,1,601,,,RelaxSession
1634893133.03,stimulus,2,110,,,NoMusic
1634893133.53,fixation,2,110,,,NoMusic
1634893134.41,stimulus,1,602,,,RelaxSession
1634893134.91,fixation,1,602,,,RelaxSession
1634893135.03,stimulus,2,111,,,NoMusic
1634893135.53,fixation,2,111,,,NoMusic
1634893136.41,stimulus,1,603,,,RelaxSession
1634893136.91,fixation,1,603,,,RelaxSession
1634893137.03,stimulus,2,112,,,NoMusic
1634893137.53,fixation,2,112,,,NoMusic
1634893138.41,stimulus,1,604,,,RelaxSession
1634893138.91,fixation,1,604,,,RelaxSession
1634893139.03,stimulus,2,113,,,NoMusic
1634893139.53,fixation,2,113,,,NoMusic
1634893140.41,stimulus,1,605,,,RelaxSession
1634893140.91,fixation,1,605,,,RelaxSession
1634893141.03,stimulus,2,114,,,NoMusic
1634893141.53,fixation,2,114,,,NoMusic
1634893142.41,stimulus,1,606,,,RelaxSession
1634893142.91,fixation,1,606,,,RelaxSession
1634893143.03,stimulus,2,115,,,NoMusic
1634893143.53,fixation,2,115,,,NoMusic
1634893144.41,stimulus,1,607,,,RelaxSession
1634893144.91,fixation,1,607,,,RelaxSession
1634893145.03,stimulus,2,116,,,NoMusic
1634893145.53,fixation,2,116,,,NoMusic
1634893146.41,stimulus,1,608,,,RelaxSession
1634893146.91,fixation,1,608,,,RelaxSession
1634893147.03,stimulus,2,117,,,NoMusic
1634893147.53,fixation,2,117,,,NoMusic
1634893148.41,stimulus,1,609,,,RelaxSession
1634893148.91,fixation,1,609,,,RelaxSession
1634893149.03,stimulus,2,118,,,NoMusic
1634893149.53,fixation,2,118,,,NoMusic
1634893150.41,stimulus,1,610,,,RelaxSession
1634893150.91,fixation,1,610,,,RelaxSession
1634893151.03,stimulus,2,119,,,NoMusic
1634893151.53,fixation,2,119,,,NoMusic
1634893152.41,stimulus,1,611,,,RelaxSession
1634893152.91,fixation,1,611,,,RelaxSession
1634893153.03,stimulus,2,120,,,NoMusic
1634893153.53,fixation,2,120,,,NoMusic
1634893154.41,stimulus,1,612,,,RelaxSession
1634893154.91,fixation,1,612,,,RelaxSession
1634893155.03,stimulus,2,121,,,NoMusic
1634893155.53,fixation,2,121,,,NoMusic
1634893156.41,stimulus,1,613,,,RelaxSession
1634893156.91,fixation,1,613,,,RelaxSession
1634893157.03,stimulus,2,122,,,NoMusic
1634893157.53,fixation,2,122,,,NoMusic
1634893158.41,stimulus,1,614,,,RelaxSession
1634893158.91,fixation,1,614,,,RelaxSession
1634893159.03,stimulus,2,123,,,NoMusic
1634893159.53,fixation,2,123,,,NoMusic
1634893160.41,stimulus,1,615,,,RelaxSession
1634893160.91,fixation,1,615,,,RelaxSession
1634893161.03,stimulus,2,124,,,NoMusic
1634893161.53,fixation,2,124,,,NoMusic
1634893162.41,stimulus,1,616,,,RelaxSession
1634893162.91,fixation,1,616,,,RelaxSession
1634893163.03,stimulus,2,125,,,NoMusic
1634893163.53,fixation,2,125,,,NoMusic
1634893164.41,stimulus,1,617,,,RelaxSession
1634893164.91,fixation,1,617,,,RelaxSession
1634893165.03,stimulus,2,126,,,NoMusic
1634893165.53,fixation,2,126,,,NoMusic
1634893166.41,stimulus,1,618,,,RelaxSession
1634893166.91,fixation,1,618,,,RelaxSession
1634893167.03,stimulus,2,127,,,NoMusic
1634893167.53,fixation,2,127,,,NoMusic
1634893168.41,stimulus,1,619,,,RelaxSession
1634893168.91,fixation,1,619,,,RelaxSession
1634893169.03,stimulus,2,128,,,NoMusic
1634893169.53,fixation,2,128,,,NoMusic
1634893170.41,stimulus,1,620,,,RelaxSession
1634893170.91,fixation,1,620,,,RelaxSession
1634893171.03,stimulus,2,129,,,NoMusic
1634893171.53,fixation,2,129,,,NoMusic
1634893172.41,stimulus,1,621,,,RelaxSession
1634893172.91,fixation,1,621,,,RelaxSession
1634893173.03,stimulus,2,130,,,NoMusic
1634893173.53,fixation,2,130,,,NoMusic
1634893174.41,stimulus,1,622,,,RelaxSession
1634893174.91,fixation,1,622,,,RelaxSession
1634893175.03,stimulus,2,131,,,NoMusic
1634893175.53,fixation,2,131,,,NoMusic
1634893176.41,stimulus,1,623,,,RelaxSession
1634893176.91,fixation,1,623,,,RelaxSession
1634893177.03,stimulus,2,132,,,NoMusic
1634893177.53,fixation,2,132,,,NoMusic
1634893178.41,stimulus,1,624,,,RelaxSession
1634893178.91,fixation,1,624,,,RelaxSession
1634893179.03,stimulus,2,133,,,NoMusic
1634893179.53,fixation,2,133,,,NoMusic
1634893180.41,stimulus,1,625,,,RelaxSession
1634893180.91,fixation,1,625,,,RelaxSession
1634893181.03,stimulus,2,134,,,NoMusic
1634893181.53,fixation,2,134,,,NoMusic
1634893182.41,stimulus,1,626,,,RelaxSession
1634893182.91,fixation,1,626,,,RelaxSession
1634893183.03,stimulus,2,135,,,NoMusic
1634893183.53,fixation,2,135,,,NoMusic
1634893184.41,stimulus,1,627,,,RelaxSession
1634893184.91,fixation,1,627,,,RelaxSession
1634893185.03,stimulus,2,136,,,NoMusic
1634893185.53,fixation,2,136,,,NoMusic
1634893186.41,stimulus,1,628,,,RelaxSession
1634893186.91,fixation,1,628,,,RelaxSession
1634893187.03,stimulus,2,137,,,NoMusic
1634893187.53,fixation,2,137,,,NoMusic
1634893188.41,stimulus,1,629,,,RelaxSession
1634893188.91,fixation,1,629,,,RelaxSession
1634893189.03,stimulus,2,138,,,NoMusic
1634893189.53,fixation,2,138,,,NoMusic
1634893190.41,stimulus,1,630,,,RelaxSession
1634893190.91,fixation,1,630,,,RelaxSession
1634893191.03,stimulus,2,139,,,NoMusic
1634893191.53,fixation,2,139,,,NoMusic
1634893192.41,stimulus,1,631,,,RelaxSession
1634893192.91,fixation,1,631,,,RelaxSession
1634893193.03,stimulus,2,140,,,NoMusic
1634893193.53,fixation,2,140,,,NoMusic
1634893194.41,stimulus,1,632,,,RelaxSession
1634893194.91,fixation,1,632,,,RelaxSession
1634893195.03,stimulus,2,141,,,NoMusic
1634893195.53,fixation,2,141,,,NoMusic
1634893196.41,stimulus,1,633,,,RelaxSession
1634893196.91,fixation,1,633,,,RelaxSession
1634893197.03,stimulus,2,142,,,NoMusic
1634893197.53,fixation,2,142,,,NoMusic
1634893198.41,stimulus,1,634,,,RelaxSession
1634893198.91,fixation,1,634,,,RelaxSession
1634893199.03,stimulus,2,143,,,NoMusic
1634893199.53,fixation,2,143,,,NoMusic
1634893200.41,stimulus,1,635,,,RelaxSession
1634893200.91,fixation,1,635,,,RelaxSession
1634893201.03,stimulus,2,144,,,NoMusic
1634893201.53,fixation,2,144,,,NoMusic
1634893202.41,stimulus,1,636,,,RelaxSession
1634893202.91,fixation,1,636,,,RelaxSession
1634893203.03,stimulus,2,145,,,NoMusic
1634893203.53,fixation,2,145,,,NoMusic
1634893204.41,stimulus,1,637,,,RelaxSession
1634893204.91,fixation,1,637,,,RelaxSession
1634893205.03,stimulus,2,146,,,NoMusic
1634893205.53,fixation,2,146,,,NoMusic
1634893206.41,stimulus,1,638,,,RelaxSession
1634893206.91,fixation,1,638,,,RelaxSession
1634893207.03,stimulus,2,147,,,NoMusic
1634893207.53,fixation,2,147,,,NoMusic
1634893208.41,stimulus,1,639,,,RelaxSession
1634893208.91,fixation,1,639,,,RelaxSession
1634893209.03,stimulus,2,148,,,NoMusic
1634893209.53,fixation,2,148,,,NoMusic
1634893210.41,stimulus,1,640,,,RelaxSession
1634893210.91,fixation,1,640,,,RelaxSession
1634893211.03,stimulus,2,149,,,NoMusic
1634893211.53,fixation,2,149,,,NoMusic
1634893212.41,stimulus,1,641,,,RelaxSession
1634893212.91,fixation,1,641,,,RelaxSession
1634893213.03,stimulus,2,150,,,NoMusic
1634893213.53,fixation,2,150,,,NoMusic
1634893214.41,stimulus,1,642,,,RelaxSession
1634893214.91,fixation,1,642,,,RelaxSession
1634893215.03,stimulus,2,151,,,NoMusic
1634893215.53,fixation,2,151,,,NoMusic
1634893216.41,stimulus,1,643,,,RelaxSession
1634893216.91,fixation,1,643,,,RelaxSession
1634893217.03,stimulus,2,152,,,NoMusic
1634893217.53,fixation,2,152,,,NoMusic
1634893218.41,stimulus,1,644,,,RelaxSession
1634893218.91,fixation,1,644,,,RelaxSession
1634893219.03,stimulus,2,153,,,NoMusic
1634893219.53,fixation,2,153,,,NoMusic
1634893220.41,stimulus,1,645,,,RelaxSession
1634893220.91,fixation,1,645,,,RelaxSession
1634893221.03,stimulus,2,154,,,NoMusic
1634893221.53,fixation,2,154,,,NoMusic
1634893222.41,stimulus,1,646,,,RelaxSession
1634893222.91,fixation,1,646,,,RelaxSession
1634893223.03,stimulus,2,155,,,NoMusic
1634893223.53,fixation,2,155,,,NoMusic
1634893224.41,stimulus,1,647,,,RelaxSession
1634893224.91,fixation,1,647,,,RelaxSession
1634893225.03,stimulus,2,156,,,NoMusic
1634893225.53,fixation,2,156,,,NoMusic
1634893226.41,stimulus,1,648,,,RelaxSession
1634893226.91,fixation,1,648,,,RelaxSession
1634893227.03,stimulus,2,157,,,NoMusic
1634893227.53,fixation,2,157,,,NoMusic
1634893228.41,stimulus,1,649,,,RelaxSession
1634893228.91,fixation,1,649,,,RelaxSession
1634893229.03,stimulus,2,158,,,NoMusic
1634893229.53,fixation,2,158,,,NoMusic
1634893230.41,stimulus,1,650,,,RelaxSession
1634893230.91,fixation,1,650,,,RelaxSession
1634893231.03,stimulus,2,159,,,NoMusic
1634893231.53,fixation,2,159,,,NoMusic
1634893232.41,stimulus,1,651,,,RelaxSession
1634893232.91,fixation,1,651,,,RelaxSession
1634893233.03,stimulus,2,160,,,NoMusic
1634893233.53,fixation,2,160,,,NoMusic
1634893234.41,stimulus,1,652,,,RelaxSession
1634893234.91,fixation,1,652,,,RelaxSession
1634893235.03,stimulus,2,161,,,NoMusic
1634893235.53,fixation,2,161,,,NoMusic
1634893236.41,stimulus,1,653,,,RelaxSession
1634893236.91,fixation,1,653,,,RelaxSession
1634893237.03,stimulus,2,162,,,NoMusic
1634893237.53,fixation,2,162,,,NoMusic
1634893238.41,stimulus,1,654,,,RelaxSession
1634893238.91,fixation,1,654,,,RelaxSession
1634893239.03,stimulus,2,163,,,NoMusic
1634893239.53,fixation,2,163,,,NoMusic
1634893240.41,stimulus,1,655,,,RelaxSession
1634893240.91,fixation,1,655,,,RelaxSession
1634893241.03,stimulus,2,164,,,NoMusic
1634893241.53,fixation,2,164,,,NoMusic
1634893242.41,stimulus,1,656,,,RelaxSession
1634893242.91,fixation,1,656,,,RelaxSession
1634893243.03,stimulus,2,165,,,NoMusic
1634893243.53,fixation,2,165,,,NoMusic
1634893244.41,stimulus,1,657,,,RelaxSession
1634893244.91,fixation,1,657,,,RelaxSession
1634893245.03,stimulus,2,166,,,NoMusic
1634893245.53,fixation,2,166,,,NoMusic
1634893246.41,stimulus,1,658,,,RelaxSession
1634893246.91,fixation,1,658,,,RelaxSession
1634893247.03,stimulus,2,167,,,NoMusic
1634893247.53,fixation,2,167,,,NoMusic
1634893248.41,stimulus,1,659,,,RelaxSession
1634893248.91,fixation,1,659,,,RelaxSession
1634893249.03,stimulus,2,168,,,NoMusic
1634893249.53,fixation,2,168,,,NoMusic
1634893250.41,stimulus,1,660,,,RelaxSession
1634893250.91,fixation,1,660,,,RelaxSession
1634893251.03,stimulus,2,169,,,NoMusic
1634893251.53,fixation,2,169,,,NoMusic
1634893252.41,stimulus,1,661,,,RelaxSession
1634893252.91,fixation,1,661,,,RelaxSession
1634893253.03,stimulus,2,170,,,NoMusic
1634893253.53,fixation,2,170,,,NoMusic
1634893254.41,stimulus,1,662,,,RelaxSession
1634893254.91,fixation,1,662,,,RelaxSession
1634893255.03,stimulus,2,171,,,NoMusic
1634893255.53,fixation,2,171,,,NoMusic
1634893256.41,stimulus,1,663,,,RelaxSession
1634893256.91,fixation,1,663,,,RelaxSession
1634893257.03,stimulus,2,172,,,NoMusic
1634893257.53,fixation,2,172,,,NoMusic
1634893258.41,stimulus,1,664,,,RelaxSession
1634893258.91,fixation,1,664,,,RelaxSession
1634893259.03,stimulus,2,173,,,NoMusic
1634893259.53,fixation,2,173,,,NoMusic
1634893260.41,stimulus,1,665,,,RelaxSession
1634893260.91,fixation,1,665,,,RelaxSession
1634893261.03,stimulus,2,174,,,NoMusic
1634893261.53,fixation,2,174,,,NoMusic
1634893262.41,stimulus,1,666,,,RelaxSession
1634893262.91,fixation,1,666,,,RelaxSession
1634893263.03,stimulus,2,175,,,NoMusic
1634893263.53,fixation,2,175,,,NoMusic
1634893264.41,stimulus,1,667,,,RelaxSession
1634893264.91,fixation,1,667,,,RelaxSession
1634893265.03,stimulus,2,176,,,NoMusic
1634893265.53,fixation,2,176,,,NoMusic
1634893266.41,stimulus,1,668,,,RelaxSession
1634893266.91,fixation,1,668,,,RelaxSession
1634893267.03,stimulus,2,177,,,NoMusic
1634893267.53,fixation,2,177,,,NoMusic
1634893268.41,stimulus,1,669,,,RelaxSession
1634893268.91,fixation,1,669,,,RelaxSession
1634893269.03,stimulus,2,178,,,NoMusic
1634893269.53,fixation,2,178,,,NoMusic
1634893270.41,stimulus,1,670,,,RelaxSession
1634893270.91,fixation,1,670,,,RelaxSession
1634893271.03,stimulus,2,179,,,NoMusic
1634893271.53,fixation,2,179,,,NoMusic
1634893272.41,stimulus,1,671,,,RelaxSession
1634893272.91,fixation,1,671,,,RelaxSession
1634893273.03,stimulus,2,180,,,NoMusic
1634893273.53,fixation,2,180,,,NoMusic
1634893274.41,stimulus,1,672,,,RelaxSession
1634893274.91,fixation,1,672,,,RelaxSession
1634893275.03,stimulus,2,181,,,NoMusic
1634893275.53,fixation,2,181,,,NoMusic
1634893276.41,stimulus,1,673,,,RelaxSession
1634893276.91,fixation,1,673,,,RelaxSession
1634893277.03,stimulus,2,182,,,NoMusic
1634893277.53,fixation,2,182,,,NoMusic
1634893278.41,stimulus,1,674,,,RelaxSession
1634893278.91,fixation,1,674,,,RelaxSession
1634893279.03,stimulus,2,183,,,NoMusic
1634893279.53,fixation,2,183,,,NoMusic
1634893280.41,stimulus,1,675,,,RelaxSession
1634893280.91,fixation,1,675,,,RelaxSession
1634893281.03,stimulus,2,184,,,NoMusic
1634893281.53,fixation,2,184,,,NoMusic
1634893282.41,stimulus,1,676,,,RelaxSession
1634893282.91,fixation,1,676,,,RelaxSession
1634893283.03,stimulus,2,185,,,NoMusic
1634893283.53,fixation,2,185,,,NoMusic
1634893284.41,stimulus,1,677,,,RelaxSession
1634893284.91,fixation,1,677,,,RelaxSession
1634893285.03,stimulus,2,186,,,NoMusic
1634893285.53,fixation,2,186,,,NoMusic
1634893286.41,stimulus,1,678,,,RelaxSession
1634893286.91,fixation,1,678,,,RelaxSession
1634893287.03,stimulus,2,187,,,NoMusic
1634893287.53,fixation,2,187,,,NoMusic
1634893288.41,stimulus,1,679,,,RelaxSession
1634893288.91,fixation,1,679,,,RelaxSession
1634893289.03,stimulus,2,188,,,NoMusic
1634893289.53,fixation,2,188,,,NoMusic
1634893290.41,stimulus,1,680,,,RelaxSession
1634893290.91,fixation,1,680,,,RelaxSession
1634893291.03,stimulus,2,189,,,NoMusic
1634893291.53,fixation,2,189,,,NoMusic
1634893292.41,stimulus,1,681,,,RelaxSession
1634893292.91,fixation,1,681,,,RelaxSession
1634893293.03,stimulus,2,190,,,NoMusic
1634893293.53,fixation,2,190,,,NoMusic
1634893294.41,stimulus,1,682,,,RelaxSession
1634893294.91,fixation,1,682,,,RelaxSession
1634893295.03,stimulus,2,191,,,NoMusic
1634893295.53,fixation,2,191,,,NoMusic
1634893296.41,stimulus,1,683,,,RelaxSession
1634893296.91,fixation,1,683,,,RelaxSession
1634893297.03,stimulus,2,192,,,NoMusic
1634893297.53,fixation,2,192,,,NoMusic
1634893298.41,stimulus,1,684,,,RelaxSession
1634893298.91,fixation,1,684,,,RelaxSession
1634893299.03,stimulus,2,193,,,NoMusic
1634893299.53,fixation,2,193,,,NoMusic
1634893300.41,stimulus,1,685,,,RelaxSession
1634893300.91,fixation,1,685,,,RelaxSession
1634893301.03,stimulus,2,194,,,NoMusic
1634893301.53,fixation,2,194,,,NoMusic
1634893302.41,stimulus,1,686,,,RelaxSession
1634893302.91,fixation,1,686,,,RelaxSession
1634893303.03,stimulus,2,195,,,NoMusic
1634893303.53,fixation,2,195,,,NoMusic
1634893304.41,stimulus,1,687,,,RelaxSession
1634893304.91,fixation,1,687,,,RelaxSession
1634893305.03,stimulus,2,196,,,NoMusic
1634893305.53,fixation,2,196,,,NoMusic
1634893306.41,stimulus,1,688,,,RelaxSession
1634893306.91,fixation,1,688,,,RelaxSession
1634893307.03,stimulus,2,197,,,NoMusic
1634893307.53,fixation,2,197,,,NoMusic
1634893308.41,stimulus,1,689,,,RelaxSession
1634893308.91,fixation,1,689,,,RelaxSession
1634893309.03,stimulus,2,198,,,NoMusic
1634893309.53,fixation,2,198,,,NoMusic
1634893310.41,stimulus,1,690,,,RelaxSession
1634893310.91,fixation,1,690,,,RelaxSession
1634893311.03,stimulus,2,199,,,NoMusic
1634893311.53,fixation,2,199,,,NoMusic
1634893312.41,stimulus,1,691,,,RelaxSession
1634893312.91,fixation,1,691,,,RelaxSession
1634893313.03,stimulus,2,200,,,NoMusic
1634893313.53,fixation,2,200,,,NoMusic
1634893314.41,stimulus,1,692,,,RelaxSession
1634893314.91,fixation,1,692,,,RelaxSession
1634893315.03,stimulus,2,201,,,NoMusic
1634893315.53,fixation,2,201,,,NoMusic
1634893316.41,stimulus,1,693,,,RelaxSession
1634893316.91,fixation,1,693,,,RelaxSession
1634893317.03,stimulus,2,202,,,NoMusic
1634893317.53,fixation,2,202,,,NoMusic
1634893318.41,stimulus,1,694,,,RelaxSession
1634893318.91,fixation,1,694,,,RelaxSession
1634893319.03,stimulus,2,203,,,NoMusic
1634893319.53,fixation,2,203,,,NoMusic
1634893320.41,stimulus,1,695,,,RelaxSession
1634893320.91,fixation,1,695,,,RelaxSession
1634893321.03,stimulus,2,204,,,NoMusic
1634893321.53,fixation,2,204,,,NoMusic
1634893322.41,stimulus,1,696,,,RelaxSession
1634893322.91,fixation,1,696,,,RelaxSession
1634893323.03,stimulus,2,205,,,NoMusic
1634893323.53,fixation,2,205,,,NoMusic
1634893324.41,stimulus,1,697,,,RelaxSession
1634893324.91,fixation,1,697,,,RelaxSession
1634893325.03,stimulus,2,206,,,NoMusic
1634893325.53,fixation,2,206,,,NoMusic
1634893326.41,stimulus,1,698,,,RelaxSession
1634893326.91,fixation,1,698,,,RelaxSession
1634893327.03,stimulus,2,207,,,NoMusic
1634893327.53,fixation,2,207,,,NoMusic
1634893328.41,stimulus,1,699,,,RelaxSession
1634893328.91,fixation,1,699,,,RelaxSession
1634893329.03,stimulus,2,208,,,NoMusic
1634893329.53,fixation,2,208,,,NoMusic
1634893330.41,stimulus,1,700,,,RelaxSession
1634893330.91,fixation,1,700,,,RelaxSession
1634893331.03,stimulus,2,209,,,NoMusic
1634893331.53,fixation,2,209,,,NoMusic
1634893332.41,stimulus,1,701,,,RelaxSession
1634893332.91,fixation,1,701,,,RelaxSession
1634893333.03,stimulus,2,210,,,NoMusic
1634893333.53,fixation,2,210,,,NoMusic
1634893334.41,stimulus,1,702,,,RelaxSession
1634893334.91,fixation,1,702,,,RelaxSession
1634893335.03,stimulus,2,211,,,NoMusic
1634893335.53,fixation,2,211,,,NoMusic
1634893336.41,stimulus,1,703,,,RelaxSession
1634893336.91,fixation,1,703,,,RelaxSession
1634893337.03,stimulus,2,212,,,NoMusic
1634893337.53,fixation,2,212,,,NoMusic
1634893338.41,stimulus,1,704,,,RelaxSession
1634893338.91,fixation,1,704,,,RelaxSession
1634893339.03,stimulus,2,213,,,NoMusic
1634893339.53,fixation,2,213,,,NoMusic
1634893340.41,stimulus,1,705,,,RelaxSession
1634893340.91,fixation,1,705,,,RelaxSession
1634893341.03,stimulus,2,214,,,NoMusic
1634893341.53,fixation,2,214,,,NoMusic
1634893342.41,stimulus,1,706,,,RelaxSession
1634893342.91,fixation,1,706,,,RelaxSession
1634893343.03,stimulus,2,215,,,NoMusic
1634893343.53,fixation,2,215,,,NoMusic
1634893344.41,stimulus,1,707,,,RelaxSession
1634893344.91,fixation,1,707,,,RelaxSession
1634893345.03,stimulus,2,216,,,NoMusic
1634893345.53,fixation,2,216,,,NoMusic
1634893346.41,stimulus,1,708,,,RelaxSession
1634893346.91,fixation,1,708,,,RelaxSession
1634893347.03,stimulus,2,217,,,NoMusic
1634893347.53,fixation,2,217,,,NoMusic
1634893348.41,stimulus,1,709,,,RelaxSession
1634893348.91,fixation,1,709,,,RelaxSession
1634893349.03,stimulus,2,218,,,NoMusic
1634893349.53,fixation,2,218,,,NoMusic
1634893350.41,stimulus,1,710,,,RelaxSession
1634893350.91,fixation,1,710,,,RelaxSession
1634893351.03,stimulus,2,219,,,NoMusic
1634893351.53,fixation,2,219,,,NoMusic
1634893352.41,stimulus,1,711,,,RelaxSession
1634893352.91,fixation,1,711,,,RelaxSession
1634893353.03,stimulus,2,220,,,NoMusic
1634893353.53,fixation,2,220,,,NoMusic
1634893354.41,stimulus,1,712,,,RelaxSession
1634893354.91,fixation,1,712,,,RelaxSession
1634893355.03,stimulus,2,221,,,NoMusic
1634893355.53,fixation,2,221,,,NoMusic
1634893356.41,stimulus,1,713,,,RelaxSession
1634893356.91,fixation,1,713,,,RelaxSession
1634893357.03,stimulus,2,222,,,NoMusic
1634893357.53,fixation,2,222,,,NoMusic
1634893358.41,stimulus,1,714,,,RelaxSession
1634893358.91,fixation,1,714,,,RelaxSession
1634893359.03,stimulus,2,223,,,NoMusic
1634893359.53,fixation,2,223,,,NoMusic
1634893360.41,stimulus,1,715,,,RelaxSession
1634893360.91,fixation,1,715,,,RelaxSession
1634893361.03,stimulus,2,224,,,NoMusic
1634893361.53,fixation,2,224,,,NoMusic
1634893362.41,stimulus,1,716,,,RelaxSession
1634893362.91,fixation,1,716,,,RelaxSession
1634893363.03,stimulus,2,225,,,NoMusic
1634893363.53,fixation,2,225,,,NoMusic
1634893364.41,stimulus,1,717,,,RelaxSession
1634893364.91,fixation,1,717,,,RelaxSession
1634893365.03,stimulus,2,226,,,NoMusic
1634893365.53,fixation,2,226,,,NoMusic
1634893366.41,stimulus,1,718,,,RelaxSession
1634893366.91,fixation,1,718,,,RelaxSession
1634893367.03,stimulus,2,227,,,NoMusic
1634893367.53,fixation,2,227,,,NoMusic
1634893368.41,stimulus,1,719,,,RelaxSession
1634893368.91,fixation,1,719,,,RelaxSession
1634893369.03,stimulus,2,228,,,NoMusic
1634893369.53,fixation,2,228,,,NoMusic
1634893370.41,stimulus,1,720,,,RelaxSession
1634893370.91,fixation,1,720,,,RelaxSession
1634893371.03,stimulus,2,229,,,NoMusic
1634893371.53,fixation,2,229,,,NoMusic
1634893372.41,stimulus,1,721,,,RelaxSession
1634893372.91,fixation,1,721,,,RelaxSession
1634893373.03,stimulus,2,230,,,NoMusic
1634893373.53,fixation,2,230,,,NoMusic
1634893374.41,stimulus,1,722,,,RelaxSession
1634893374.91,fixation,1,722,,,RelaxSession
1634893375.03,stimulus,2,231,,,NoMusic
1634893375.53,fixation,2,231,,,NoMusic
1634893376.41,stimulus,1,723,,,RelaxSession
1634893376.91,fixation,1,723,,,RelaxSession
1634893377.03,stimulus,2,232,,,NoMusic
1634893377.53,fixation,2,232,,,NoMusic
1634893378.41,stimulus,1,724,,,RelaxSession
1634893378.91,fixation,1,724,,,RelaxSession
1634893379.03,stimulus,2,233,,,NoMusic
1634893379.53,fixation,2,233,,,NoMusic
1634893380.41,stimulus,1,725,,,RelaxSession
1634893380.91,fixation,1,725,,,RelaxSession
1634893381.03,stimulus,2,234,,,NoMusic
1634893381.53,fixation,2,234,,,NoMusic
1634893382.41,stimulus,1,726,,,RelaxSession
1634893382.91,fixation,1,726,,,RelaxSession
1634893383.03,stimulus,2,235,,,NoMusic
1634893383.53,fixation,2,235,,,NoMusic
1634893384.41,stimulus,1,727,,,RelaxSession
1634893384.91,fixation,1,727,,,RelaxSession
1634893385.03,stimulus,2,236,,,NoMusic
1634893385.53,fixation,2,236,,,NoMusic
1634893386.41,stimulus,1,728,,,RelaxSession
1634893386.91,fixation,1,728,,,RelaxSession
1634893387.03,stimulus,2,237,,,NoMusic
1634893387.53,fixation,2,237,,,NoMusic
1634893388.41,stimulus,1,729,,,RelaxSession
1634893388.91,fixation,1,729,,,RelaxSession
1634893389.03,stimulus,2,238,,,NoMusic
1634893389.53,fixation,2,238,,,NoMusic
1634893390.41,stimulus,1,730,,,RelaxSession
1634893390.91,fixation,1,730,,,RelaxSession
1634893391.03,stimulus,2,239,,,NoMusic
1634893391.53,fixation,2,239,,,NoMusic
1634893392.41,stimulus,1,731,,,RelaxSession
1634893392.91,fixation,1,731,,,RelaxSession
1634893393.03,stimulus,2,240,,,NoMusic
1634893393.53,fixation,2,240,,,NoMusic
1634893394.41,stimulus,1,732,,,RelaxSession
1634893394.91,fixation,1,732,,,RelaxSession
1634893395.03,stimulus,2,241,,,NoMusic
1634893395.53,fixation,2,241,,,NoMusic
1634893396.41,stimulus,1,733,,,RelaxSession
1634893396.91,fixation,1,733,,,RelaxSession
1634893397.03,stimulus,2,242,,,NoMusic
1634893397.53,fixation,2,242,,,NoMusic
1634893398.41,stimulus,1,734,,,RelaxSession
1634893398.91,fixation,1,734,,,RelaxSession
1634893399.03,stimulus,2,243,,,NoMusic
1634893399.53,fixation,2,243,,,NoMusic
1634893400.41,stimulus,1,735,,,RelaxSession
1634893400.91,fixation,1,735,,,RelaxSession
1634893401.03,stimulus,2,244,,,NoMusic
1634893401.53,fixation,2,244,,,NoMusic
1634893402.41,stimulus,1,736,,,RelaxSession
1634893402.91,fixation,1,736,,,RelaxSession
1634893403.03,stimulus,2,245,,,NoMusic
1634893403.53,fixation,2,245,,,NoMusic
1634893404.41,stimulus,1,737,,,RelaxSession
1634893404.91,fixation,1,737,,,RelaxSession
1634893405.03,stimulus,2,246,,,NoMusic
1634893405.53,fixation,2,246,,,NoMusic
1634893406.41,stimulus,1,738,,,RelaxSession
1634893406.91,fixation,1,738,,,RelaxSession
1634893407.03,stimulus,2,247,,,NoMusic
1634893407.53,fixation,2,247,,,NoMusic
1634893408.41,stimulus,1,739,,,RelaxSession
1634893408.91,fixation,1,739,,,RelaxSession
1634893409.03,stimulus,2,248,,,NoMusic
1634893409.53,fixation,2,248,,,NoMusic
1634893410.41,stimulus,1,740,,,RelaxSession
1634893410.91,fixation,1,740,,,RelaxSession
1634893411.03,stimulus,2,249,,,NoMusic
1634893411.53,fixation,2,249,,,NoMusic
1634893412.41,stimulus,1,741,,,RelaxSession
1634893412.91,fixation,1,741,,,RelaxSession
1634893413.03,stimulus,2,250,,,NoMusic
1634893413.53,fixation,2,250,,,NoMusic
1634893414.41,stimulus,1,742,,,RelaxSession
1634893414.91,fixation,1,742,,,RelaxSession
1634893415.03,stimulus,2,251,,,NoMusic
1634893415.53,fixation,2,251,,,NoMusic
1634893416.41,stimulus,1,743,,,RelaxSession
1634893416.91,fixation,1,743,,,RelaxSession
1634893417.03,stimulus,2,252,,,NoMusic
1634893417.53,fixation,2,252,,,NoMusic
1634893418.41,stimulus,1,744,,,RelaxSession
1634893418.91,fixation,1,744,,,RelaxSession
1634893419.03,stimulus,2,253,,,NoMusic
1634893419.53,fixation,2,253,,,NoMusic
1634893420.41,stimulus,1,745,,,RelaxSession
1634893420.91,fixation,1,745,,,RelaxSession
1634893421.03,stimulus,2,254,,,NoMusic
1634893421.53,fixation,2,254,,,NoMusic
1634893422.41,stimulus,1,746,,,RelaxSession
1634893422.91,fixation,1,746,,,RelaxSession
1634893423.03,stimulus,2,255,,,NoMusic
1634893423.53,fixation,2,255,,,NoMusic
1634893424.41,stimulus,1,747,,,RelaxSession
1634893424.91,fixation,1,747,,,RelaxSession
1634893425.03,stimulus,2,256,,,NoMusic
1634893425.53,fixation,2,256,,,NoMusic
1634893426.41,stimulus,1,748,,,RelaxSession
1634893426.91,fixation,1,748,,,RelaxSession
1634893427.03,stimulus,2,257,,,NoMusic
1634893427.53,fixation,2,257,,,NoMusic
1634893428.41,stimulus,1,749,,,RelaxSession
1634893428.91,fixation,1,749,,,RelaxSession
1634893429.03,stimulus,2,258,,,NoMusic
1634893429.53,fixation,2,258,,,NoMusic
1634893430.41,stimulus,1,750,,,RelaxSession
1634893430.91,fixation,1,750,,,RelaxSession
1634893431.03,stimulus,2,259,,,NoMusic
1634893431.53,fixation,2,259,,,NoMusic
1634893432.41,stimulus,1,751,,,StressSession
1634893432.91,fixation,1,751,,,StressSession
1634893433.03,stimulus,2,260,,,NoMusic
1634893433.53,fixation,2,260,,,NoMusic
1634893434.41,stimulus,1,752,,,StressSession
1634893434.91,fixation,1,752,,,StressSession
1634893435.03,stimulus,2,261,,,NoMusic
1634893435.53,fixation,2,261,,,NoMusic
1634893436.41,stimulus,1,753,,,StressSession
1634893436.91,fixation,1,753,,,StressSession
1634893437.03,stimulus,2,262,,,NoMusic
1634893437.53,fixation,2,262,,,NoMusic
1634893438.41,stimulus,1,754,,,StressSession
1634893438.91,fixation,1,754,,,StressSession
1634893439.03,stimulus,2,263,,,NoMusic
1634893439.53,fixation,2,263,,,NoMusic
1634893440.41,stimulus,1,755,,,StressSession
1634893440.91,fixation,1,755,,,StressSession
1634893441.03,stimulus,2,264,,,NoMusic
1634893441.53,fixation,2,264,,,NoMusic
1634893442.41,stimulus,1,756,,,StressSession
1634893442.91,fixation,1,756,,,StressSession
1634893443.03,stimulus,2,265,,,NoMusic
1634893443.53,fixation,2,265,,,NoMusic
1634893444.41,stimulus,1,757,,,StressSession
1634893444.91,fixation,1,757,,,StressSession
1634893445.03,stimulus,2,266,,,NoMusic
1634893445.53,fixation,2,266,,,NoMusic
1634893446.41,stimulus,1,758,,,StressSession
1634893446.91,fixation,1,758,,,StressSession
1634893447.03,stimulus,2,267,,,NoMusic
1634893447.53,fixation,2,267,,,NoMusic
1634893448.41,stimulus,1,759,,,StressSession
1634893448.91,fixation,1,759,,,StressSession
1634893449.03,stimulus,2,268,,,NoMusic
1634893449.53,fixation,2,268,,,NoMusic
1634893450.41,stimulus,1,760,,,StressSession
1634893450.91,fixation,1,760,,,StressSession
1634893451.03,stimulus,2,269,,,NoMusic
1634893451.53,fixation,2,269,,,NoMusic
1634893452.41,stimulus,1,761,,,StressSession
1634893452.91,fixation,1,761,,,StressSession
1634893453.03,stimulus,2,270,,,NoMusic
1634893453.53,fixation,2,270,,,NoMusic
1634893454.41,stimulus,1,762,,,StressSession
1634893454.91,fixation,1,762,,,StressSession
1634893455.03,stimulus,2,271,,,NoMusic
1634893455.53,fixation,2,271,,,NoMusic
1634893456.41,stimulus,1,763,,,StressSession
1634893456.91,fixation,1,763,,,StressSession
1634893457.03,stimulus,2,272,,,NoMusic
1634893457.53,fixation,2,272,,,NoMusic
1634893458.41,stimulus,1,764,,,StressSession
1634893458.91,fixation,1,764,,,StressSession
1634893459.03,stimulus,2,273,,,NoMusic
1634893459.53,fixation,2,273,,,NoMusic
1634893460.41,stimulus,1,765,,,StressSession
1634893460.91,fixation,1,765,,,StressSession
1634893461.03,stimulus,2,274,,,NoMusic
1634893461.53,fixation,2,274,,,NoMusic
1634893462.41,stimulus,1,766,,,StressSession
1634893462.91,fixation,1,766,,,StressSession
1634893463.03,stimulus,2,275,,,NoMusic
1634893463.53,fixation,2,275,,,NoMusic
1634893464.41,stimulus,1,767,,,StressSession
1634893464.91,fixation,1,767,,,StressSession
1634893465.03,stimulus,2,276,,,NoMusic
1634893465.53,fixation,2,276,,,NoMusic
1634893466.41,stimulus,1,768,,,StressSession
1634893466.91,fixation,1,768,,,StressSession
1634893467.03,stimulus,2,277,,,NoMusic
1634893467.53,fixation,2,277,,,NoMusic
1634893468.41,stimulus,1,769,,,StressSession
1634893468.91,fixation,1,769,,,StressSession
1634893469.03,stimulus,2,278,,,NoMusic
1634893469.53,fixation,2,278,,,NoMusic
1634893470.41,stimulus,1,770,,,StressSession
1634893470.91,fixation,1,770,,,StressSession
1634893471.03,stimulus,2,279,,,NoMusic
1634893471.53,fixation,2,279,,,NoMusic
1634893472.41,stimulus,1,771,,,StressSession
1634893472.91,fixation,1,771,,,StressSession
1634893473.03,stimulus,2,280,,,NoMusic
1634893473.53,fixation,2,280,,,NoMusic
1634893474.41,stimulus,1,772,,,StressSession
1634893474.91,fixation,1,772,,,StressSession
1634893475.03,stimulus,2,281,,,NoMusic
1634893475.53,fixation,2,281,,,NoMusic
1634893476.41,stimulus,1,773,,,StressSession
1634893476.91,fixation,1,773,,,StressSession
1634893477.03,stimulus,2,282,,,NoMusic
1634893477.53,fixation,2,282,,,NoMusic
1634893478.41,stimulus,1,774,,,StressSession
1634893478.91,fixation,1,774,,,StressSession
1634893479.03,stimulus,2,283,,,NoMusic
1634893479.53,fixation,2,283,,,NoMusic
1634893480.41,stimulus,1,775,,,StressSession
1634893480.91,fixation,1,775,,,StressSession
1634893481.03,stimulus,2,284,,,NoMusic
1634893481.53,fixation,2,284,,,NoMusic
1634893482.41,stimulus,1,776,,,StressSession
1634893482.91,fixation,1,776,,,StressSession
1634893483.03,stimulus,2,285,,,NoMusic
1634893483.53,fixation,2,285,,,NoMusic
1634893484.41,stimulus,1,777,,,StressSession
1634893484.91,fixation,1,777,,,StressSession
1634893485.03,stimulus,2,286,,,NoMusic
1634893485.53,fixation,2,286,,,NoMusic
1634893486.41,stimulus,1,778,,,StressSession
1634893486.91,fixation,1,778,,,StressSession
1634893487.03,stimulus,2,287,,,NoMusic
1634893487.53,fixation,2,287,,,NoMusic
1634893488.41,stimulus,1,779,,,StressSession
1634893488.91,fixation,1,779,,,StressSession
1634893489.03,stimulus,2,288,,,NoMusic
1634893489.53,fixation,2,288,,,NoMusic
1634893490.41,stimulus,1,780,,,StressSession
1634893490.91,fixation,1,780,,,StressSession
1634893491.03,stimulus,2,289,,,NoMusic
1634893491.53,fixation,2,289,,,NoMusic
1634893492.41,stimulus,1,781,,,StressSession
1634893492.91,fixation,1,781,,,StressSession
1634893493.03,stimulus,2,290,,,NoMusic
1634893493.53,fixation,2,290,,,NoMusic
1634893494.41,stimulus,1,782,,,StressSession
1634893494.91,fixation,1,782,,,StressSession
1634893495.03,stimulus,2,291,,,NoMusic
1634893495.53,fixation,2,291,,,NoMusic
1634893496.41,stimulus,1,783,,,StressSession
1634893496.91,fixation,1,783,,,StressSession
1634893497.03,stimulus,2,292,,,NoMusic
1634893497.53,fixation,2,292,,,NoMusic
1634893498.41,stimulus,1,784,,,StressSession
1634893498.91,fixation,1,784,,,StressSession
1634893499.03,stimulus,2,293,,,NoMusic
1634893499.53,fixation,2,293,,,NoMusic
1634893500.41,stimulus,1,785,,,StressSession
1634893500.91,fixation,1,785,,,StressSession
1634893501.03,stimulus,2,294,,,NoMusic
1634893501.53,fixation,2,294,,,NoMusic
1634893502.41,stimulus,1,786,,,StressSession
1634893502.91,fixation,1,786,,,StressSession
1634893503.03,stimulus,2,295,,,NoMusic
1634893503.53,fixation,2,295,,,NoMusic
1634893504.41,stimulus,1,787,,,StressSession
1634893504.91,fixation,1,787,,,StressSession
1634893505.03,stimulus,2,296,,,NoMusic
1634893505.53,fixation,2,296,,,NoMusic
1634893506.41,stimulus,1,788,,,StressSession
1634893506.91,fixation,1,788,,,StressSession
1634893507.03,stimulus,2,297,,,NoMusic
1634893507.53,fixation,2,297,,,NoMusic
1634893508.41,stimulus,1,789,,,StressSession
1634893508.91,fixation,1,789,,,StressSession
1634893509.03,stimulus,2,298,,,NoMusic
1634893509.53,fixation,2,298,,,NoMusic
1634893510.41,stimulus,1,790,,,StressSession
1634893510.91,fixation,1,790,,,StressSession
1634893511.03,stimulus,2,299,,,NoMusic
1634893511.53,fixation,2,299,,,NoMusic
1634893512.41,stimulus,1,791,,,StressSession
1634893512.91,fixation,1,791,,,StressSession
1634893513.03,stimulus,2,300,,,NoMusic
1634893513.53,fixation,2,300,,,NoMusic
1634893514.41,stimulus,1,792,,,StressSession
1634893514.91,fixation,1,792,,,StressSession
1634893515.03,stimulus,2,301,,,NoMusic
1634893515.53,fixation,2,301,,,NoMusic
1634893516.41,stimulus,1,793,,,StressSession
1634893516.91,fixation,1,793,,,StressSession
1634893517.03,stimulus,2,302,,,NoMusic
1634893517.53,fixation,2,302,,,NoMusic
1634893518.41,stimulus,1,794,,,StressSession
1634893518.91,fixation,1,794,,,StressSession
1634893519.03,stimulus,2,303,,,NoMusic
1634893519.53,fixation,2,303,,,NoMusic
1634893520.41,stimulus,1,795,,,StressSession
1634893520.91,fixation,1,795,,,StressSession
1634893521.03,stimulus,2,304,,,NoMusic
1634893521.53,fixation,2,304,,,NoMusic
1634893522.41,stimulus,1,796,,,StressSession
1634893522.91,fixation,1,796,,,StressSession
1634893523.03,stimulus,2,305,,,NoMusic
1634893523.53,fixation,2,305,,,NoMusic
1634893524.41,stimulus,1,797,,,StressSession
1634893524.91,fixation,1,797,,,StressSession
1634893525.03,stimulus,2,306,,,NoMusic
1634893525.53,fixation,2,306,,,NoMusic
1634893526.41,stimulus,1,798,,,StressSession
1634893526.91,fixation,1,798,,,StressSession
1634893527.03,stimulus,2,307,,,NoMusic
1634893527.53,fixation,2,307,,,NoMusic
1634893528.41,stimulus,1,799,,,StressSession
1634893528.91,fixation,1,799,,,StressSession
1634893529.03,stimulus,2,308,,,NoMusic
1634893529.53,fixation,2,308,,,NoMusic
1634893530.41,stimulus,1,800,,,StressSession
1634893530.91,fixation,1,800,,,StressSession
1634893531.03,stimulus,2,309,,,NoMusic
1634893531.53,fixation,2,309,,,NoMusic
1634893532.41,stimulus,1,801,,,StressSession
1634893532.91,fixation,1,801,,,StressSession
1634893533.03,stimulus,2,310,,,NoMusic
1634893533.53,fixation,2,310,,,NoMusic
1634893534.41,stimulus,1,802,,,StressSession
1634893534.91,fixation,1,802,,,StressSession
1634893535.03,stimulus,2,311,,,NoMusic
1634893535.53,fixation,2,311,,,NoMusic
1634893536.41,stimulus,1,803,,,StressSession
1634893536.91,fixation,1,803,,,StressSession
1634893537.03,stimulus,2,312,,,NoMusic
1634893537.53,fixation,2,312,,,NoMusic
1634893538.41,stimulus,1,804,,,StressSession
1634893538.91,fixation,1,804,,,StressSession
1634893539.03,stimulus,2,313,,,NoMusic
1634893539.53,fixation,2,313,,,NoMusic
1634893540.41,stimulus,1,805,,,StressSession
1634893540.91,fixation,1,805,,,StressSession
1634893541.03,stimulus,2,314,,,NoMusic
1634893541.53,fixation,2,314,,,NoMusic
1634893542.41,stimulus,1,806,,,StressSession
1634893542.91,fixation,1,806,,,StressSession
1634893543.03,stimulus,2,315,,,NoMusic
1634893543.53,fixation,2,315,,,NoMusic
1634893544.41,stimulus,1,807,,,StressSession
1634893544.91,fixation,1,807,,,StressSession
1634893545.03,stimulus,2,316,,,NoMusic
1634893545.53,fixation,2,316,,,NoMusic
1634893546.41,stimulus,1,808,,,StressSession
1634893546.91,fixation,1,808,,,StressSession
1634893547.03,stimulus,2,317,,,NoMusic
1634893547.53,fixation,2,317,,,NoMusic
1634893548.41,stimulus,1,809,,,StressSession
1634893548.91,fixation,1,809,,,StressSession
1634893549.03,stimulus,2,318,,,NoMusic
1634893549.53,fixation,2,318,,,NoMusic
1634893550.41,stimulus,1,810,,,StressSession
1634893550.91,fixation,1,810,,,StressSession
1634893551.03,stimulus,2,319,,,NoMusic
1634893551.53,fixation,2,319,,,NoMusic
1634893552.41,stimulus,1,811,,,StressSession
1634893552.91,fixation,1,811,,,StressSession
1634893553.03,stimulus,2,320,,,NoMusic
1634893553.53,fixation,2,320,,,NoMusic
1634893554.41,stimulus,1,812,,,StressSession
1634893554.91,fixation,1,812,,,StressSession
1634893555.03,stimulus,2,321,,,NoMusic
1634893555.53,fixation,2,321,,,NoMusic
1634893556.41,stimulus,1,813,,,StressSession
1634893556.91,fixation,1,813,,,StressSession
1634893557.03,stimulus,2,322,,,NoMusic
1634893557.53,fixation,2,322,,,NoMusic
1634893558.41,stimulus,1,814,,,StressSession
1634893558.91,fixation,1,814,,,StressSession
1634893559.03,stimulus,2,323,,,NoMusic
1634893559.53,fixation,2,323,,,NoMusic
1634893560.41,stimulus,1,815,,,StressSession
1634893560.91,fixation,1,815,,,StressSession
1634893561.03,stimulus,2,324,,,NoMusic
1634893561.53,fixation,2,324,,,NoMusic
1634893562.41,stimulus,1,816,,,StressSession
1634893562.91,fixation,1,816,,,StressSession
1634893563.03,stimulus,2,325,,,NoMusic
1634893563.53,fixation,2,325,,,NoMusic
1634893564.41,stimulus,1,817,,,StressSession
1634893564.91,fixation,1,817,,,StressSession
1634893565.03,stimulus,2,326,,,NoMusic
1634893565.53,fixation,2,326,,,NoMusic
1634893566.41,stimulus,1,818,,,StressSession
1634893566.91,fixation,1,818,,,StressSession
1634893567.03,stimulus,2,327,,,NoMusic
1634893567.53,fixation,2,327,,,NoMusic
1634893568.41,stimulus,1,819,,,StressSession
1634893568.91,fixation,1,819,,,StressSession
1634893569.03,stimulus,2,328,,,NoMusic
1634893569.53,fixation,2,328,,,NoMusic
1634893570.41,stimulus,1,820,,,StressSession
1634893570.91,fixation,1,820,,,StressSession
1634893571.03,stimulus,2,329,,,NoMusic
1634893571.53,fixation,2,329,,,NoMusic
1634893572.41,stimulus,1,821,,,StressSession
1634893572.91,fixation,1,821,,,StressSession
1634893573.03,stimulus,2,330,,,NoMusic
1634893573.53,fixation,2,330,,,NoMusic
1634893574.41,stimulus,1,822,,,StressSession
1634893574.91,fixation,1,822,,,StressSession
1634893575.03,stimulus,2,331,,,NoMusic
1634893575.53,fixation,2,331,,,NoMusic
