event_time_s,trial_type,session_idx,trial_idx,RT_s,ACC,session_type
1624876967.53,stimulus,1,1,,,PracticeSession
1624876968.03,fixation,1,1,,,PracticeSession
1624876969.53,stimulus,1,2,,,PracticeSession
1624876970.03,fixation,1,2,,,PracticeSession
1624876971.53,stimulus,1,3,,,PracticeSession
1624876972.03,fixation,1,3,,,PracticeSession
1624876973.53,stimulus,1,4,,,PracticeSession
1624876974.03,fixation,1,4,,,PracticeSession
1624876975.53,stimulus,1,5,,,PracticeSession
1624876976.03,fixation,1,5,,,PracticeSession
1624876977.53,stimulus,1,6,,,PracticeSession
1624876978.03,fixation,1,6,,,PracticeSession
1624876979.53,stimulus,1,7,,,PracticeSession
1624876980.03,fixation,1,7,,,PracticeSession
1624876981.53,stimulus,1,8,,,PracticeSession
1624876982.03,fixation,1,8,,,PracticeSession
1624876983.53,stimulus,1,9,,,PracticeSession
1624876984.03,fixation,1,9,,,PracticeSession
1624876985.53,stimulus,1,10,,,PracticeSession
1624876986.03,fixation,1,10,,,PracticeSession
1624876987.53,stimulus,1,11,,,PracticeSession
1624876988.03,fixation,1,11,,,PracticeSession
1624876989.53,stimulus,1,12,,,PracticeSession
1624876990.03,fixation,1,12,,,PracticeSession
1624876991.53,stimulus,1,13,,,PracticeSession
1624876992.03,fixation,1,13,,,PracticeSession
1624876993.53,stimulus,1,14,,,PracticeSession
1624876994.03,fixation,1,14,,,PracticeSession
1624876995.53,stimulus,1,15,,,PracticeSession
1624876996.03,fixation,1,15,,,PracticeSession
1624876997.53,stimulus,1,16,,,PracticeSession
1624876998.03,fixation,1,16,,,PracticeSession
1624876999.53,stimulus,1,17,,,PracticeSession
1624877000.03,fixation,1,17,,,PracticeSession
1624877001.53,stimulus,1,18,,,PracticeSession
1624877002.03,fixation,1,18,,,PracticeSession
1624877003.53,stimulus,1,19,,,PracticeSession
1624877004.03,fixation,1,19,,,PracticeSession
1624877005.53,stimulus,1,20,,,PracticeSession
1624877006.03,fixation,1,20,,,PracticeSession
1624877007.53,stimulus,1,21,,,PracticeSession
1624877008.03,fixation,1,21,,,PracticeSession
1624877009.53,stimulus,1,22,,,PracticeSession
1624877010.03,fixation,1,22,,,PracticeSession
1624877011.53,stimulus,1,23,,,PracticeSession
1624877012.03,fixation,1,23,,,PracticeSession
1624877013.53,stimulus,1,24,,,PracticeSession
1624877014.03,fixation,1,24,,,PracticeSession
1624877015.53,stimulus,1,25,,,PracticeSession
1624877016.03,fixation,1,25,,,PracticeSession
1624877017.53,stimulus,1,26,,,PracticeSession
1624877018.03,fixation,1,26,,,PracticeSession
1624877019.53,stimulus,1,27,,,PracticeSession
1624877020.03,fixation,1,27,,,PracticeSession
1624877021.53,stimulus,1,28,,,PracticeSession
1624877022.03,fixation,1,28,,,PracticeSession
1624877023.53,stimulus,1,29,,,PracticeSession
1624877024.03,fixation,1,29,,,PracticeSession
1624877025.53,stimulus,1,30,,,PracticeSession
1624877026.03,fixation,1,30,,,PracticeSession
1624877027.53,stimulus,1,31,,,PracticeSession
1624877028.03,fixation,1,31,,,PracticeSession
1624877029.53,stimulus,1,32,,,PracticeSession
1624877030.03,fixation,1,32,,,PracticeSession
1624877031.53,stimulus,1,33,,,PracticeSession
1624877032.03,fixation,1,33,,,PracticeSession
1624877033.53,stimulus,1,34,,,PracticeSession
1624877034.03,fixation,1,34,,,PracticeSession
1624877035.53,stimulus,1,35,,,PracticeSession
1624877036.03,fixation,1,35,,,PracticeSession
1624877037.53,stimulus,1,36,,,PracticeSession
1624877038.03,fixation,1,36,,,PracticeSession
1624877039.53,stimulus,1,37,,,PracticeSession
1624877040.03,fixation,1,37,,,PracticeSession
1624877041.53,stimulus,1,38,,,PracticeSession
1624877042.03,fixation,1,38,,,PracticeSession
1624877043.53,stimulus,1,39,,,PracticeSession
1624877044.03,fixation,1,39,,,PracticeSession
1624877045.53,stimulus,1,40,,,PracticeSession
1624877046.03,fixation,1,40,,,PracticeSession
1624877047.53,stimulus,1,41,,,PracticeSession
1624877048.03,fixation,1,41,,,PracticeSession
1624877049.53,stimulus,1,42,,,PracticeSession
1624877050.03,fixation,1,42,,,PracticeSession
1624877051.53,stimulus,1,43,,,PracticeSession
1624877052.03,fixation,1,43,,,PracticeSession
1624877053.53,stimulus,1,44,,,PracticeSession
1624877054.03,fixation,1,44,,,PracticeSession
1624877056.014,stimulus,1,45,0.484,1.0,NoAct
1624877056.03,fixation,1,45,,0.0,NoAct
1624877057.893,stimulus,1,46,0.363,1.0,NoAct
1624877058.03,fixation,1,46,,0.0,NoAct
1624877059.856,stimulus,1,47,0.326,1.0,NoAct
1624877060.03,fixation,1,47,,0.0,NoAct
1624877062.0249999,stimulus,1,48,0.495,1.0,NoAct
1624877062.03,fixation,1,48,,0.0,NoAct
1624877063.973,stimulus,1,49,0.443,1.0,NoAct
1624877064.03,fixation,1,49,,0.0,NoAct
1624877065.879,stimulus,1,50,0.349,1.0,NoAct
1624877066.03,fixation,1,50,,0.0,NoAct
1624877067.866,stimulus,1,51,0.336,0.0,NoAct
1624877068.03,fixation,1,51,,0.0,NoAct
1624877069.991,stimulus,1,52,0.461,1.0,NoAct
1624877070.03,fixation,1,52,,0.0,NoAct
1624877071.891,stimulus,1,53,0.361,1.0,NoAct
1624877072.03,fixation,1,53,,0.0,NoAct
1624877073.931,stimulus,1,54,0.401,1.0,NoAct
1624877074.03,fixation,1,54,,0.0,NoAct
1624877075.911,stimulus,1,55,0.381,1.0,NoAct
1624877076.03,fixation,1,55,,0.0,NoAct
1624877077.885,stimulus,1,56,0.355,1.0,NoAct
1624877078.03,fixation,1,56,,0.0,NoAct
1624877079.814,stimulus,1,57,0.284,1.0,NoAct
1624877080.03,fixation,1,57,,0.0,NoAct
1624877081.822,stimulus,1,58,0.292,1.0,NoAct
1624877082.03,fixation,1,58,,0.0,NoAct
1624877083.947,stimulus,1,59,0.417,1.0,NoAct
1624877084.03,fixation,1,59,,0.0,NoAct
1624877085.828,stimulus,1,60,0.298,1.0,NoAct
1624877086.03,fixation,1,60,,0.0,NoAct
1624877087.8209999,stimulus,1,61,0.291,1.0,NoAct
1624877088.03,fixation,1,61,,0.0,NoAct
1624877089.878,stimulus,1,62,0.348,1.0,NoAct
1624877090.03,fixation,1,62,,0.0,NoAct
1624877091.958,stimulus,1,63,0.428,1.0,NoAct
1624877092.03,fixation,1,63,,0.0,NoAct
1624877093.863,stimulus,1,64,0.333,1.0,NoAct
1624877094.03,fixation,1,64,,0.0,NoAct
1624877095.862,stimulus,1,65,0.332,1.0,NoAct
1624877096.03,fixation,1,65,,0.0,NoAct
1624877097.8569999,stimulus,1,66,0.327,1.0,NoAct
1624877098.03,fixation,1,66,,0.0,NoAct
1624877100.008,stimulus,1,67,0.478,1.0,NoAct
1624877100.03,fixation,1,67,,0.0,NoAct
1624877101.815,stimulus,1,68,0.285,1.0,NoAct
1624877102.03,fixation,1,68,,0.0,NoAct
1624877103.786,stimulus,1,69,0.256,1.0,NoAct
1624877104.03,fixation,1,69,,0.0,NoAct
1624877105.8799999,stimulus,1,70,0.35,1.0,NoAct
1624877106.03,fixation,1,70,,0.0,NoAct
1624877107.984,stimulus,1,71,0.454,1.0,NoAct
1624877108.03,fixation,1,71,,0.0,NoAct
1624877109.897,stimulus,1,72,0.367,1.0,NoAct
1624877110.03,fixation,1,72,,0.0,NoAct
1624877111.91,stimulus,1,73,0.38,1.0,NoAct
1624877112.03,fixation,1,73,,0.0,NoAct
1624877113.865,stimulus,1,74,0.335,0.0,NoAct
1624877114.03,fixation,1,74,,0.0,NoAct
1624877115.8769999,stimulus,1,75,0.347,1.0,NoAct
1624877116.03,fixation,1,75,,0.0,NoAct
1624877118.008,stimulus,1,76,0.478,1.0,NoAct
1624877118.03,fixation,1,76,,0.0,NoAct
1624877119.974,stimulus,1,77,0.444,1.0,NoAct
1624877120.03,fixation,1,77,,0.0,NoAct
1624877121.882,stimulus,1,78,0.352,1.0,NoAct
1624877122.03,fixation,1,78,,0.0,NoAct
1624877124.014,stimulus,1,79,0.484,1.0,NoAct
1624877124.03,fixation,1,79,,0.0,NoAct
1624877125.876,stimulus,1,80,0.346,1.0,NoAct
1624877126.03,fixation,1,80,,0.0,NoAct
1624877127.875,stimulus,1,81,0.345,1.0,NoAct
1624877128.03,fixation,1,81,,0.0,NoAct
1624877129.9789999,stimulus,1,82,0.449,1.0,NoAct
1624877130.03,fixation,1,82,,0.0,NoAct
1624877131.937,stimulus,1,83,0.407,1.0,NoAct
1624877132.03,fixation,1,83,,0.0,NoAct
1624877133.886,stimulus,1,84,0.356,1.0,NoAct
1624877134.03,fixation,1,84,,0.0,NoAct
1624877135.911,stimulus,1,85,0.381,1.0,NoAct
1624877136.03,fixation,1,85,,0.0,NoAct
1624877137.874,stimulus,1,86,0.344,1.0,NoAct
1624877138.03,fixation,1,86,,0.0,NoAct
1624877139.881,stimulus,1,87,0.351,1.0,NoAct
1624877140.03,fixation,1,87,,0.0,NoAct
1624877141.873,stimulus,1,88,0.343,1.0,NoAct
1624877142.03,fixation,1,88,,0.0,NoAct
1624877143.818,stimulus,1,89,0.288,1.0,NoAct
1624877144.03,fixation,1,89,,0.0,NoAct
1624877145.724,stimulus,1,90,0.194,1.0,NoAct
1624877146.03,fixation,1,90,,0.0,NoAct
1624877147.749,stimulus,1,91,0.219,1.0,NoAct
1624877148.03,fixation,1,91,,0.0,NoAct
1624877149.911,stimulus,1,92,0.381,1.0,NoAct
1624877150.03,fixation,1,92,,0.0,NoAct
1624877151.87,stimulus,1,93,0.34,1.0,NoAct
1624877152.03,fixation,1,93,,0.0,NoAct
1624877153.845,stimulus,1,94,0.315,1.0,NoAct
1624877154.03,fixation,1,94,,0.0,NoAct
1624877155.874,stimulus,1,95,0.344,1.0,NoAct
1624877156.03,fixation,1,95,,0.0,NoAct
1624877157.931,stimulus,1,96,0.401,1.0,NoAct
1624877158.03,fixation,1,96,,0.0,NoAct
1624877159.9789999,stimulus,1,97,0.449,1.0,NoAct
1624877160.03,fixation,1,97,,0.0,NoAct
1624877161.885,stimulus,1,98,0.355,1.0,NoAct
1624877162.03,fixation,1,98,,0.0,NoAct
1624877163.84,stimulus,1,99,0.31,1.0,NoAct
1624877164.03,fixation,1,99,,0.0,NoAct
1624877165.919,stimulus,1,100,0.389,1.0,NoAct
1624877166.03,fixation,1,100,,0.0,NoAct
1624877167.963,stimulus,1,101,0.433,0.0,NoAct
1624877168.03,fixation,1,101,,0.0,NoAct
1624877169.53,stimulus,1,102,,0.0,NoAct
1624877170.089,fixation,1,102,0.059,1.0,NoAct
1624877171.906,stimulus,1,103,0.376,1.0,NoAct
1624877172.03,fixation,1,103,,0.0,NoAct
1624877173.953,stimulus,1,104,0.423,1.0,NoAct
1624877174.03,fixation,1,104,,0.0,NoAct
1624877175.93,stimulus,1,105,0.4,1.0,NoAct
1624877176.03,fixation,1,105,,0.0,NoAct
1624877177.53,stimulus,1,106,,0.0,NoAct
1624877178.169,fixation,1,106,0.139,1.0,NoAct
1624877179.937,stimulus,1,107,0.407,0.0,NoAct
1624877180.03,fixation,1,107,,0.0,NoAct
1624877181.939,stimulus,1,108,0.409,1.0,NoAct
1624877182.03,fixation,1,108,,0.0,NoAct
1624877183.53,stimulus,1,109,,0.0,NoAct
1624877184.135,fixation,1,109,0.105,1.0,NoAct
1624877186.009,stimulus,1,110,0.479,1.0,NoAct
1624877186.03,fixation,1,110,,0.0,NoAct
1624877187.53,stimulus,1,111,,0.0,NoAct
1624877188.041,fixation,1,111,0.011,1.0,NoAct
1624877189.876,stimulus,1,112,0.346,1.0,NoAct
1624877190.03,fixation,1,112,,0.0,NoAct
1624877191.8569999,stimulus,1,113,0.327,1.0,NoAct
1624877192.03,fixation,1,113,,0.0,NoAct
1624877193.8539999,stimulus,1,114,0.324,1.0,NoAct
1624877194.03,fixation,1,114,,0.0,NoAct
1624877195.8209999,stimulus,1,115,0.291,1.0,NoAct
1624877196.03,fixation,1,115,,0.0,NoAct
1624877197.9229999,stimulus,1,116,0.393,1.0,NoAct
1624877198.03,fixation,1,116,,0.0,NoAct
1624877199.855,stimulus,1,117,0.325,1.0,NoAct
1624877200.03,fixation,1,117,,0.0,NoAct
1624877201.935,stimulus,1,118,0.405,1.0,NoAct
1624877202.03,fixation,1,118,,0.0,NoAct
1624877203.908,stimulus,1,119,0.378,1.0,NoAct
1624877204.03,fixation,1,119,,0.0,NoAct
1624877205.868,stimulus,1,120,0.338,1.0,NoAct
1624877206.03,fixation,1,120,,0.0,NoAct
1624877207.995,stimulus,1,121,0.465,1.0,NoAct
1624877208.2649999,fixation,1,121,0.235,1.0,NoAct
1624877209.937,stimulus,1,122,0.407,1.0,NoAct
1624877210.03,fixation,1,122,,0.0,NoAct
1624877211.53,stimulus,1,123,,0.0,NoAct
1624877212.072,fixation,1,123,0.042,1.0,NoAct
1624877213.833,stimulus,1,124,0.303,1.0,NoAct
1624877214.03,fixation,1,124,,0.0,NoAct
1624877215.865,stimulus,1,125,0.335,1.0,NoAct
1624877216.03,fixation,1,125,,0.0,NoAct
1624877217.84,stimulus,1,126,0.31,1.0,NoAct
1624877218.03,fixation,1,126,,0.0,NoAct
1624877219.863,stimulus,1,127,0.333,1.0,NoAct
1624877220.03,fixation,1,127,,0.0,NoAct
1624877221.797,stimulus,1,128,0.267,0.0,NoAct
1624877222.03,fixation,1,128,,0.0,NoAct
1624877223.888,stimulus,1,129,0.358,1.0,NoAct
1624877224.03,fixation,1,129,,0.0,NoAct
1624877225.897,stimulus,1,130,0.367,1.0,NoAct
1624877226.03,fixation,1,130,,0.0,NoAct
1624877227.868,stimulus,1,131,0.338,1.0,NoAct
1624877228.03,fixation,1,131,,0.0,NoAct
1624877229.974,stimulus,1,132,0.444,1.0,NoAct
1624877230.03,fixation,1,132,,0.0,NoAct
1624877231.99,stimulus,1,133,0.46,1.0,NoAct
1624877232.03,fixation,1,133,,0.0,NoAct
1624877233.832,stimulus,1,134,0.302,1.0,NoAct
1624877234.03,fixation,1,134,,0.0,NoAct
1624877235.753,stimulus,1,135,0.223,1.0,NoAct
1624877236.03,fixation,1,135,,0.0,NoAct
1624877237.916,stimulus,1,136,0.386,1.0,NoAct
1624877238.03,fixation,1,136,,0.0,NoAct
1624877239.874,stimulus,1,137,0.344,1.0,NoAct
1624877240.03,fixation,1,137,,0.0,NoAct
1624877241.83,stimulus,1,138,0.3,1.0,NoAct
1624877242.03,fixation,1,138,,0.0,NoAct
1624877243.53,stimulus,1,139,,0.0,NoAct
1624877244.045,fixation,1,139,0.015,1.0,NoAct
1624877245.94,stimulus,1,140,0.41,1.0,NoAct
1624877246.03,fixation,1,140,,0.0,NoAct
1624877247.884,stimulus,1,141,0.354,1.0,NoAct
1624877248.03,fixation,1,141,,0.0,NoAct
1624877249.842,stimulus,1,142,0.312,1.0,NoAct
1624877250.03,fixation,1,142,,0.0,NoAct
1624877251.973,stimulus,1,143,0.443,1.0,NoAct
1624877252.03,fixation,1,143,,0.0,NoAct
1624877253.876,stimulus,1,144,0.346,1.0,NoAct
1624877254.03,fixation,1,144,,0.0,NoAct
1624877255.966,stimulus,1,145,0.436,0.0,NoAct
1624877256.03,fixation,1,145,,0.0,NoAct
1624877257.53,stimulus,1,146,,0.0,NoAct
1624877258.069,fixation,1,146,0.039,0.0,NoAct
1624877259.966,stimulus,1,147,0.436,0.0,NoAct
1624877260.03,fixation,1,147,,0.0,NoAct
1624877262.014,stimulus,1,148,0.484,1.0,NoAct
1624877262.03,fixation,1,148,,0.0,NoAct
1624877263.98,stimulus,1,149,0.45,1.0,NoAct
1624877264.03,fixation,1,149,,0.0,NoAct
1624877265.995,stimulus,1,150,0.465,1.0,NoAct
1624877266.03,fixation,1,150,,0.0,NoAct
1624877268.02,stimulus,1,151,0.49,1.0,NoAct
1624877268.03,fixation,1,151,,0.0,NoAct
1624877270.01,stimulus,1,152,0.48,1.0,NoAct
1624877270.03,fixation,1,152,,0.0,NoAct
1624877271.96,stimulus,1,153,0.43,1.0,NoAct
1624877272.03,fixation,1,153,,0.0,NoAct
1624877273.92,stimulus,1,154,0.39,1.0,NoAct
1624877274.03,fixation,1,154,,0.0,NoAct
1624877275.978,stimulus,1,155,0.448,1.0,NoAct
1624877276.03,fixation,1,155,,0.0,NoAct
1624877277.882,stimulus,1,156,0.352,1.0,NoAct
1624877278.03,fixation,1,156,,0.0,NoAct
1624877279.934,stimulus,1,157,0.404,1.0,NoAct
1624877280.03,fixation,1,157,,0.0,NoAct
1624877282.008,stimulus,1,158,0.478,1.0,NoAct
1624877282.03,fixation,1,158,,0.0,NoAct
1624877283.53,stimulus,1,159,,0.0,NoAct
1624877284.044,fixation,1,159,0.014,1.0,NoAct
1624877285.53,stimulus,1,160,,0.0,NoAct
1624877286.03,fixation,1,160,,0.0,NoAct
1624877287.53,stimulus,1,161,,0.0,NoAct
1624877288.093,fixation,1,161,0.063,1.0,NoAct
1624877289.53,stimulus,1,162,,0.0,NoAct
1624877290.139,fixation,1,162,0.109,1.0,NoAct
1624877291.53,stimulus,1,163,,0.0,NoAct
1624877292.266,fixation,1,163,0.236,1.0,NoAct
1624877293.994,stimulus,1,164,0.464,1.0,NoAct
1624877294.03,fixation,1,164,,0.0,NoAct
1624877295.53,stimulus,1,165,,0.0,NoAct
1624877296.03,fixation,1,165,,0.0,NoAct
1624877297.985,stimulus,1,166,0.455,1.0,NoAct
1624877298.03,fixation,1,166,,0.0,NoAct
1624877299.909,stimulus,1,167,0.379,1.0,NoAct
1624877300.03,fixation,1,167,,0.0,NoAct
1624877301.938,stimulus,1,168,0.408,1.0,NoAct
1624877302.03,fixation,1,168,,0.0,NoAct
1624877303.911,stimulus,1,169,0.381,1.0,NoAct
1624877304.03,fixation,1,169,,0.0,NoAct
1624877305.9229999,stimulus,1,170,0.393,1.0,NoAct
1624877306.03,fixation,1,170,,0.0,NoAct
1624877307.876,stimulus,1,171,0.346,1.0,NoAct
1624877308.03,fixation,1,171,,0.0,NoAct
1624877309.934,stimulus,1,172,0.404,1.0,NoAct
1624877310.03,fixation,1,172,,0.0,NoAct
1624877311.943,stimulus,1,173,0.413,1.0,NoAct
1624877312.03,fixation,1,173,,0.0,NoAct
1624877313.918,stimulus,1,174,0.388,1.0,NoAct
1624877314.03,fixation,1,174,,0.0,NoAct
1624877316.003,stimulus,1,175,0.473,1.0,NoAct
1624877316.03,fixation,1,175,,0.0,NoAct
1624877317.53,stimulus,1,176,,0.0,NoAct
1624877318.178,fixation,1,176,0.148,1.0,NoAct
1624877319.53,stimulus,1,177,,0.0,NoAct
1624877320.165,fixation,1,177,0.135,1.0,NoAct
1624877321.976,stimulus,1,178,0.446,1.0,NoAct
1624877322.03,fixation,1,178,,0.0,NoAct
1624877323.891,stimulus,1,179,0.361,1.0,NoAct
1624877324.03,fixation,1,179,,0.0,NoAct
1624877325.894,stimulus,1,180,0.364,0.0,NoAct
1624877326.03,fixation,1,180,,0.0,NoAct
1624877327.8669999,stimulus,1,181,0.337,1.0,NoAct
1624877328.03,fixation,1,181,,0.0,NoAct
1624877329.93,stimulus,1,182,0.4,1.0,NoAct
1624877330.03,fixation,1,182,,0.0,NoAct
1624877331.956,stimulus,1,183,0.426,1.0,NoAct
1624877332.03,fixation,1,183,,0.0,NoAct
1624877333.893,stimulus,1,184,0.363,1.0,NoAct
1624877334.03,fixation,1,184,,0.0,NoAct
1624877335.8999999,stimulus,1,185,0.37,1.0,NoAct
1624877336.03,fixation,1,185,,0.0,NoAct
1624877337.87,stimulus,1,186,0.34,1.0,NoAct
1624877338.03,fixation,1,186,,0.0,NoAct
1624877339.53,stimulus,1,187,,0.0,NoAct
1624877340.091,fixation,1,187,0.061,1.0,NoAct
1624877341.9029999,stimulus,1,188,0.373,1.0,NoAct
1624877342.03,fixation,1,188,,0.0,NoAct
1624877343.928,stimulus,1,189,0.398,1.0,NoAct
1624877344.03,fixation,1,189,,0.0,NoAct
1624877345.53,stimulus,1,190,,0.0,NoAct
1624877346.062,fixation,1,190,0.032,1.0,NoAct
1624877347.962,stimulus,1,191,0.432,1.0,NoAct
1624877348.03,fixation,1,191,,0.0,NoAct
1624877349.53,stimulus,1,192,,0.0,NoAct
1624877350.07,fixation,1,192,0.04,1.0,NoAct
1624877351.53,stimulus,1,193,,0.0,NoAct
1624877352.043,fixation,1,193,0.013,1.0,NoAct
1624877353.919,stimulus,1,194,0.389,1.0,NoAct
1624877354.03,fixation,1,194,,0.0,NoAct
1624877355.919,stimulus,1,195,0.389,1.0,NoAct
1624877356.03,fixation,1,195,,0.0,NoAct
1624877357.955,stimulus,1,196,0.425,1.0,NoAct
1624877358.03,fixation,1,196,,0.0,NoAct
1624877359.53,stimulus,1,197,,0.0,NoAct
1624877360.035,fixation,1,197,0.005,1.0,NoAct
1624877361.876,stimulus,1,198,0.346,1.0,NoAct
1624877362.03,fixation,1,198,,0.0,NoAct
1624877363.53,stimulus,1,199,,0.0,NoAct
1624877364.149,fixation,1,199,0.119,1.0,NoAct
1624877365.797,stimulus,1,200,0.267,1.0,NoAct
1624877366.03,fixation,1,200,,0.0,NoAct
1624877367.789,stimulus,1,201,0.259,1.0,NoAct
1624877368.03,fixation,1,201,,0.0,NoAct
1624877369.53,stimulus,1,202,,0.0,NoAct
1624877370.0479999,fixation,1,202,0.018,1.0,NoAct
1624877371.9359999,stimulus,1,203,0.406,1.0,NoAct
1624877372.03,fixation,1,203,,0.0,NoAct
1624877373.53,stimulus,1,204,,0.0,NoAct
1624877374.055,fixation,1,204,0.025,1.0,NoAct
1624877375.95,stimulus,1,205,0.42,1.0,NoAct
1624877376.03,fixation,1,205,,0.0,NoAct
1624877377.904,stimulus,1,206,0.374,1.0,NoAct
1624877378.03,fixation,1,206,,0.0,NoAct
1624877379.985,stimulus,1,207,0.455,1.0,NoAct
1624877380.03,fixation,1,207,,0.0,NoAct
1624877381.53,stimulus,1,208,,0.0,NoAct
1624877382.0479999,fixation,1,208,0.018,1.0,NoAct
1624877383.53,stimulus,1,209,,0.0,NoAct
1624877384.086,fixation,1,209,0.056,1.0,NoAct
1624877385.53,stimulus,1,210,,0.0,NoAct
1624877386.03,fixation,1,210,,0.0,NoAct
1624877387.53,stimulus,1,211,,0.0,NoAct
1624877388.188,fixation,1,211,0.158,1.0,NoAct
1624877390.0279999,stimulus,1,212,0.498,1.0,NoAct
1624877390.03,fixation,1,212,,0.0,NoAct
1624877391.908,stimulus,1,213,0.378,1.0,NoAct
1624877392.03,fixation,1,213,,0.0,NoAct
1624877393.53,stimulus,1,214,,0.0,NoAct
1624877394.085,fixation,1,214,0.055,1.0,NoAct
1624877395.53,stimulus,1,215,,0.0,NoAct
1624877396.0939999,fixation,1,215,0.064,1.0,NoAct
1624877397.8769999,stimulus,1,216,0.347,1.0,NoAct
1624877398.03,fixation,1,216,,0.0,NoAct
1624877399.53,stimulus,1,217,,0.0,NoAct
1624877400.03,fixation,1,217,,0.0,NoAct
1624877401.942,stimulus,1,218,0.412,1.0,NoAct
1624877402.03,fixation,1,218,,0.0,NoAct
1624877403.932,stimulus,1,219,0.402,1.0,NoAct
1624877404.03,fixation,1,219,,0.0,NoAct
1624877405.952,stimulus,1,220,0.422,1.0,NoAct
1624877406.03,fixation,1,220,,0.0,NoAct
1624877407.53,stimulus,1,221,,,NoAct
1624877408.03,fixation,1,221,,,NoAct
1624877409.53,stimulus,1,222,,0.0,NoAct
1624877410.291,fixation,1,222,0.261,1.0,NoAct
1624877411.891,stimulus,1,223,0.361,1.0,NoAct
1624877412.03,fixation,1,223,,0.0,NoAct
1624877413.794,stimulus,1,224,0.264,1.0,NoAct
1624877414.03,fixation,1,224,,0.0,NoAct
1624877415.864,stimulus,1,225,0.334,1.0,NoAct
1624877416.03,fixation,1,225,,0.0,NoAct
1624877417.878,stimulus,1,226,0.348,1.0,NoAct
1624877418.03,fixation,1,226,,0.0,NoAct
1624877419.865,stimulus,1,227,0.335,1.0,NoAct
1624877420.03,fixation,1,227,,0.0,NoAct
1624877421.898,stimulus,1,228,0.368,1.0,NoAct
1624877422.03,fixation,1,228,,0.0,NoAct
1624877423.989,stimulus,1,229,0.459,1.0,NoAct
1624877424.03,fixation,1,229,,0.0,NoAct
1624877426.013,stimulus,1,230,0.483,0.0,NoAct
1624877426.03,fixation,1,230,,0.0,NoAct
1624877427.984,stimulus,1,231,0.454,1.0,NoAct
1624877428.03,fixation,1,231,,0.0,NoAct
1624877429.871,stimulus,1,232,0.341,1.0,NoAct
1624877430.03,fixation,1,232,,0.0,NoAct
1624877431.952,stimulus,1,233,0.422,0.0,NoAct
1624877432.03,fixation,1,233,,0.0,NoAct
1624877433.927,stimulus,1,234,0.397,0.0,NoAct
1624877434.03,fixation,1,234,,0.0,NoAct
1624877435.892,stimulus,1,235,0.362,0.0,NoAct
1624877436.03,fixation,1,235,,0.0,NoAct
1624877437.53,stimulus,1,236,,0.0,NoAct
1624877438.033,fixation,1,236,0.003,1.0,NoAct
1624877439.9259999,stimulus,1,237,0.396,1.0,NoAct
1624877440.03,fixation,1,237,,0.0,NoAct
1624877441.94,stimulus,1,238,0.41,0.0,NoAct
1624877442.03,fixation,1,238,,0.0,NoAct
1624877443.895,stimulus,1,239,0.365,1.0,NoAct
1624877444.03,fixation,1,239,,0.0,NoAct
1624877445.8899999,stimulus,1,240,0.36,0.0,NoAct
1624877446.03,fixation,1,240,,0.0,NoAct
1624877448.023,stimulus,1,241,0.493,1.0,NoAct
1624877448.03,fixation,1,241,,0.0,NoAct
1624877449.53,stimulus,1,242,,0.0,NoAct
1624877450.047,fixation,1,242,0.017,1.0,NoAct
1624877451.53,stimulus,1,243,,0.0,NoAct
1624877452.03,fixation,1,243,,1.0,NoAct
1624877453.53,stimulus,1,244,,0.0,NoAct
1624877454.093,fixation,1,244,0.063,1.0,NoAct
1624877455.53,stimulus,1,245,,0.0,NoAct
1624877456.03,fixation,1,245,,0.0,NoAct
1624877457.884,stimulus,1,246,0.354,1.0,NoAct
1624877458.03,fixation,1,246,,0.0,NoAct
1624877459.85,stimulus,1,247,0.32,1.0,NoAct
1624877460.03,fixation,1,247,,0.0,NoAct
1624877461.53,stimulus,1,248,,0.0,NoAct
1624877462.047,fixation,1,248,0.017,1.0,NoAct
1624877463.921,stimulus,1,249,0.391,1.0,NoAct
1624877464.03,fixation,1,249,,0.0,NoAct
1624877465.884,stimulus,1,250,0.354,1.0,NoAct
1624877466.03,fixation,1,250,,0.0,NoAct
1624877467.53,stimulus,1,251,,0.0,NoAct
1624877468.03,fixation,1,251,,0.0,NoAct
1624877469.841,stimulus,1,252,0.311,1.0,NoAct
1624877470.03,fixation,1,252,,0.0,NoAct
1624877471.993,stimulus,1,253,0.463,1.0,NoAct
1624877472.03,fixation,1,253,,0.0,NoAct
1624877473.952,stimulus,1,254,0.422,1.0,NoAct
1624877474.03,fixation,1,254,,0.0,NoAct
1624877475.9029999,stimulus,1,255,0.373,1.0,NoAct
1624877476.03,fixation,1,255,,0.0,NoAct
1624877477.53,stimulus,1,256,,0.0,NoAct
1624877478.031,fixation,1,256,0.001,1.0,NoAct
1624877479.874,stimulus,1,257,0.344,1.0,NoAct
1624877480.03,fixation,1,257,,0.0,NoAct
1624877481.859,stimulus,1,258,0.329,1.0,NoAct
1624877482.03,fixation,1,258,,0.0,NoAct
1624877483.53,stimulus,1,259,,0.0,NoAct
1624877484.081,fixation,1,259,0.051,1.0,NoAct
1624877485.914,stimulus,1,260,0.384,1.0,NoAct
1624877486.03,fixation,1,260,,0.0,NoAct
1624877487.873,stimulus,1,261,0.343,1.0,NoAct
1624877488.03,fixation,1,261,,0.0,NoAct
1624877489.856,stimulus,1,262,0.326,1.0,NoAct
1624877490.03,fixation,1,262,,0.0,NoAct
1624877491.893,stimulus,1,263,0.363,1.0,NoAct
1624877492.03,fixation,1,263,,0.0,NoAct
1624877494.029,stimulus,1,264,0.499,0.0,NoAct
1624877494.03,fixation,1,264,,0.0,NoAct
1624877495.8669999,stimulus,1,265,0.337,1.0,NoAct
1624877496.03,fixation,1,265,,0.0,NoAct
1624877497.53,stimulus,1,266,,0.0,NoAct
1624877498.042,fixation,1,266,0.012,1.0,NoAct
1624877499.927,stimulus,1,267,0.397,1.0,NoAct
1624877500.03,fixation,1,267,,0.0,NoAct
1624877501.886,stimulus,1,268,0.356,1.0,NoAct
1624877502.03,fixation,1,268,,0.0,NoAct
1624877503.53,stimulus,1,269,,0.0,NoAct
1624877504.03,fixation,1,269,,0.0,NoAct
1624877505.938,stimulus,1,270,0.408,1.0,NoAct
1624877506.03,fixation,1,270,,0.0,NoAct
1624877507.909,stimulus,1,271,0.379,1.0,NoAct
1624877508.03,fixation,1,271,,0.0,NoAct
1624877509.996,stimulus,1,272,0.466,1.0,NoAct
1624877510.03,fixation,1,272,,0.0,NoAct
1624877511.92,stimulus,1,273,0.39,1.0,NoAct
1624877512.03,fixation,1,273,,0.0,NoAct
1624877513.53,stimulus,1,274,,0.0,NoAct
1624877514.1529999,fixation,1,274,0.123,1.0,NoAct
1624877515.949,stimulus,1,275,0.419,1.0,NoAct
1624877516.03,fixation,1,275,,0.0,NoAct
1624877517.53,stimulus,1,276,,0.0,NoAct
1624877518.066,fixation,1,276,0.036,1.0,NoAct
1624877519.951,stimulus,1,277,0.421,1.0,NoAct
1624877520.03,fixation,1,277,,0.0,NoAct
1624877521.9589999,stimulus,1,278,0.429,1.0,NoAct
1624877522.03,fixation,1,278,,0.0,NoAct
1624877524.004,stimulus,1,279,0.474,1.0,NoAct
1624877524.03,fixation,1,279,,0.0,NoAct
1624877525.883,stimulus,1,280,0.353,1.0,NoAct
1624877526.03,fixation,1,280,,0.0,NoAct
1624877527.893,stimulus,1,281,0.363,1.0,NoAct
1624877528.03,fixation,1,281,,0.0,NoAct
1624877529.885,stimulus,1,282,0.355,1.0,NoAct
1624877530.03,fixation,1,282,,0.0,NoAct
1624877531.847,stimulus,1,283,0.317,1.0,NoAct
1624877532.03,fixation,1,283,,0.0,NoAct
1624877533.875,stimulus,1,284,0.345,1.0,NoAct
1624877534.03,fixation,1,284,,0.0,NoAct
1624877535.846,stimulus,1,285,0.316,1.0,NoAct
1624877536.03,fixation,1,285,,0.0,NoAct
1624877537.53,stimulus,1,286,,0.0,NoAct
1624877538.03,fixation,1,286,,0.0,NoAct
1624877539.928,stimulus,1,287,0.398,1.0,NoAct
1624877540.03,fixation,1,287,,0.0,NoAct
1624877542.004,stimulus,1,288,0.474,1.0,NoAct
1624877542.03,fixation,1,288,,0.0,NoAct
1624877543.835,stimulus,1,289,0.305,1.0,NoAct
1624877544.03,fixation,1,289,,0.0,NoAct
1624877545.8769999,stimulus,1,290,0.347,1.0,NoAct
1624877546.03,fixation,1,290,,0.0,NoAct
1624877547.963,stimulus,1,291,0.433,1.0,NoAct
1624877548.03,fixation,1,291,,0.0,NoAct
1624877549.884,stimulus,1,292,0.354,1.0,NoAct
1624877550.03,fixation,1,292,,0.0,NoAct
1624877551.871,stimulus,1,293,0.341,1.0,NoAct
1624877552.03,fixation,1,293,,0.0,NoAct
1624877553.99,stimulus,1,294,0.46,0.0,NoAct
1624877554.03,fixation,1,294,,0.0,NoAct
1624877555.998,stimulus,1,295,0.468,1.0,NoAct
1624877556.03,fixation,1,295,,0.0,NoAct
1624877557.9359999,stimulus,1,296,0.406,1.0,NoAct
1624877558.03,fixation,1,296,,0.0,NoAct
1624877559.91,stimulus,1,297,0.38,1.0,NoAct
1624877560.03,fixation,1,297,,0.0,NoAct
1624877562.006,stimulus,1,298,0.476,1.0,NoAct
1624877562.03,fixation,1,298,,0.0,NoAct
1624877563.925,stimulus,1,299,0.395,1.0,NoAct
1624877564.03,fixation,1,299,,0.0,NoAct
1624877565.965,stimulus,1,300,0.435,1.0,NoAct
1624877566.03,fixation,1,300,,0.0,NoAct
1624877567.928,stimulus,1,301,0.398,1.0,NoAct
1624877568.03,fixation,1,301,,0.0,NoAct
1624877569.899,stimulus,1,302,0.369,1.0,NoAct
1624877570.03,fixation,1,302,,0.0,NoAct
1624877571.98,stimulus,1,303,0.45,1.0,NoAct
1624877572.03,fixation,1,303,,0.0,NoAct
1624877573.905,stimulus,1,304,0.375,1.0,NoAct
1624877574.03,fixation,1,304,,0.0,NoAct
1624877575.928,stimulus,1,305,0.398,1.0,NoAct
1624877576.03,fixation,1,305,,0.0,NoAct
1624877577.898,stimulus,1,306,0.368,1.0,NoAct
1624877578.03,fixation,1,306,,0.0,NoAct
1624877579.904,stimulus,1,307,0.374,1.0,NoAct
1624877580.03,fixation,1,307,,0.0,NoAct
1624877581.929,stimulus,1,308,0.399,1.0,NoAct
1624877582.03,fixation,1,308,,0.0,NoAct
1624877583.874,stimulus,1,309,0.344,1.0,NoAct
1624877584.03,fixation,1,309,,0.0,NoAct
1624877585.53,stimulus,1,310,,0.0,NoAct
1624877586.081,fixation,1,310,0.051,1.0,NoAct
1624877587.849,stimulus,1,311,0.319,1.0,NoAct
1624877588.03,fixation,1,311,,0.0,NoAct
1624877589.814,stimulus,1,312,0.284,1.0,NoAct
1624877590.03,fixation,1,312,,0.0,NoAct
1624877592.016,stimulus,1,313,0.486,1.0,NoAct
1624877592.03,fixation,1,313,,0.0,NoAct
1624877593.975,stimulus,1,314,0.445,1.0,NoAct
1624877594.03,fixation,1,314,,0.0,NoAct
1624877595.961,stimulus,1,315,0.431,1.0,NoAct
1624877596.03,fixation,1,315,,0.0,NoAct
1624877597.973,stimulus,1,316,0.443,1.0,NoAct
1624877598.03,fixation,1,316,,0.0,NoAct
1624877599.948,stimulus,1,317,0.418,1.0,NoAct
1624877600.03,fixation,1,317,,0.0,NoAct
1624877601.95,stimulus,1,318,0.42,1.0,NoAct
1624877602.03,fixation,1,318,,0.0,NoAct
1624877603.53,stimulus,1,319,,0.0,NoAct
1624877604.064,fixation,1,319,0.034,0.0,NoAct
1624877605.53,stimulus,1,320,,0.0,NoAct
1624877606.066,fixation,1,320,0.036,1.0,NoAct
1624877607.94,stimulus,1,321,0.41,1.0,NoAct
1624877608.03,fixation,1,321,,0.0,NoAct
1624877609.893,stimulus,1,322,0.363,1.0,NoAct
1624877610.03,fixation,1,322,,0.0,NoAct
1624877611.53,stimulus,1,323,,0.0,NoAct
1624877612.091,fixation,1,323,0.061,1.0,NoAct
1624877613.947,stimulus,1,324,0.417,1.0,NoAct
1624877614.03,fixation,1,324,,0.0,NoAct
1624877615.99,stimulus,1,325,0.46,1.0,NoAct
1624877616.03,fixation,1,325,,0.0,NoAct
1624877617.902,stimulus,1,326,0.372,1.0,NoAct
1624877618.03,fixation,1,326,,0.0,NoAct
1624877619.884,stimulus,1,327,0.354,1.0,NoAct
1624877620.03,fixation,1,327,,0.0,NoAct
1624877622.006,stimulus,1,328,0.476,1.0,NoAct
1624877622.03,fixation,1,328,,0.0,NoAct
1624877623.954,stimulus,1,329,0.424,1.0,NoAct
1624877624.03,fixation,1,329,,0.0,NoAct
1624877626.0,stimulus,1,330,0.47,1.0,NoAct
1624877626.03,fixation,1,330,,0.0,NoAct
1624877627.907,stimulus,1,331,0.377,1.0,NoAct
1624877628.03,fixation,1,331,,0.0,NoAct
1624877629.994,stimulus,1,332,0.464,1.0,NoAct
1624877630.03,fixation,1,332,,0.0,NoAct
1624877631.8109999,stimulus,1,333,0.281,1.0,NoAct
1624877632.03,fixation,1,333,,0.0,NoAct
1624877633.868,stimulus,1,334,0.338,1.0,NoAct
1624877634.03,fixation,1,334,,0.0,NoAct
1624877636.011,stimulus,1,335,0.481,0.0,NoAct
1624877636.03,fixation,1,335,,0.0,NoAct
1624877637.53,stimulus,1,336,,0.0,NoAct
1624877638.03,fixation,1,336,,1.0,NoAct
1624877639.948,stimulus,1,337,0.418,1.0,NoAct
1624877640.03,fixation,1,337,,0.0,NoAct
1624877641.912,stimulus,1,338,0.382,1.0,NoAct
1624877642.03,fixation,1,338,,0.0,NoAct
1624877643.978,stimulus,1,339,0.448,1.0,NoAct
1624877644.03,fixation,1,339,,0.0,NoAct
1624877645.891,stimulus,1,340,0.361,1.0,NoAct
1624877646.03,fixation,1,340,,0.0,NoAct
1624877647.922,stimulus,1,341,0.392,1.0,NoAct
1624877648.03,fixation,1,341,,0.0,NoAct
1624877649.906,stimulus,1,342,0.376,1.0,NoAct
1624877650.03,fixation,1,342,,0.0,NoAct
1624877651.963,stimulus,1,343,0.433,1.0,NoAct
1624877652.03,fixation,1,343,,0.0,NoAct
1624877653.87,stimulus,1,344,0.34,1.0,NoAct
1624877654.03,fixation,1,344,,0.0,NoAct
1624877655.8799999,stimulus,1,345,0.35,1.0,NoAct
1624877656.03,fixation,1,345,,0.0,NoAct
1624877657.855,stimulus,1,346,0.325,1.0,NoAct
1624877658.03,fixation,1,346,,0.0,NoAct
1624877659.87,stimulus,1,347,0.34,1.0,NoAct
1624877660.03,fixation,1,347,,0.0,NoAct
1624877661.53,stimulus,1,348,,0.0,NoAct
1624877662.0509999,fixation,1,348,0.021,1.0,NoAct
1624877663.837,stimulus,1,349,0.307,1.0,NoAct
1624877664.03,fixation,1,349,,0.0,NoAct
1624877665.894,stimulus,1,350,0.364,1.0,NoAct
1624877666.03,fixation,1,350,,0.0,NoAct
1624877667.884,stimulus,1,351,0.354,1.0,NoAct
1624877668.03,fixation,1,351,,0.0,NoAct
1624877669.842,stimulus,1,352,0.312,1.0,NoAct
1624877670.03,fixation,1,352,,0.0,NoAct
1624877671.98,stimulus,1,353,0.45,1.0,NoAct
1624877672.03,fixation,1,353,,0.0,NoAct
1624877673.53,stimulus,1,354,,0.0,NoAct
1624877674.267,fixation,1,354,0.237,1.0,NoAct
1624877675.774,stimulus,1,355,0.244,1.0,NoAct
1624877676.03,fixation,1,355,,0.0,NoAct
1624877677.754,stimulus,1,356,0.224,1.0,NoAct
1624877678.03,fixation,1,356,,0.0,NoAct
1624877679.84,stimulus,1,357,0.31,1.0,NoAct
1624877680.03,fixation,1,357,,0.0,NoAct
1624877681.859,stimulus,1,358,0.329,1.0,NoAct
1624877682.03,fixation,1,358,,0.0,NoAct
1624877683.885,stimulus,1,359,0.355,1.0,NoAct
1624877684.03,fixation,1,359,,0.0,NoAct
1624877685.865,stimulus,1,360,0.335,1.0,NoAct
1624877686.03,fixation,1,360,,0.0,NoAct
1624877687.823,stimulus,1,361,0.293,1.0,NoAct
1624877688.03,fixation,1,361,,0.0,NoAct
1624877689.833,stimulus,1,362,0.303,1.0,NoAct
1624877690.03,fixation,1,362,,0.0,NoAct
1624877691.813,stimulus,1,363,0.283,0.0,NoAct
1624877692.03,fixation,1,363,,0.0,NoAct
1624877693.919,stimulus,1,364,0.389,0.0,NoAct
1624877694.03,fixation,1,364,,0.0,NoAct
1624877695.881,stimulus,1,365,0.351,1.0,NoAct
1624877696.03,fixation,1,365,,0.0,NoAct
1624877697.8669999,stimulus,1,366,0.337,1.0,NoAct
1624877698.03,fixation,1,366,,0.0,NoAct
1624877699.823,stimulus,1,367,0.293,0.0,NoAct
1624877700.03,fixation,1,367,,0.0,NoAct
1624877701.921,stimulus,1,368,0.391,1.0,NoAct
1624877702.03,fixation,1,368,,0.0,NoAct
1624877703.943,stimulus,1,369,0.413,1.0,NoAct
1624877704.03,fixation,1,369,,0.0,NoAct
1624877705.53,stimulus,1,370,,0.0,NoAct
1624877706.03,fixation,1,370,,0.0,NoAct
1624877707.965,stimulus,1,371,0.435,1.0,NoAct
1624877708.03,fixation,1,371,,0.0,NoAct
1624877709.93,stimulus,1,372,0.4,1.0,NoAct
1624877710.03,fixation,1,372,,0.0,NoAct
1624877711.872,stimulus,1,373,0.342,1.0,NoAct
1624877712.03,fixation,1,373,,0.0,NoAct
1624877713.9129999,stimulus,1,374,0.383,1.0,NoAct
1624877714.03,fixation,1,374,,0.0,NoAct
1624877715.945,stimulus,1,375,0.415,1.0,NoAct
1624877716.03,fixation,1,375,,0.0,NoAct
1624877717.861,stimulus,1,376,0.331,1.0,NoAct
1624877718.03,fixation,1,376,,0.0,NoAct
1624877719.906,stimulus,1,377,0.376,1.0,NoAct
1624877720.03,fixation,1,377,,0.0,NoAct
1624877721.832,stimulus,1,378,0.302,1.0,NoAct
1624877722.03,fixation,1,378,,0.0,NoAct
1624877723.93,stimulus,1,379,0.4,0.0,NoAct
1624877724.03,fixation,1,379,,0.0,NoAct
1624877725.909,stimulus,1,380,0.379,1.0,NoAct
1624877726.03,fixation,1,380,,0.0,NoAct
1624877727.8999999,stimulus,1,381,0.37,1.0,NoAct
1624877728.03,fixation,1,381,,0.0,NoAct
1624877729.941,stimulus,1,382,0.411,1.0,NoAct
1624877730.03,fixation,1,382,,0.0,NoAct
1624877731.92,stimulus,1,383,0.39,1.0,NoAct
1624877732.03,fixation,1,383,,0.0,NoAct
1624877733.906,stimulus,1,384,0.376,1.0,NoAct
1624877734.03,fixation,1,384,,0.0,NoAct
1624877735.9589999,stimulus,1,385,0.429,1.0,NoAct
1624877736.03,fixation,1,385,,0.0,NoAct
1624877737.53,stimulus,1,386,,0.0,NoAct
1624877738.031,fixation,1,386,0.001,1.0,NoAct
1624877739.899,stimulus,1,387,0.369,1.0,NoAct
1624877740.03,fixation,1,387,,0.0,NoAct
1624877741.85,stimulus,1,388,0.32,1.0,NoAct
1624877742.03,fixation,1,388,,0.0,NoAct
1624877743.947,stimulus,1,389,0.417,0.0,NoAct
1624877744.03,fixation,1,389,,0.0,NoAct
1624877745.874,stimulus,1,390,0.344,1.0,NoAct
1624877746.03,fixation,1,390,,0.0,NoAct
1624877747.876,stimulus,1,391,0.346,1.0,NoAct
1624877748.03,fixation,1,391,,0.0,NoAct
1624877749.911,stimulus,1,392,0.381,1.0,NoAct
1624877750.03,fixation,1,392,,0.0,NoAct
1624877751.971,stimulus,1,393,0.441,1.0,NoAct
1624877752.03,fixation,1,393,,0.0,NoAct
1624877753.83,stimulus,1,394,0.3,1.0,NoAct
1624877754.03,fixation,1,394,,0.0,NoAct
1624877755.852,stimulus,1,395,0.322,1.0,NoAct
1624877756.03,fixation,1,395,,0.0,NoAct
1624877757.942,stimulus,1,396,0.412,1.0,NoAct
1624877758.03,fixation,1,396,,0.0,NoAct
1624877759.866,stimulus,1,397,0.336,1.0,NoAct
1624877760.03,fixation,1,397,,0.0,NoAct
1624877761.53,stimulus,1,398,,,PerfumeSession
1624877762.03,fixation,1,398,,,PerfumeSession
1624877763.53,stimulus,1,399,,,PerfumeSession
1624877764.03,fixation,1,399,,,PerfumeSession
1624877765.53,stimulus,1,400,,,PerfumeSession
1624877766.03,fixation,1,400,,,PerfumeSession
1624877767.53,stimulus,1,401,,,PerfumeSession
1624877768.03,fixation,1,401,,,PerfumeSession
1624877769.53,stimulus,1,402,,,PerfumeSession
1624877770.03,fixation,1,402,,,PerfumeSession
1624877771.53,stimulus,1,403,,,PerfumeSession
1624877772.03,fixation,1,403,,,PerfumeSession
1624877773.53,stimulus,1,404,,,PerfumeSession
1624877774.03,fixation,1,404,,,PerfumeSession
1624877775.53,stimulus,1,405,,,PerfumeSession
1624877776.03,fixation,1,405,,,PerfumeSession
1624877777.53,stimulus,1,406,,,PerfumeSession
1624877778.03,fixation,1,406,,,PerfumeSession
1624877779.53,stimulus,1,407,,,PerfumeSession
1624877780.03,fixation,1,407,,,PerfumeSession
1624877781.53,stimulus,1,408,,,PerfumeSession
1624877782.03,fixation,1,408,,,PerfumeSession
1624877783.53,stimulus,1,409,,,PerfumeSession
1624877784.03,fixation,1,409,,,PerfumeSession
1624877785.53,stimulus,1,410,,,PerfumeSession
1624877786.03,fixation,1,410,,,PerfumeSession
1624877787.53,stimulus,1,411,,,PerfumeSession
1624877788.03,fixation,1,411,,,PerfumeSession
1624877789.53,stimulus,1,412,,,PerfumeSession
1624877790.03,fixation,1,412,,,PerfumeSession
1624877791.53,stimulus,1,413,,,PerfumeSession
1624877792.03,fixation,1,413,,,PerfumeSession
1624877793.53,stimulus,1,414,,,PerfumeSession
1624877794.03,fixation,1,414,,,PerfumeSession
1624877795.53,stimulus,1,415,,,PerfumeSession
1624877796.03,fixation,1,415,,,PerfumeSession
1624877797.53,stimulus,1,416,,,PerfumeSession
1624877798.03,fixation,1,416,,,PerfumeSession
1624877799.53,stimulus,1,417,,,PerfumeSession
1624877800.03,fixation,1,417,,,PerfumeSession
1624877801.53,stimulus,1,418,,,PerfumeSession
1624877802.03,fixation,1,418,,,PerfumeSession
1624877803.53,stimulus,1,419,,,PerfumeSession
1624877804.03,fixation,1,419,,,PerfumeSession
1624877805.53,stimulus,1,420,,,PerfumeSession
1624877806.03,fixation,1,420,,,PerfumeSession
1624877807.53,stimulus,1,421,,,PerfumeSession
1624877808.03,fixation,1,421,,,PerfumeSession
1624877809.53,stimulus,1,422,,,PerfumeSession
1624877810.03,fixation,1,422,,,PerfumeSession
1624877811.53,stimulus,1,423,,,PerfumeSession
1624877812.03,fixation,1,423,,,PerfumeSession
1624877813.53,stimulus,1,424,,,PerfumeSession
1624877814.03,fixation,1,424,,,PerfumeSession
1624877815.53,stimulus,1,425,,,PerfumeSession
1624877816.03,fixation,1,425,,,PerfumeSession
1624877817.53,stimulus,1,426,,,PerfumeSession
1624877818.03,fixation,1,426,,,PerfumeSession
1624877819.53,stimulus,1,427,,,PerfumeSession
1624877820.03,fixation,1,427,,,PerfumeSession
1624877821.53,stimulus,1,428,,,PerfumeSession
1624877822.03,fixation,1,428,,,PerfumeSession
1624877823.53,stimulus,1,429,,,PerfumeSession
1624877824.03,fixation,1,429,,,PerfumeSession
1624877825.53,stimulus,1,430,,,PerfumeSession
1624877826.03,fixation,1,430,,,PerfumeSession
1624877827.53,stimulus,1,431,,,PerfumeSession
1624877828.03,fixation,1,431,,,PerfumeSession
1624877829.53,stimulus,1,432,,,PerfumeSession
1624877830.03,fixation,1,432,,,PerfumeSession
1624877831.53,stimulus,1,433,,,PerfumeSession
1624877832.03,fixation,1,433,,,PerfumeSession
1624877833.53,stimulus,1,434,,,PerfumeSession
1624877834.03,fixation,1,434,,,PerfumeSession
1624877835.53,stimulus,1,435,,,PerfumeSession
1624877836.03,fixation,1,435,,,PerfumeSession
1624877837.53,stimulus,1,436,,,PerfumeSession
1624877838.03,fixation,1,436,,,PerfumeSession
1624877839.53,stimulus,1,437,,,PerfumeSession
1624877840.03,fixation,1,437,,,PerfumeSession
1624877841.53,stimulus,1,438,,,PerfumeSession
1624877842.03,fixation,1,438,,,PerfumeSession
1624877843.53,stimulus,1,439,,,PerfumeSession
1624877844.03,fixation,1,439,,,PerfumeSession
1624877845.53,stimulus,1,440,,,PerfumeSession
1624877846.03,fixation,1,440,,,PerfumeSession
1624877847.53,stimulus,1,441,,,PerfumeSession
1624877848.03,fixation,1,441,,,PerfumeSession
1624877849.53,stimulus,1,442,,,PerfumeSession
1624877850.03,fixation,1,442,,,PerfumeSession
1624877851.53,stimulus,1,443,,,PerfumeSession
1624877852.03,fixation,1,443,,,PerfumeSession
1624877853.53,stimulus,1,444,,,PerfumeSession
1624877854.03,fixation,1,444,,,PerfumeSession
1624877855.53,stimulus,1,445,,,PerfumeSession
1624877856.03,fixation,1,445,,,PerfumeSession
1624877857.53,stimulus,1,446,,,PerfumeSession
1624877858.03,fixation,1,446,,,PerfumeSession
1624877859.53,stimulus,1,447,,,PerfumeSession
1624877860.03,fixation,1,447,,,PerfumeSession
1624877861.53,stimulus,1,448,,,PerfumeSession
1624877862.03,fixation,1,448,,,PerfumeSession
1624877863.53,stimulus,1,449,,,PerfumeSession
1624877864.03,fixation,1,449,,,PerfumeSession
1624877865.53,stimulus,1,450,,,PerfumeSession
1624877866.03,fixation,1,450,,,PerfumeSession
1624877867.53,stimulus,1,451,,,PerfumeSession
1624877868.03,fixation,1,451,,,PerfumeSession
1624877869.53,stimulus,1,452,,,PerfumeSession
1624877870.03,fixation,1,452,,,PerfumeSession
1624877871.53,stimulus,1,453,,,PerfumeSession
1624877872.03,fixation,1,453,,,PerfumeSession
1624877873.53,stimulus,1,454,,,PerfumeSession
1624877874.03,fixation,1,454,,,PerfumeSession
1624877875.53,stimulus,1,455,,,PerfumeSession
1624877876.03,fixation,1,455,,,PerfumeSession
1624877877.53,stimulus,1,456,,,PerfumeSession
1624877878.03,fixation,1,456,,,PerfumeSession
1624877879.53,stimulus,1,457,,,PerfumeSession
1624877880.03,fixation,1,457,,,PerfumeSession
1624877881.53,stimulus,1,458,,,PerfumeSession
1624877882.03,fixation,1,458,,,PerfumeSession
1624877883.53,stimulus,1,459,,,PerfumeSession
1624877884.03,fixation,1,459,,,PerfumeSession
1624877885.53,stimulus,1,460,,,PerfumeSession
1624877886.03,fixation,1,460,,,PerfumeSession
1624877887.53,stimulus,1,461,,,PerfumeSession
1624877888.03,fixation,1,461,,,PerfumeSession
1624877889.53,stimulus,1,462,,,PerfumeSession
1624877890.03,fixation,1,462,,,PerfumeSession
1624877891.53,stimulus,1,463,,,PerfumeSession
1624877892.03,fixation,1,463,,,PerfumeSession
1624877893.53,stimulus,1,464,,,PerfumeSession
1624877894.03,fixation,1,464,,,PerfumeSession
1624877895.53,stimulus,1,465,,,PerfumeSession
1624877896.03,fixation,1,465,,,PerfumeSession
1624877897.53,stimulus,1,466,,,PerfumeSession
1624877898.03,fixation,1,466,,,PerfumeSession
1624877899.53,stimulus,1,467,,,PerfumeSession
1624877900.03,fixation,1,467,,,PerfumeSession
1624877901.53,stimulus,1,468,,,PerfumeSession
1624877902.03,fixation,1,468,,,PerfumeSession
1624877903.53,stimulus,1,469,,,PerfumeSession
1624877904.03,fixation,1,469,,,PerfumeSession
1624877905.23,stimulus,2,1,,,PracticeSession
1624877905.53,stimulus,1,470,,,PerfumeSession
1624877905.73,fixation,2,1,,,PracticeSession
1624877906.03,fixation,1,470,,,PerfumeSession
1624877907.23,stimulus,2,2,,,PracticeSession
1624877907.53,stimulus,1,471,,,PerfumeSession
1624877907.73,fixation,2,2,,,PracticeSession
1624877908.03,fixation,1,471,,,PerfumeSession
1624877909.23,stimulus,2,3,,,PracticeSession
1624877909.53,stimulus,1,472,,,PerfumeSession
1624877909.73,fixation,2,3,,,PracticeSession
1624877910.03,fixation,1,472,,,PerfumeSession
1624877911.23,stimulus,2,4,,,PracticeSession
1624877911.53,stimulus,1,473,,,PerfumeSession
1624877911.73,fixation,2,4,,,PracticeSession
1624877912.03,fixation,1,473,,,PerfumeSession
1624877913.23,stimulus,2,5,,,PracticeSession
1624877913.53,stimulus,1,474,,,PerfumeSession
1624877913.73,fixation,2,5,,,PracticeSession
1624877914.03,fixation,1,474,,,PerfumeSession
1624877915.23,stimulus,2,6,,,PracticeSession
1624877915.53,stimulus,1,475,,,PerfumeSession
1624877915.73,fixation,2,6,,,PracticeSession
1624877916.03,fixation,1,475,,,PerfumeSession
1624877917.23,stimulus,2,7,,,PracticeSession
1624877917.53,stimulus,1,476,,,PerfumeSession
1624877917.73,fixation,2,7,,,PracticeSession
1624877918.03,fixation,1,476,,,PerfumeSession
1624877919.23,stimulus,2,8,,,PracticeSession
1624877919.53,stimulus,1,477,,,PerfumeSession
1624877919.73,fixation,2,8,,,PracticeSession
1624877920.03,fixation,1,477,,,PerfumeSession
1624877921.23,stimulus,2,9,,,PracticeSession
1624877921.53,stimulus,1,478,,,PerfumeSession
1624877921.73,fixation,2,9,,,PracticeSession
1624877922.03,fixation,1,478,,,PerfumeSession
1624877923.23,stimulus,2,10,,,PracticeSession
1624877923.53,stimulus,1,479,,,PerfumeSession
1624877923.73,fixation,2,10,,,PracticeSession
1624877924.03,fixation,1,479,,,PerfumeSession
1624877925.23,stimulus,2,11,,,PracticeSession
1624877925.53,stimulus,1,480,,,PerfumeSession
1624877925.73,fixation,2,11,,,PracticeSession
1624877926.03,fixation,1,480,,,PerfumeSession
1624877927.23,stimulus,2,12,,,PracticeSession
1624877927.53,stimulus,1,481,,,PerfumeSession
1624877927.73,fixation,2,12,,,PracticeSession
1624877928.03,fixation,1,481,,,PerfumeSession
1624877929.23,stimulus,2,13,,,PracticeSession
1624877929.53,stimulus,1,482,,,PerfumeSession
1624877929.73,fixation,2,13,,,PracticeSession
1624877930.03,fixation,1,482,,,PerfumeSession
1624877931.23,stimulus,2,14,,,PracticeSession
1624877931.53,stimulus,1,483,,,PerfumeSession
1624877931.73,fixation,2,14,,,PracticeSession
1624877932.03,fixation,1,483,,,PerfumeSession
1624877933.23,stimulus,2,15,,,PracticeSession
1624877933.53,stimulus,1,484,,,PerfumeSession
1624877933.73,fixation,2,15,,,PracticeSession
1624877934.03,fixation,1,484,,,PerfumeSession
1624877935.23,stimulus,2,16,,,PracticeSession
1624877935.53,stimulus,1,485,,,PerfumeSession
1624877935.73,fixation,2,16,,,PracticeSession
1624877936.03,fixation,1,485,,,PerfumeSession
1624877937.23,stimulus,2,17,,,PracticeSession
1624877937.53,stimulus,1,486,,,PerfumeSession
1624877937.73,fixation,2,17,,,PracticeSession
1624877938.03,fixation,1,486,,,PerfumeSession
1624877939.23,stimulus,2,18,,,PracticeSession
1624877939.53,stimulus,1,487,,,PerfumeSession
1624877939.73,fixation,2,18,,,PracticeSession
1624877940.03,fixation,1,487,,,PerfumeSession
1624877941.23,stimulus,2,19,,,PracticeSession
1624877941.53,stimulus,1,488,,,PerfumeSession
1624877941.73,fixation,2,19,,,PracticeSession
1624877942.03,fixation,1,488,,,PerfumeSession
1624877943.23,stimulus,2,20,,,PracticeSession
1624877943.53,stimulus,1,489,,,PerfumeSession
1624877943.73,fixation,2,20,,,PracticeSession
1624877944.03,fixation,1,489,,,PerfumeSession
1624877945.23,stimulus,2,21,,,PracticeSession
1624877945.53,stimulus,1,490,,,PerfumeSession
1624877945.73,fixation,2,21,,,PracticeSession
1624877946.03,fixation,1,490,,,PerfumeSession
1624877947.23,stimulus,2,22,,,PracticeSession
1624877947.53,stimulus,1,491,,,PerfumeSession
1624877947.73,fixation,2,22,,,PracticeSession
1624877948.03,fixation,1,491,,,PerfumeSession
1624877949.23,stimulus,2,23,,,PracticeSession
1624877949.53,stimulus,1,492,,,PerfumeSession
1624877949.73,fixation,2,23,,,PracticeSession
1624877950.03,fixation,1,492,,,PerfumeSession
1624877951.23,stimulus,2,24,,,PracticeSession
1624877951.53,stimulus,1,493,,,PerfumeSession
1624877951.73,fixation,2,24,,,PracticeSession
1624877952.03,fixation,1,493,,,PerfumeSession
1624877953.23,stimulus,2,25,,,PracticeSession
1624877953.53,stimulus,1,494,,,PerfumeSession
1624877953.73,fixation,2,25,,,PracticeSession
1624877954.03,fixation,1,494,,,PerfumeSession
1624877955.23,stimulus,2,26,,,PracticeSession
1624877955.53,stimulus,1,495,,,PerfumeSession
1624877955.73,fixation,2,26,,,PracticeSession
1624877956.03,fixation,1,495,,,PerfumeSession
1624877957.23,stimulus,2,27,,,PracticeSession
1624877957.53,stimulus,1,496,,,PerfumeSession
1624877957.73,fixation,2,27,,,PracticeSession
1624877958.03,fixation,1,496,,,PerfumeSession
1624877959.23,stimulus,2,28,,,PracticeSession
1624877959.53,stimulus,1,497,,,PerfumeSession
1624877959.73,fixation,2,28,,,PracticeSession
1624877960.03,fixation,1,497,,,PerfumeSession
1624877961.23,stimulus,2,29,,,PracticeSession
1624877961.53,stimulus,1,498,,,PerfumeSession
1624877961.73,fixation,2,29,,,PracticeSession
1624877962.03,fixation,1,498,,,PerfumeSession
1624877963.23,stimulus,2,30,,,PracticeSession
1624877963.53,stimulus,1,499,,,PerfumeSession
1624877963.73,fixation,2,30,,,PracticeSession
1624877964.03,fixation,1,499,,,PerfumeSession
1624877965.23,stimulus,2,31,,,PracticeSession
1624877965.53,stimulus,1,500,,,PerfumeSession
1624877965.73,fixation,2,31,,,PracticeSession
1624877966.03,fixation,1,500,,,PerfumeSession
1624877967.23,stimulus,2,32,,,PracticeSession
1624877967.53,stimulus,1,501,,,PerfumeSession
1624877967.73,fixation,2,32,,,PracticeSession
1624877968.03,fixation,1,501,,,PerfumeSession
1624877969.23,stimulus,2,33,,,PracticeSession
1624877969.53,stimulus,1,502,,,PerfumeSession
1624877969.73,fixation,2,33,,,PracticeSession
1624877970.03,fixation,1,502,,,PerfumeSession
1624877971.23,stimulus,2,34,,,PracticeSession
1624877971.53,stimulus,1,503,,,PerfumeSession
1624877971.73,fixation,2,34,,,PracticeSession
1624877972.03,fixation,1,503,,,PerfumeSession
1624877973.23,stimulus,2,35,,,PracticeSession
1624877973.53,stimulus,1,504,,,PerfumeSession
1624877973.73,fixation,2,35,,,PracticeSession
1624877974.03,fixation,1,504,,,PerfumeSession
1624877975.23,stimulus,2,36,,,PracticeSession
1624877975.53,stimulus,1,505,,,PerfumeSession
1624877975.73,fixation,2,36,,,PracticeSession
1624877976.03,fixation,1,505,,,PerfumeSession
1624877977.23,stimulus,2,37,,,PracticeSession
1624877977.53,stimulus,1,506,,,PerfumeSession
1624877977.73,fixation,2,37,,,PracticeSession
1624877978.03,fixation,1,506,,,PerfumeSession
1624877979.23,stimulus,2,38,,,PracticeSession
1624877979.53,stimulus,1,507,,,PerfumeSession
1624877979.73,fixation,2,38,,,PracticeSession
1624877980.03,fixation,1,507,,,PerfumeSession
1624877981.23,stimulus,2,39,,,PracticeSession
1624877981.53,stimulus,1,508,,,PerfumeSession
1624877981.73,fixation,2,39,,,PracticeSession
1624877982.03,fixation,1,508,,,PerfumeSession
1624877983.23,stimulus,2,40,,,PracticeSession
1624877983.53,stimulus,1,509,,,PerfumeSession
1624877983.73,fixation,2,40,,,PracticeSession
1624877984.03,fixation,1,509,,,PerfumeSession
1624877985.23,stimulus,2,41,,,PracticeSession
1624877985.53,stimulus,1,510,,,PerfumeSession
1624877985.73,fixation,2,41,,,PracticeSession
1624877986.03,fixation,1,510,,,PerfumeSession
1624877987.23,stimulus,2,42,,,PracticeSession
1624877987.53,stimulus,1,511,,,PerfumeSession
1624877987.73,fixation,2,42,,,PracticeSession
1624877988.03,fixation,1,511,,,PerfumeSession
1624877989.23,stimulus,2,43,,,PracticeSession
1624877989.53,stimulus,1,512,,,PerfumeSession
1624877989.73,fixation,2,43,,,PracticeSession
1624877990.03,fixation,1,512,,,PerfumeSession
1624877991.23,stimulus,2,44,,,PracticeSession
1624877991.53,stimulus,1,513,,,PerfumeSession
1624877991.73,fixation,2,44,,,PracticeSession
1624877992.03,fixation,1,513,,,PerfumeSession
1624877993.23,stimulus,2,45,,,NoAct
1624877993.53,stimulus,1,514,,,PerfumeSession
1624877993.73,fixation,2,45,,,NoAct
1624877994.03,fixation,1,514,,,PerfumeSession
1624877995.23,stimulus,2,46,,,NoAct
1624877995.53,stimulus,1,515,,,PerfumeSession
1624877995.73,fixation,2,46,,,NoAct
1624877996.03,fixation,1,515,,,PerfumeSession
1624877997.23,stimulus,2,47,,,NoAct
1624877997.53,stimulus,1,516,,,PerfumeSession
1624877997.73,fixation,2,47,,,NoAct
1624877998.03,fixation,1,516,,,PerfumeSession
1624877999.23,stimulus,2,48,,,NoAct
1624877999.53,stimulus,1,517,,,PerfumeSession
1624877999.73,fixation,2,48,,,NoAct
1624878000.03,fixation,1,517,,,PerfumeSession
1624878001.23,stimulus,2,49,,,NoAct
1624878001.53,stimulus,1,518,,,PerfumeSession
1624878001.73,fixation,2,49,,,NoAct
1624878002.03,fixation,1,518,,,PerfumeSession
1624878003.23,stimulus,2,50,,,NoAct
1624878003.53,stimulus,1,519,,,PerfumeSession
1624878003.73,fixation,2,50,,,NoAct
1624878004.03,fixation,1,519,,,PerfumeSession
1624878005.23,stimulus,2,51,,,NoAct
1624878005.53,stimulus,1,520,,,PerfumeSession
1624878005.73,fixation,2,51,,,NoAct
1624878006.03,fixation,1,520,,,PerfumeSession
1624878007.23,stimulus,2,52,,,NoAct
1624878007.53,stimulus,1,521,,,PerfumeSession
1624878007.73,fixation,2,52,,,NoAct
1624878008.03,fixation,1,521,,,PerfumeSession
1624878009.23,stimulus,2,53,,,NoAct
1624878009.53,stimulus,1,522,,,PerfumeSession
1624878009.73,fixation,2,53,,,NoAct
1624878010.03,fixation,1,522,,,PerfumeSession
1624878011.23,stimulus,2,54,,,NoAct
1624878011.53,stimulus,1,523,,,PerfumeSession
1624878011.73,fixation,2,54,,,NoAct
1624878012.03,fixation,1,523,,,PerfumeSession
1624878013.23,stimulus,2,55,,,NoAct
1624878013.53,stimulus,1,524,,,PerfumeSession
1624878013.73,fixation,2,55,,,NoAct
1624878014.03,fixation,1,524,,,PerfumeSession
1624878015.23,stimulus,2,56,,,NoAct
1624878015.53,stimulus,1,525,,,PerfumeSession
1624878015.73,fixation,2,56,,,NoAct
1624878016.03,fixation,1,525,,,PerfumeSession
1624878017.23,stimulus,2,57,,,NoAct
1624878017.53,stimulus,1,526,,,PerfumeSession
1624878017.73,fixation,2,57,,,NoAct
1624878018.03,fixation,1,526,,,PerfumeSession
1624878019.23,stimulus,2,58,,,NoAct
1624878019.53,stimulus,1,527,,,PerfumeSession
1624878019.73,fixation,2,58,,,NoAct
1624878020.03,fixation,1,527,,,PerfumeSession
1624878021.23,stimulus,2,59,,,NoAct
1624878021.53,stimulus,1,528,,,PerfumeSession
1624878021.73,fixation,2,59,,,NoAct
1624878022.03,fixation,1,528,,,PerfumeSession
1624878023.23,stimulus,2,60,,,NoAct
1624878023.53,stimulus,1,529,,,PerfumeSession
1624878023.73,fixation,2,60,,,NoAct
1624878024.03,fixation,1,529,,,PerfumeSession
1624878025.23,stimulus,2,61,,,NoAct
1624878025.53,stimulus,1,530,,,PerfumeSession
1624878025.73,fixation,2,61,,,NoAct
1624878026.03,fixation,1,530,,,PerfumeSession
1624878027.23,stimulus,2,62,,,NoAct
1624878027.53,stimulus,1,531,,,PerfumeSession
1624878027.73,fixation,2,62,,,NoAct
1624878028.03,fixation,1,531,,,PerfumeSession
1624878029.23,stimulus,2,63,,,NoAct
1624878029.53,stimulus,1,532,,,PerfumeSession
1624878029.73,fixation,2,63,,,NoAct
1624878030.03,fixation,1,532,,,PerfumeSession
1624878031.23,stimulus,2,64,,,NoAct
1624878031.53,stimulus,1,533,,,PerfumeSession
1624878031.73,fixation,2,64,,,NoAct
1624878032.03,fixation,1,533,,,PerfumeSession
1624878033.23,stimulus,2,65,,,NoAct
1624878033.53,stimulus,1,534,,,PerfumeSession
1624878033.73,fixation,2,65,,,NoAct
1624878034.03,fixation,1,534,,,PerfumeSession
1624878035.23,stimulus,2,66,,,NoAct
1624878035.53,stimulus,1,535,,,PerfumeSession
1624878035.73,fixation,2,66,,,NoAct
1624878036.03,fixation,1,535,,,PerfumeSession
1624878037.23,stimulus,2,67,,,NoAct
1624878037.53,stimulus,1,536,,,PerfumeSession
1624878037.73,fixation,2,67,,,NoAct
1624878038.03,fixation,1,536,,,PerfumeSession
1624878039.23,stimulus,2,68,,,NoAct
1624878039.53,stimulus,1,537,,,PerfumeSession
1624878039.73,fixation,2,68,,,NoAct
1624878040.03,fixation,1,537,,,PerfumeSession
1624878041.23,stimulus,2,69,,,NoAct
1624878041.53,stimulus,1,538,,,PerfumeSession
1624878041.73,fixation,2,69,,,NoAct
1624878042.03,fixation,1,538,,,PerfumeSession
1624878043.23,stimulus,2,70,,,NoAct
1624878043.53,stimulus,1,539,,,PerfumeSession
1624878043.73,fixation,2,70,,,NoAct
1624878044.03,fixation,1,539,,,PerfumeSession
1624878045.23,stimulus,2,71,,,NoAct
1624878045.53,stimulus,1,540,,,PerfumeSession
1624878045.73,fixation,2,71,,,NoAct
1624878046.03,fixation,1,540,,,PerfumeSession
1624878047.23,stimulus,2,72,,,NoAct
1624878047.53,stimulus,1,541,,,PerfumeSession
1624878047.73,fixation,2,72,,,NoAct
1624878048.03,fixation,1,541,,,PerfumeSession
1624878049.23,stimulus,2,73,,,NoAct
1624878049.53,stimulus,1,542,,,PerfumeSession
1624878049.73,fixation,2,73,,,NoAct
1624878050.03,fixation,1,542,,,PerfumeSession
1624878051.23,stimulus,2,74,,,NoAct
1624878051.53,stimulus,1,543,,,PerfumeSession
1624878051.73,fixation,2,74,,,NoAct
1624878052.03,fixation,1,543,,,PerfumeSession
1624878053.23,stimulus,2,75,,,NoAct
1624878053.53,stimulus,1,544,,,PerfumeSession
1624878053.73,fixation,2,75,,,NoAct
1624878054.03,fixation,1,544,,,PerfumeSession
1624878055.23,stimulus,2,76,,,NoAct
1624878055.53,stimulus,1,545,,,PerfumeSession
1624878055.73,fixation,2,76,,,NoAct
1624878056.03,fixation,1,545,,,PerfumeSession
1624878057.23,stimulus,2,77,,,NoAct
1624878057.53,stimulus,1,546,,,PerfumeSession
1624878057.73,fixation,2,77,,,NoAct
1624878058.03,fixation,1,546,,,PerfumeSession
1624878059.23,stimulus,2,78,,,NoAct
1624878059.53,stimulus,1,547,,,PerfumeSession
1624878059.73,fixation,2,78,,,NoAct
1624878060.03,fixation,1,547,,,PerfumeSession
1624878061.23,stimulus,2,79,,,NoAct
1624878061.53,stimulus,1,548,,,PerfumeSession
1624878061.73,fixation,2,79,,,NoAct
1624878062.03,fixation,1,548,,,PerfumeSession
1624878063.23,stimulus,2,80,,,NoAct
1624878063.53,stimulus,1,549,,,PerfumeSession
1624878063.73,fixation,2,80,,,NoAct
1624878064.03,fixation,1,549,,,PerfumeSession
1624878065.23,stimulus,2,81,,,NoAct
1624878065.53,stimulus,1,550,,,PerfumeSession
1624878065.73,fixation,2,81,,,NoAct
1624878066.03,fixation,1,550,,,PerfumeSession
1624878067.23,stimulus,2,82,,,NoAct
1624878067.53,stimulus,1,551,,,PerfumeSession
1624878067.73,fixation,2,82,,,NoAct
1624878068.03,fixation,1,551,,,PerfumeSession
1624878069.23,stimulus,2,83,,,NoAct
1624878069.53,stimulus,1,552,,,PerfumeSession
1624878069.73,fixation,2,83,,,NoAct
1624878070.03,fixation,1,552,,,PerfumeSession
1624878071.23,stimulus,2,84,,,NoAct
1624878071.53,stimulus,1,553,,,PerfumeSession
1624878071.73,fixation,2,84,,,NoAct
1624878072.03,fixation,1,553,,,PerfumeSession
1624878073.23,stimulus,2,85,,,NoAct
1624878073.53,stimulus,1,554,,,PerfumeSession
1624878073.73,fixation,2,85,,,NoAct
1624878074.03,fixation,1,554,,,PerfumeSession
1624878075.23,stimulus,2,86,,,NoAct
1624878075.53,stimulus,1,555,,,PerfumeSession
1624878075.73,fixation,2,86,,,NoAct
1624878076.03,fixation,1,555,,,PerfumeSession
1624878077.23,stimulus,2,87,,,NoAct
1624878077.53,stimulus,1,556,,,PerfumeSession
1624878077.73,fixation,2,87,,,NoAct
1624878078.03,fixation,1,556,,,PerfumeSession
1624878079.23,stimulus,2,88,,,NoAct
1624878079.53,stimulus,1,557,,,PerfumeSession
1624878079.73,fixation,2,88,,,NoAct
1624878080.03,fixation,1,557,,,PerfumeSession
1624878081.23,stimulus,2,89,,,NoAct
1624878081.53,stimulus,1,558,,,PerfumeSession
1624878081.73,fixation,2,89,,,NoAct
1624878082.03,fixation,1,558,,,PerfumeSession
1624878083.23,stimulus,2,90,,,NoAct
1624878083.53,stimulus,1,559,,,PerfumeSession
1624878083.73,fixation,2,90,,,NoAct
1624878084.03,fixation,1,559,,,PerfumeSession
1624878085.23,stimulus,2,91,,,NoAct
1624878085.53,stimulus,1,560,,,PerfumeSession
1624878085.73,fixation,2,91,,,NoAct
1624878086.03,fixation,1,560,,,PerfumeSession
1624878087.23,stimulus,2,92,,,NoAct
1624878087.53,stimulus,1,561,,,PerfumeSession
1624878087.73,fixation,2,92,,,NoAct
1624878088.03,fixation,1,561,,,PerfumeSession
1624878089.23,stimulus,2,93,,,NoAct
1624878089.53,stimulus,1,562,,,PerfumeSession
1624878089.73,fixation,2,93,,,NoAct
1624878090.03,fixation,1,562,,,PerfumeSession
1624878091.23,stimulus,2,94,,,NoAct
1624878091.53,stimulus,1,563,,,PerfumeSession
1624878091.73,fixation,2,94,,,NoAct
1624878092.03,fixation,1,563,,,PerfumeSession
1624878093.23,stimulus,2,95,,,NoAct
1624878093.53,stimulus,1,564,,,PerfumeSession
1624878093.73,fixation,2,95,,,NoAct
1624878094.03,fixation,1,564,,,PerfumeSession
1624878095.23,stimulus,2,96,,,NoAct
1624878095.53,stimulus,1,565,,,PerfumeSession
1624878095.73,fixation,2,96,,,NoAct
1624878096.03,fixation,1,565,,,PerfumeSession
1624878097.23,stimulus,2,97,,,NoAct
1624878097.53,stimulus,1,566,,,PerfumeSession
1624878097.73,fixation,2,97,,,NoAct
1624878098.03,fixation,1,566,,,PerfumeSession
1624878099.23,stimulus,2,98,,,NoAct
1624878099.53,stimulus,1,567,,,PerfumeSession
1624878099.73,fixation,2,98,,,NoAct
1624878100.03,fixation,1,567,,,PerfumeSession
1624878101.23,stimulus,2,99,,,NoAct
1624878101.53,stimulus,1,568,,,PerfumeSession
1624878101.73,fixation,2,99,,,NoAct
1624878102.03,fixation,1,568,,,PerfumeSession
1624878103.23,stimulus,2,100,,,NoAct
1624878103.53,stimulus,1,569,,,PerfumeSession
1624878103.73,fixation,2,100,,,NoAct
1624878104.03,fixation,1,569,,,PerfumeSession
1624878105.23,stimulus,2,101,,,NoAct
1624878105.53,stimulus,1,570,,,PerfumeSession
1624878105.73,fixation,2,101,,,NoAct
1624878106.03,fixation,1,570,,,PerfumeSession
1624878107.23,stimulus,2,102,,,NoAct
1624878107.53,stimulus,1,571,,,PerfumeSession
1624878107.73,fixation,2,102,,,NoAct
1624878108.03,fixation,1,571,,,PerfumeSession
1624878109.23,stimulus,2,103,,,NoAct
1624878109.53,stimulus,1,572,,,PerfumeSession
1624878109.73,fixation,2,103,,,NoAct
1624878110.03,fixation,1,572,,,PerfumeSession
1624878111.23,stimulus,2,104,,,NoAct
1624878111.53,stimulus,1,573,,,PerfumeSession
1624878111.73,fixation,2,104,,,NoAct
1624878112.03,fixation,1,573,,,PerfumeSession
1624878113.23,stimulus,2,105,,,NoAct
1624878113.53,stimulus,1,574,,,PerfumeSession
1624878113.73,fixation,2,105,,,NoAct
1624878114.03,fixation,1,574,,,PerfumeSession
1624878115.23,stimulus,2,106,,,NoAct
1624878115.53,stimulus,1,575,,,PerfumeSession
1624878115.73,fixation,2,106,,,NoAct
1624878116.03,fixation,1,575,,,PerfumeSession
1624878117.23,stimulus,2,107,,,NoAct
1624878117.53,stimulus,1,576,,,PerfumeSession
1624878117.73,fixation,2,107,,,NoAct
1624878118.03,fixation,1,576,,,PerfumeSession
1624878119.23,stimulus,2,108,,,NoAct
1624878119.53,stimulus,1,577,,,PerfumeSession
1624878119.73,fixation,2,108,,,NoAct
1624878120.03,fixation,1,577,,,PerfumeSession
1624878121.23,stimulus,2,109,,,NoAct
1624878121.53,stimulus,1,578,,,PerfumeSession
1624878121.73,fixation,2,109,,,NoAct
1624878122.03,fixation,1,578,,,PerfumeSession
1624878123.23,stimulus,2,110,,,NoAct
1624878123.53,stimulus,1,579,,,PerfumeSession
1624878123.73,fixation,2,110,,,NoAct
1624878124.03,fixation,1,579,,,PerfumeSession
1624878125.23,stimulus,2,111,,,NoAct
1624878125.53,stimulus,1,580,,,PerfumeSession
1624878125.73,fixation,2,111,,,NoAct
1624878126.03,fixation,1,580,,,PerfumeSession
1624878127.23,stimulus,2,112,,,NoAct
1624878127.53,stimulus,1,581,,,PerfumeSession
1624878127.73,fixation,2,112,,,NoAct
1624878128.03,fixation,1,581,,,PerfumeSession
1624878129.23,stimulus,2,113,,,NoAct
1624878129.53,stimulus,1,582,,,PerfumeSession
1624878129.73,fixation,2,113,,,NoAct
1624878130.03,fixation,1,582,,,PerfumeSession
1624878131.23,stimulus,2,114,,,NoAct
1624878131.53,stimulus,1,583,,,PerfumeSession
1624878131.73,fixation,2,114,,,NoAct
1624878132.03,fixation,1,583,,,PerfumeSession
1624878133.23,stimulus,2,115,,,NoAct
1624878133.53,stimulus,1,584,,,PerfumeSession
1624878133.73,fixation,2,115,,,NoAct
1624878134.03,fixation,1,584,,,PerfumeSession
1624878135.23,stimulus,2,116,,,NoAct
1624878135.53,stimulus,1,585,,,PerfumeSession
1624878135.73,fixation,2,116,,,NoAct
1624878136.03,fixation,1,585,,,PerfumeSession
1624878137.23,stimulus,2,117,,,NoAct
1624878137.53,stimulus,1,586,,,PerfumeSession
1624878137.73,fixation,2,117,,,NoAct
1624878138.03,fixation,1,586,,,PerfumeSession
1624878139.23,stimulus,2,118,,,NoAct
1624878139.53,stimulus,1,587,,,PerfumeSession
1624878139.73,fixation,2,118,,,NoAct
1624878140.03,fixation,1,587,,,PerfumeSession
1624878141.23,stimulus,2,119,,,NoAct
1624878141.53,stimulus,1,588,,,PerfumeSession
1624878141.73,fixation,2,119,,,NoAct
1624878142.03,fixation,1,588,,,PerfumeSession
1624878143.23,stimulus,2,120,,,NoAct
1624878143.53,stimulus,1,589,,,PerfumeSession
1624878143.73,fixation,2,120,,,NoAct
1624878144.03,fixation,1,589,,,PerfumeSession
1624878145.23,stimulus,2,121,,,NoAct
1624878145.53,stimulus,1,590,,,PerfumeSession
1624878145.73,fixation,2,121,,,NoAct
1624878146.03,fixation,1,590,,,PerfumeSession
1624878147.23,stimulus,2,122,,,NoAct
1624878147.53,stimulus,1,591,,,PerfumeSession
1624878147.73,fixation,2,122,,,NoAct
1624878148.03,fixation,1,591,,,PerfumeSession
1624878149.23,stimulus,2,123,,,NoAct
1624878149.53,stimulus,1,592,,,PerfumeSession
1624878149.73,fixation,2,123,,,NoAct
1624878150.03,fixation,1,592,,,PerfumeSession
1624878151.23,stimulus,2,124,,,NoAct
1624878151.53,stimulus,1,593,,,PerfumeSession
1624878151.73,fixation,2,124,,,NoAct
1624878152.03,fixation,1,593,,,PerfumeSession
1624878153.23,stimulus,2,125,,,NoAct
1624878153.53,stimulus,1,594,,,PerfumeSession
1624878153.73,fixation,2,125,,,NoAct
1624878154.03,fixation,1,594,,,PerfumeSession
1624878155.23,stimulus,2,126,,,NoAct
1624878155.53,stimulus,1,595,,,PerfumeSession
1624878155.73,fixation,2,126,,,NoAct
1624878156.03,fixation,1,595,,,PerfumeSession
1624878157.23,stimulus,2,127,,,NoAct
1624878157.53,stimulus,1,596,,,PerfumeSession
1624878157.73,fixation,2,127,,,NoAct
1624878158.03,fixation,1,596,,,PerfumeSession
1624878159.23,stimulus,2,128,,,NoAct
1624878159.53,stimulus,1,597,,,PerfumeSession
1624878159.73,fixation,2,128,,,NoAct
1624878160.03,fixation,1,597,,,PerfumeSession
1624878161.23,stimulus,2,129,,,NoAct
1624878161.53,stimulus,1,598,,,PerfumeSession
1624878161.73,fixation,2,129,,,NoAct
1624878162.03,fixation,1,598,,,PerfumeSession
1624878163.23,stimulus,2,130,,,NoAct
1624878163.53,stimulus,1,599,,,PerfumeSession
1624878163.73,fixation,2,130,,,NoAct
1624878164.03,fixation,1,599,,,PerfumeSession
1624878165.23,stimulus,2,131,,,NoAct
1624878165.53,stimulus,1,600,,,PerfumeSession
1624878165.73,fixation,2,131,,,NoAct
1624878166.03,fixation,1,600,,,PerfumeSession
1624878167.23,stimulus,2,132,,,NoAct
1624878167.53,stimulus,1,601,,,PerfumeSession
1624878167.73,fixation,2,132,,,NoAct
1624878168.03,fixation,1,601,,,PerfumeSession
1624878169.23,stimulus,2,133,,,NoAct
1624878169.53,stimulus,1,602,,,PerfumeSession
1624878169.73,fixation,2,133,,,NoAct
1624878170.03,fixation,1,602,,,PerfumeSession
1624878171.23,stimulus,2,134,,,NoAct
1624878171.53,stimulus,1,603,,,PerfumeSession
1624878171.73,fixation,2,134,,,NoAct
1624878172.03,fixation,1,603,,,PerfumeSession
1624878173.23,stimulus,2,135,,,NoAct
1624878173.53,stimulus,1,604,,,PerfumeSession
1624878173.73,fixation,2,135,,,NoAct
1624878174.03,fixation,1,604,,,PerfumeSession
1624878175.23,stimulus,2,136,,,NoAct
1624878175.53,stimulus,1,605,,,PerfumeSession
1624878175.73,fixation,2,136,,,NoAct
1624878176.03,fixation,1,605,,,PerfumeSession
1624878177.23,stimulus,2,137,,,NoAct
1624878177.53,stimulus,1,606,,,PerfumeSession
1624878177.73,fixation,2,137,,,NoAct
1624878178.03,fixation,1,606,,,PerfumeSession
1624878179.23,stimulus,2,138,,,NoAct
1624878179.53,stimulus,1,607,,,PerfumeSession
1624878179.73,fixation,2,138,,,NoAct
1624878180.03,fixation,1,607,,,PerfumeSession
1624878181.23,stimulus,2,139,,,NoAct
1624878181.53,stimulus,1,608,,,PerfumeSession
1624878181.73,fixation,2,139,,,NoAct
1624878182.03,fixation,1,608,,,PerfumeSession
1624878183.23,stimulus,2,140,,,NoAct
1624878183.53,stimulus,1,609,,,PerfumeSession
1624878183.73,fixation,2,140,,,NoAct
1624878184.03,fixation,1,609,,,PerfumeSession
1624878185.23,stimulus,2,141,,,NoAct
1624878185.53,stimulus,1,610,,,PerfumeSession
1624878185.73,fixation,2,141,,,NoAct
1624878186.03,fixation,1,610,,,PerfumeSession
1624878187.23,stimulus,2,142,,,NoAct
1624878187.53,stimulus,1,611,,,PerfumeSession
1624878187.73,fixation,2,142,,,NoAct
1624878188.03,fixation,1,611,,,PerfumeSession
1624878189.23,stimulus,2,143,,,NoAct
1624878189.53,stimulus,1,612,,,PerfumeSession
1624878189.73,fixation,2,143,,,NoAct
1624878190.03,fixation,1,612,,,PerfumeSession
1624878191.23,stimulus,2,144,,,NoAct
1624878191.53,stimulus,1,613,,,PerfumeSession
1624878191.73,fixation,2,144,,,NoAct
1624878192.03,fixation,1,613,,,PerfumeSession
1624878193.23,stimulus,2,145,,,NoAct
1624878193.53,stimulus,1,614,,,PerfumeSession
1624878193.73,fixation,2,145,,,NoAct
1624878194.03,fixation,1,614,,,PerfumeSession
1624878195.23,stimulus,2,146,,,NoAct
1624878195.53,stimulus,1,615,,,PerfumeSession
1624878195.73,fixation,2,146,,,NoAct
1624878196.03,fixation,1,615,,,PerfumeSession
1624878197.23,stimulus,2,147,,,NoAct
1624878197.53,stimulus,1,616,,,PerfumeSession
1624878197.73,fixation,2,147,,,NoAct
1624878198.03,fixation,1,616,,,PerfumeSession
1624878199.23,stimulus,2,148,,,NoAct
1624878199.53,stimulus,1,617,,,PerfumeSession
1624878199.73,fixation,2,148,,,NoAct
1624878200.03,fixation,1,617,,,PerfumeSession
1624878201.23,stimulus,2,149,,,NoAct
1624878201.53,stimulus,1,618,,,PerfumeSession
1624878201.73,fixation,2,149,,,NoAct
1624878202.03,fixation,1,618,,,PerfumeSession
1624878203.23,stimulus,2,150,,,NoAct
1624878203.53,stimulus,1,619,,,PerfumeSession
1624878203.73,fixation,2,150,,,NoAct
1624878204.03,fixation,1,619,,,PerfumeSession
1624878205.23,stimulus,2,151,,,NoAct
1624878205.53,stimulus,1,620,,,PerfumeSession
1624878205.73,fixation,2,151,,,NoAct
1624878206.03,fixation,1,620,,,PerfumeSession
1624878207.23,stimulus,2,152,,,NoAct
1624878207.53,stimulus,1,621,,,PerfumeSession
1624878207.73,fixation,2,152,,,NoAct
1624878208.03,fixation,1,621,,,PerfumeSession
1624878209.23,stimulus,2,153,,,NoAct
1624878209.53,stimulus,1,622,,,PerfumeSession
1624878209.73,fixation,2,153,,,NoAct
1624878210.03,fixation,1,622,,,PerfumeSession
1624878211.23,stimulus,2,154,,,NoAct
1624878211.53,stimulus,1,623,,,PerfumeSession
1624878211.73,fixation,2,154,,,NoAct
1624878212.03,fixation,1,623,,,PerfumeSession
1624878213.23,stimulus,2,155,,,NoAct
1624878213.53,stimulus,1,624,,,PerfumeSession
1624878213.73,fixation,2,155,,,NoAct
1624878214.03,fixation,1,624,,,PerfumeSession
1624878215.23,stimulus,2,156,,,NoAct
1624878215.53,stimulus,1,625,,,PerfumeSession
1624878215.73,fixation,2,156,,,NoAct
1624878216.03,fixation,1,625,,,PerfumeSession
1624878217.23,stimulus,2,157,,,NoAct
1624878217.53,stimulus,1,626,,,PerfumeSession
1624878217.73,fixation,2,157,,,NoAct
1624878218.03,fixation,1,626,,,PerfumeSession
1624878219.23,stimulus,2,158,,,NoAct
1624878219.53,stimulus,1,627,,,PerfumeSession
1624878219.73,fixation,2,158,,,NoAct
1624878220.03,fixation,1,627,,,PerfumeSession
1624878221.23,stimulus,2,159,,,NoAct
1624878221.53,stimulus,1,628,,,PerfumeSession
1624878221.73,fixation,2,159,,,NoAct
1624878222.03,fixation,1,628,,,PerfumeSession
1624878223.23,stimulus,2,160,,,NoAct
1624878223.53,stimulus,1,629,,,PerfumeSession
1624878223.73,fixation,2,160,,,NoAct
1624878224.03,fixation,1,629,,,PerfumeSession
1624878225.23,stimulus,2,161,,,NoAct
1624878225.53,stimulus,1,630,,,PerfumeSession
1624878225.73,fixation,2,161,,,NoAct
1624878226.03,fixation,1,630,,,PerfumeSession
1624878227.23,stimulus,2,162,,,NoAct
1624878227.53,stimulus,1,631,,,PerfumeSession
1624878227.73,fixation,2,162,,,NoAct
1624878228.03,fixation,1,631,,,PerfumeSession
1624878229.23,stimulus,2,163,,,NoAct
1624878229.53,stimulus,1,632,,,PerfumeSession
1624878229.73,fixation,2,163,,,NoAct
1624878230.03,fixation,1,632,,,PerfumeSession
1624878231.23,stimulus,2,164,,,NoAct
1624878231.53,stimulus,1,633,,,PerfumeSession
1624878231.73,fixation,2,164,,,NoAct
1624878232.03,fixation,1,633,,,PerfumeSession
1624878233.23,stimulus,2,165,,,NoAct
1624878233.53,stimulus,1,634,,,PerfumeSession
1624878233.73,fixation,2,165,,,NoAct
1624878234.03,fixation,1,634,,,PerfumeSession
1624878235.23,stimulus,2,166,,,NoAct
1624878235.53,stimulus,1,635,,,PerfumeSession
1624878235.73,fixation,2,166,,,NoAct
1624878236.03,fixation,1,635,,,PerfumeSession
1624878237.23,stimulus,2,167,,,NoAct
1624878237.53,stimulus,1,636,,,PerfumeSession
1624878237.73,fixation,2,167,,,NoAct
1624878238.03,fixation,1,636,,,PerfumeSession
1624878239.23,stimulus,2,168,,,NoAct
1624878239.53,stimulus,1,637,,,PerfumeSession
1624878239.73,fixation,2,168,,,NoAct
1624878240.03,fixation,1,637,,,PerfumeSession
1624878241.23,stimulus,2,169,,,NoAct
1624878241.53,stimulus,1,638,,,PerfumeSession
1624878241.73,fixation,2,169,,,NoAct
1624878242.03,fixation,1,638,,,PerfumeSession
1624878243.23,stimulus,2,170,,,NoAct
1624878243.53,stimulus,1,639,,,PerfumeSession
1624878243.73,fixation,2,170,,,NoAct
1624878244.03,fixation,1,639,,,PerfumeSession
1624878245.23,stimulus,2,171,,,NoAct
1624878245.53,stimulus,1,640,,,PerfumeSession
1624878245.73,fixation,2,171,,,NoAct
1624878246.03,fixation,1,640,,,PerfumeSession
1624878247.23,stimulus,2,172,,,NoAct
1624878247.53,stimulus,1,641,,,PerfumeSession
1624878247.73,fixation,2,172,,,NoAct
1624878248.03,fixation,1,641,,,PerfumeSession
1624878249.23,stimulus,2,173,,,NoAct
1624878249.53,stimulus,1,642,,,PerfumeSession
1624878249.73,fixation,2,173,,,NoAct
1624878250.03,fixation,1,642,,,PerfumeSession
1624878251.23,stimulus,2,174,,,NoAct
1624878251.53,stimulus,1,643,,,PerfumeSession
1624878251.73,fixation,2,174,,,NoAct
1624878252.03,fixation,1,643,,,PerfumeSession
1624878253.23,stimulus,2,175,,,NoAct
1624878253.53,stimulus,1,644,,,PerfumeSession
1624878253.73,fixation,2,175,,,NoAct
1624878254.03,fixation,1,644,,,PerfumeSession
1624878255.23,stimulus,2,176,,,NoAct
1624878255.53,stimulus,1,645,,,PerfumeSession
1624878255.73,fixation,2,176,,,NoAct
1624878256.03,fixation,1,645,,,PerfumeSession
1624878257.23,stimulus,2,177,,,NoAct
1624878257.53,stimulus,1,646,,,PerfumeSession
1624878257.73,fixation,2,177,,,NoAct
1624878258.03,fixation,1,646,,,PerfumeSession
1624878259.23,stimulus,2,178,,,NoAct
1624878259.53,stimulus,1,647,,,PerfumeSession
1624878259.73,fixation,2,178,,,NoAct
1624878260.03,fixation,1,647,,,PerfumeSession
1624878261.23,stimulus,2,179,,,NoAct
1624878261.53,stimulus,1,648,,,PerfumeSession
1624878261.73,fixation,2,179,,,NoAct
1624878262.03,fixation,1,648,,,PerfumeSession
1624878263.23,stimulus,2,180,,,NoAct
1624878263.53,stimulus,1,649,,,PerfumeSession
1624878263.73,fixation,2,180,,,NoAct
1624878264.03,fixation,1,649,,,PerfumeSession
1624878265.23,stimulus,2,181,,,NoAct
1624878265.53,stimulus,1,650,,,PerfumeSession
1624878265.73,fixation,2,181,,,NoAct
1624878266.03,fixation,1,650,,,PerfumeSession
1624878267.23,stimulus,2,182,,,NoAct
1624878267.53,stimulus,1,651,,,PerfumeSession
1624878267.73,fixation,2,182,,,NoAct
1624878268.03,fixation,1,651,,,PerfumeSession
1624878269.23,stimulus,2,183,,,NoAct
1624878269.53,stimulus,1,652,,,PerfumeSession
1624878269.73,fixation,2,183,,,NoAct
1624878270.03,fixation,1,652,,,PerfumeSession
1624878271.23,stimulus,2,184,,,NoAct
1624878271.53,stimulus,1,653,,,PerfumeSession
1624878271.73,fixation,2,184,,,NoAct
1624878272.03,fixation,1,653,,,PerfumeSession
1624878273.23,stimulus,2,185,,,NoAct
1624878273.53,stimulus,1,654,,,PerfumeSession
1624878273.73,fixation,2,185,,,NoAct
1624878274.03,fixation,1,654,,,PerfumeSession
1624878275.23,stimulus,2,186,,,NoAct
1624878275.53,stimulus,1,655,,,PerfumeSession
1624878275.73,fixation,2,186,,,NoAct
1624878276.03,fixation,1,655,,,PerfumeSession
1624878277.23,stimulus,2,187,,,NoAct
1624878277.53,stimulus,1,656,,,PerfumeSession
1624878277.73,fixation,2,187,,,NoAct
1624878278.03,fixation,1,656,,,PerfumeSession
1624878279.23,stimulus,2,188,,,NoAct
1624878279.53,stimulus,1,657,,,PerfumeSession
1624878279.73,fixation,2,188,,,NoAct
1624878280.03,fixation,1,657,,,PerfumeSession
1624878281.23,stimulus,2,189,,,NoAct
1624878281.53,stimulus,1,658,,,PerfumeSession
1624878281.73,fixation,2,189,,,NoAct
1624878282.03,fixation,1,658,,,PerfumeSession
1624878283.23,stimulus,2,190,,,NoAct
1624878283.53,stimulus,1,659,,,PerfumeSession
1624878283.73,fixation,2,190,,,NoAct
1624878284.03,fixation,1,659,,,PerfumeSession
1624878285.23,stimulus,2,191,,,NoAct
1624878285.53,stimulus,1,660,,,PerfumeSession
1624878285.73,fixation,2,191,,,NoAct
1624878286.03,fixation,1,660,,,PerfumeSession
1624878287.23,stimulus,2,192,,,NoAct
1624878287.53,stimulus,1,661,,,PerfumeSession
1624878287.73,fixation,2,192,,,NoAct
1624878288.03,fixation,1,661,,,PerfumeSession
1624878289.23,stimulus,2,193,,,NoAct
1624878289.53,stimulus,1,662,,,PerfumeSession
1624878289.73,fixation,2,193,,,NoAct
1624878290.03,fixation,1,662,,,PerfumeSession
1624878291.23,stimulus,2,194,,,NoAct
1624878291.53,stimulus,1,663,,,PerfumeSession
1624878291.73,fixation,2,194,,,NoAct
1624878292.03,fixation,1,663,,,PerfumeSession
1624878293.23,stimulus,2,195,,,NoAct
1624878293.53,stimulus,1,664,,,PerfumeSession
1624878293.73,fixation,2,195,,,NoAct
1624878294.03,fixation,1,664,,,PerfumeSession
1624878295.23,stimulus,2,196,,,NoAct
1624878295.53,stimulus,1,665,,,PerfumeSession
1624878295.73,fixation,2,196,,,NoAct
1624878296.03,fixation,1,665,,,PerfumeSession
1624878297.23,stimulus,2,197,,,NoAct
1624878297.53,stimulus,1,666,,,PerfumeSession
1624878297.73,fixation,2,197,,,NoAct
1624878298.03,fixation,1,666,,,PerfumeSession
1624878299.23,stimulus,2,198,,,NoAct
1624878299.53,stimulus,1,667,,,PerfumeSession
1624878299.73,fixation,2,198,,,NoAct
1624878300.03,fixation,1,667,,,PerfumeSession
1624878301.23,stimulus,2,199,,,NoAct
1624878301.53,stimulus,1,668,,,PerfumeSession
1624878301.73,fixation,2,199,,,NoAct
1624878302.03,fixation,1,668,,,PerfumeSession
1624878303.23,stimulus,2,200,,,NoAct
1624878303.53,stimulus,1,669,,,PerfumeSession
1624878303.73,fixation,2,200,,,NoAct
1624878304.03,fixation,1,669,,,PerfumeSession
1624878305.23,stimulus,2,201,,,NoAct
1624878305.53,stimulus,1,670,,,PerfumeSession
1624878305.73,fixation,2,201,,,NoAct
1624878306.03,fixation,1,670,,,PerfumeSession
1624878307.23,stimulus,2,202,,,NoAct
1624878307.53,stimulus,1,671,,,PerfumeSession
1624878307.73,fixation,2,202,,,NoAct
1624878308.03,fixation,1,671,,,PerfumeSession
1624878309.23,stimulus,2,203,,,NoAct
1624878309.53,stimulus,1,672,,,PerfumeSession
1624878309.73,fixation,2,203,,,NoAct
1624878310.03,fixation,1,672,,,PerfumeSession
1624878311.23,stimulus,2,204,,,NoAct
1624878311.53,stimulus,1,673,,,PerfumeSession
1624878311.73,fixation,2,204,,,NoAct
1624878312.03,fixation,1,673,,,PerfumeSession
1624878313.23,stimulus,2,205,,,NoAct
1624878313.53,stimulus,1,674,,,PerfumeSession
1624878313.73,fixation,2,205,,,NoAct
1624878314.03,fixation,1,674,,,PerfumeSession
1624878315.23,stimulus,2,206,,,NoAct
1624878315.53,stimulus,1,675,,,PerfumeSession
1624878315.73,fixation,2,206,,,NoAct
1624878316.03,fixation,1,675,,,PerfumeSession
1624878317.23,stimulus,2,207,,,NoAct
1624878317.53,stimulus,1,676,,,PerfumeSession
1624878317.73,fixation,2,207,,,NoAct
1624878318.03,fixation,1,676,,,PerfumeSession
1624878319.23,stimulus,2,208,,,NoAct
1624878319.53,stimulus,1,677,,,PerfumeSession
1624878319.73,fixation,2,208,,,NoAct
1624878320.03,fixation,1,677,,,PerfumeSession
1624878321.23,stimulus,2,209,,,NoAct
1624878321.53,stimulus,1,678,,,PerfumeSession
1624878321.73,fixation,2,209,,,NoAct
1624878322.03,fixation,1,678,,,PerfumeSession
1624878323.23,stimulus,2,210,,,NoAct
1624878323.53,stimulus,1,679,,,PerfumeSession
1624878323.73,fixation,2,210,,,NoAct
1624878324.03,fixation,1,679,,,PerfumeSession
1624878325.23,stimulus,2,211,,,NoAct
1624878325.53,stimulus,1,680,,,PerfumeSession
1624878325.73,fixation,2,211,,,NoAct
1624878326.03,fixation,1,680,,,PerfumeSession
1624878327.23,stimulus,2,212,,,NoAct
1624878327.53,stimulus,1,681,,,PerfumeSession
1624878327.73,fixation,2,212,,,NoAct
1624878328.03,fixation,1,681,,,PerfumeSession
1624878329.23,stimulus,2,213,,,NoAct
1624878329.53,stimulus,1,682,,,PerfumeSession
1624878329.73,fixation,2,213,,,NoAct
1624878330.03,fixation,1,682,,,PerfumeSession
1624878331.23,stimulus,2,214,,,NoAct
1624878331.53,stimulus,1,683,,,PerfumeSession
1624878331.73,fixation,2,214,,,NoAct
1624878332.03,fixation,1,683,,,PerfumeSession
1624878333.23,stimulus,2,215,,,NoAct
1624878333.53,stimulus,1,684,,,PerfumeSession
1624878333.73,fixation,2,215,,,NoAct
1624878334.03,fixation,1,684,,,PerfumeSession
1624878334.08,stimulus,3,1,,,PracticeSession
1624878334.58,fixation,3,1,,,PracticeSession
1624878335.23,stimulus,2,216,,,NoAct
1624878335.53,stimulus,1,685,,,PerfumeSession
1624878335.73,fixation,2,216,,,NoAct
1624878336.03,fixation,1,685,,,PerfumeSession
1624878336.08,stimulus,3,2,,,PracticeSession
1624878336.58,fixation,3,2,,,PracticeSession
1624878337.23,stimulus,2,217,,,NoAct
1624878337.53,stimulus,1,686,,,PerfumeSession
1624878337.73,fixation,2,217,,,NoAct
1624878338.03,fixation,1,686,,,PerfumeSession
1624878338.08,stimulus,3,3,,,PracticeSession
1624878338.58,fixation,3,3,,,PracticeSession
1624878339.23,stimulus,2,218,,,NoAct
1624878339.53,stimulus,1,687,,,PerfumeSession
1624878339.73,fixation,2,218,,,NoAct
1624878340.03,fixation,1,687,,,PerfumeSession
1624878340.08,stimulus,3,4,,,PracticeSession
1624878340.58,fixation,3,4,,,PracticeSession
1624878341.23,stimulus,2,219,,,NoAct
1624878341.53,stimulus,1,688,,,PerfumeSession
1624878341.73,fixation,2,219,,,NoAct
1624878342.03,fixation,1,688,,,PerfumeSession
1624878342.08,stimulus,3,5,,,PracticeSession
1624878342.58,fixation,3,5,,,PracticeSession
1624878343.23,stimulus,2,220,,,NoAct
1624878343.53,stimulus,1,689,,,PerfumeSession
1624878343.73,fixation,2,220,,,NoAct
1624878344.03,fixation,1,689,,,PerfumeSession
1624878344.08,stimulus,3,6,,,PracticeSession
1624878344.58,fixation,3,6,,,PracticeSession
1624878345.23,stimulus,2,221,,,NoAct
1624878345.53,stimulus,1,690,,,PerfumeSession
1624878345.73,fixation,2,221,,,NoAct
1624878346.03,fixation,1,690,,,PerfumeSession
1624878346.08,stimulus,3,7,,,PracticeSession
1624878346.58,fixation,3,7,,,PracticeSession
1624878347.23,stimulus,2,222,,,NoAct
1624878347.53,stimulus,1,691,,,PerfumeSession
1624878347.73,fixation,2,222,,,NoAct
1624878348.03,fixation,1,691,,,PerfumeSession
1624878348.08,stimulus,3,8,,,PracticeSession
1624878348.58,fixation,3,8,,,PracticeSession
1624878349.23,stimulus,2,223,,,NoAct
1624878349.53,stimulus,1,692,,,PerfumeSession
1624878349.73,fixation,2,223,,,NoAct
1624878350.03,fixation,1,692,,,PerfumeSession
1624878350.08,stimulus,3,9,,,PracticeSession
1624878350.58,fixation,3,9,,,PracticeSession
1624878351.23,stimulus,2,224,,,NoAct
1624878351.53,stimulus,1,693,,,PerfumeSession
1624878351.73,fixation,2,224,,,NoAct
1624878352.03,fixation,1,693,,,PerfumeSession
1624878352.08,stimulus,3,10,,,PracticeSession
1624878352.58,fixation,3,10,,,PracticeSession
1624878353.23,stimulus,2,225,,,NoAct
1624878353.53,stimulus,1,694,,,PerfumeSession
1624878353.73,fixation,2,225,,,NoAct
1624878354.03,fixation,1,694,,,PerfumeSession
1624878354.08,stimulus,3,11,,,PracticeSession
1624878354.58,fixation,3,11,,,PracticeSession
1624878355.23,stimulus,2,226,,,NoAct
1624878355.53,stimulus,1,695,,,PerfumeSession
1624878355.73,fixation,2,226,,,NoAct
1624878356.03,fixation,1,695,,,PerfumeSession
1624878356.08,stimulus,3,12,,,PracticeSession
1624878356.58,fixation,3,12,,,PracticeSession
1624878357.23,stimulus,2,227,,,NoAct
1624878357.53,stimulus,1,696,,,PerfumeSession
1624878357.73,fixation,2,227,,,NoAct
1624878358.03,fixation,1,696,,,PerfumeSession
1624878358.08,stimulus,3,13,,,PracticeSession
1624878358.58,fixation,3,13,,,PracticeSession
1624878359.23,stimulus,2,228,,,NoAct
1624878359.53,stimulus,1,697,,,PerfumeSession
1624878359.73,fixation,2,228,,,NoAct
1624878360.03,fixation,1,697,,,PerfumeSession
1624878360.08,stimulus,3,14,,,PracticeSession
1624878360.58,fixation,3,14,,,PracticeSession
1624878361.23,stimulus,2,229,,,NoAct
1624878361.53,stimulus,1,698,,,PerfumeSession
1624878361.73,fixation,2,229,,,NoAct
1624878362.03,fixation,1,698,,,PerfumeSession
1624878362.08,stimulus,3,15,,,PracticeSession
1624878362.58,fixation,3,15,,,PracticeSession
1624878363.23,stimulus,2,230,,,NoAct
1624878363.53,stimulus,1,699,,,PerfumeSession
1624878363.73,fixation,2,230,,,NoAct
1624878364.03,fixation,1,699,,,PerfumeSession
1624878364.08,stimulus,3,16,,,PracticeSession
1624878364.58,fixation,3,16,,,PracticeSession
1624878365.23,stimulus,2,231,,,NoAct
1624878365.53,stimulus,1,700,,,PerfumeSession
1624878365.73,fixation,2,231,,,NoAct
1624878366.03,fixation,1,700,,,PerfumeSession
1624878366.08,stimulus,3,17,,,PracticeSession
1624878366.58,fixation,3,17,,,PracticeSession
1624878367.23,stimulus,2,232,,,NoAct
1624878367.53,stimulus,1,701,,,PerfumeSession
1624878367.73,fixation,2,232,,,NoAct
1624878368.03,fixation,1,701,,,PerfumeSession
1624878368.08,stimulus,3,18,,,PracticeSession
1624878368.58,fixation,3,18,,,PracticeSession
1624878369.23,stimulus,2,233,,,NoAct
1624878369.53,stimulus,1,702,,,PerfumeSession
1624878369.73,fixation,2,233,,,NoAct
1624878370.03,fixation,1,702,,,PerfumeSession
1624878370.08,stimulus,3,19,,,PracticeSession
1624878370.58,fixation,3,19,,,PracticeSession
1624878371.23,stimulus,2,234,,,NoAct
1624878371.53,stimulus,1,703,,,PerfumeSession
1624878371.73,fixation,2,234,,,NoAct
1624878372.03,fixation,1,703,,,PerfumeSession
1624878372.08,stimulus,3,20,,,PracticeSession
1624878372.58,fixation,3,20,,,PracticeSession
1624878373.23,stimulus,2,235,,,NoAct
1624878373.53,stimulus,1,704,,,PerfumeSession
1624878373.73,fixation,2,235,,,NoAct
1624878374.03,fixation,1,704,,,PerfumeSession
1624878374.08,stimulus,3,21,,,PracticeSession
1624878374.58,fixation,3,21,,,PracticeSession
1624878375.23,stimulus,2,236,,,NoAct
1624878375.53,stimulus,1,705,,,PerfumeSession
1624878375.73,fixation,2,236,,,NoAct
1624878376.03,fixation,1,705,,,PerfumeSession
1624878376.08,stimulus,3,22,,,PracticeSession
1624878376.58,fixation,3,22,,,PracticeSession
1624878377.23,stimulus,2,237,,,NoAct
1624878377.53,stimulus,1,706,,,PerfumeSession
1624878377.73,fixation,2,237,,,NoAct
1624878378.03,fixation,1,706,,,PerfumeSession
1624878378.08,stimulus,3,23,,,PracticeSession
1624878378.58,fixation,3,23,,,PracticeSession
1624878379.23,stimulus,2,238,,,NoAct
1624878379.53,stimulus,1,707,,,PerfumeSession
1624878379.73,fixation,2,238,,,NoAct
1624878380.03,fixation,1,707,,,PerfumeSession
1624878380.08,stimulus,3,24,,,PracticeSession
1624878380.58,fixation,3,24,,,PracticeSession
1624878381.23,stimulus,2,239,,,NoAct
1624878381.53,stimulus,1,708,,,PerfumeSession
1624878381.73,fixation,2,239,,,NoAct
1624878382.03,fixation,1,708,,,PerfumeSession
1624878382.08,stimulus,3,25,,,PracticeSession
1624878382.58,fixation,3,25,,,PracticeSession
1624878383.23,stimulus,2,240,,,NoAct
1624878383.53,stimulus,1,709,,,PerfumeSession
1624878383.73,fixation,2,240,,,NoAct
1624878384.03,fixation,1,709,,,PerfumeSession
1624878384.08,stimulus,3,26,,,PracticeSession
1624878384.58,fixation,3,26,,,PracticeSession
1624878385.23,stimulus,2,241,,,NoAct
1624878385.53,stimulus,1,710,,,PerfumeSession
1624878385.73,fixation,2,241,,,NoAct
1624878386.03,fixation,1,710,,,PerfumeSession
1624878386.08,stimulus,3,27,,,PracticeSession
1624878386.58,fixation,3,27,,,PracticeSession
1624878387.23,stimulus,2,242,,,NoAct
1624878387.53,stimulus,1,711,,,PerfumeSession
1624878387.73,fixation,2,242,,,NoAct
1624878388.03,fixation,1,711,,,PerfumeSession
1624878388.08,stimulus,3,28,,,PracticeSession
1624878388.58,fixation,3,28,,,PracticeSession
1624878389.23,stimulus,2,243,,,NoAct
1624878389.53,stimulus,1,712,,,PerfumeSession
1624878389.73,fixation,2,243,,,NoAct
1624878390.03,fixation,1,712,,,PerfumeSession
1624878390.08,stimulus,3,29,,,PracticeSession
1624878390.58,fixation,3,29,,,PracticeSession
1624878391.23,stimulus,2,244,,,NoAct
1624878391.53,stimulus,1,713,,,PerfumeSession
1624878391.73,fixation,2,244,,,NoAct
1624878392.03,fixation,1,713,,,PerfumeSession
1624878392.08,stimulus,3,30,,,PracticeSession
1624878392.58,fixation,3,30,,,PracticeSession
1624878393.23,stimulus,2,245,,,NoAct
1624878393.53,stimulus,1,714,,,PerfumeSession
1624878393.73,fixation,2,245,,,NoAct
1624878394.03,fixation,1,714,,,PerfumeSession
1624878394.08,stimulus,3,31,,,PracticeSession
1624878394.58,fixation,3,31,,,PracticeSession
1624878395.23,stimulus,2,246,,,NoAct
1624878395.53,stimulus,1,715,,,PerfumeSession
1624878395.73,fixation,2,246,,,NoAct
1624878396.03,fixation,1,715,,,PerfumeSession
1624878396.08,stimulus,3,32,,,PracticeSession
1624878396.58,fixation,3,32,,,PracticeSession
1624878397.23,stimulus,2,247,,,NoAct
1624878397.53,stimulus,1,716,,,PerfumeSession
1624878397.73,fixation,2,247,,,NoAct
1624878398.03,fixation,1,716,,,PerfumeSession
1624878398.08,stimulus,3,33,,,PracticeSession
1624878398.58,fixation,3,33,,,PracticeSession
1624878399.23,stimulus,2,248,,,NoAct
1624878399.53,stimulus,1,717,,,PerfumeSession
1624878399.73,fixation,2,248,,,NoAct
1624878400.03,fixation,1,717,,,PerfumeSession
1624878400.08,stimulus,3,34,,,PracticeSession
1624878400.58,fixation,3,34,,,PracticeSession
1624878401.23,stimulus,2,249,,,NoAct
1624878401.53,stimulus,1,718,,,PerfumeSession
1624878401.73,fixation,2,249,,,NoAct
1624878402.03,fixation,1,718,,,PerfumeSession
1624878402.08,stimulus,3,35,,,PracticeSession
1624878402.58,fixation,3,35,,,PracticeSession
1624878403.23,stimulus,2,250,,,NoAct
1624878403.53,stimulus,1,719,,,PerfumeSession
1624878403.73,fixation,2,250,,,NoAct
1624878404.03,fixation,1,719,,,PerfumeSession
1624878404.08,stimulus,3,36,,,PracticeSession
1624878404.58,fixation,3,36,,,PracticeSession
1624878405.23,stimulus,2,251,,,NoAct
1624878405.53,stimulus,1,720,,,PerfumeSession
1624878405.73,fixation,2,251,,,NoAct
1624878406.03,fixation,1,720,,,PerfumeSession
1624878406.08,stimulus,3,37,,,PracticeSession
1624878406.58,fixation,3,37,,,PracticeSession
1624878407.23,stimulus,2,252,,,NoAct
1624878407.53,stimulus,1,721,,,PerfumeSession
1624878407.73,fixation,2,252,,,NoAct
1624878408.03,fixation,1,721,,,PerfumeSession
1624878408.08,stimulus,3,38,,,PracticeSession
1624878408.58,fixation,3,38,,,PracticeSession
1624878409.23,stimulus,2,253,,,NoAct
1624878409.53,stimulus,1,722,,,PerfumeSession
1624878409.73,fixation,2,253,,,NoAct
1624878410.03,fixation,1,722,,,PerfumeSession
1624878410.08,stimulus,3,39,,,PracticeSession
1624878410.58,fixation,3,39,,,PracticeSession
1624878411.23,stimulus,2,254,,,NoAct
1624878411.53,stimulus,1,723,,,PerfumeSession
1624878411.73,fixation,2,254,,,NoAct
1624878412.03,fixation,1,723,,,PerfumeSession
1624878412.08,stimulus,3,40,,,PracticeSession
1624878412.58,fixation,3,40,,,PracticeSession
1624878413.23,stimulus,2,255,,,NoAct
1624878413.53,stimulus,1,724,,,PerfumeSession
1624878413.73,fixation,2,255,,,NoAct
1624878414.03,fixation,1,724,,,PerfumeSession
1624878414.08,stimulus,3,41,,,PracticeSession
1624878414.58,fixation,3,41,,,PracticeSession
1624878415.23,stimulus,2,256,,,NoAct
1624878415.53,stimulus,1,725,,,PerfumeSession
1624878415.73,fixation,2,256,,,NoAct
1624878416.03,fixation,1,725,,,PerfumeSession
1624878416.08,stimulus,3,42,,,PracticeSession
1624878416.58,fixation,3,42,,,PracticeSession
1624878417.23,stimulus,2,257,,,NoAct
1624878417.53,stimulus,1,726,,,PerfumeSession
1624878417.73,fixation,2,257,,,NoAct
1624878418.03,fixation,1,726,,,PerfumeSession
1624878418.08,stimulus,3,43,,,PracticeSession
1624878418.58,fixation,3,43,,,PracticeSession
1624878419.23,stimulus,2,258,,,NoAct
1624878419.53,stimulus,1,727,,,PerfumeSession
1624878419.73,fixation,2,258,,,NoAct
1624878420.03,fixation,1,727,,,PerfumeSession
1624878420.08,stimulus,3,44,,,PracticeSession
1624878420.58,fixation,3,44,,,PracticeSession
1624878421.23,stimulus,2,259,,,NoAct
1624878421.53,stimulus,1,728,,,PerfumeSession
1624878421.73,fixation,2,259,,,NoAct
1624878422.03,fixation,1,728,,,PerfumeSession
1624878422.08,stimulus,3,45,,,NoAct
1624878422.58,fixation,3,45,,,NoAct
1624878423.23,stimulus,2,260,,,NoAct
1624878423.53,stimulus,1,729,,,PerfumeSession
1624878423.73,fixation,2,260,,,NoAct
1624878424.03,fixation,1,729,,,PerfumeSession
1624878424.08,stimulus,3,46,,,NoAct
1624878424.58,fixation,3,46,,,NoAct
1624878425.23,stimulus,2,261,,,NoAct
1624878425.53,stimulus,1,730,,,PerfumeSession
1624878425.73,fixation,2,261,,,NoAct
1624878426.03,fixation,1,730,,,PerfumeSession
1624878426.08,stimulus,3,47,,,NoAct
1624878426.58,fixation,3,47,,,NoAct
1624878427.23,stimulus,2,262,,,NoAct
1624878427.53,stimulus,1,731,,,PerfumeSession
1624878427.73,fixation,2,262,,,NoAct
1624878428.03,fixation,1,731,,,PerfumeSession
1624878428.08,stimulus,3,48,,,NoAct
1624878428.58,fixation,3,48,,,NoAct
1624878429.23,stimulus,2,263,,,NoAct
1624878429.53,stimulus,1,732,,,PerfumeSession
1624878429.73,fixation,2,263,,,NoAct
1624878430.03,fixation,1,732,,,PerfumeSession
1624878430.08,stimulus,3,49,,,NoAct
1624878430.58,fixation,3,49,,,NoAct
1624878431.23,stimulus,2,264,,,NoAct
1624878431.53,stimulus,1,733,,,PerfumeSession
1624878431.73,fixation,2,264,,,NoAct
1624878432.03,fixation,1,733,,,PerfumeSession
1624878432.08,stimulus,3,50,,,NoAct
1624878432.58,fixation,3,50,,,NoAct
1624878433.23,stimulus,2,265,,,NoAct
1624878433.53,stimulus,1,734,,,PerfumeSession
1624878433.73,fixation,2,265,,,NoAct
1624878434.03,fixation,1,734,,,PerfumeSession
1624878434.08,stimulus,3,51,,,NoAct
1624878434.58,fixation,3,51,,,NoAct
1624878435.23,stimulus,2,266,,,NoAct
1624878435.53,stimulus,1,735,,,PerfumeSession
1624878435.73,fixation,2,266,,,NoAct
1624878436.03,fixation,1,735,,,PerfumeSession
1624878436.08,stimulus,3,52,,,NoAct
1624878436.58,fixation,3,52,,,NoAct
1624878437.23,stimulus,2,267,,,NoAct
1624878437.53,stimulus,1,736,,,PerfumeSession
1624878437.73,fixation,2,267,,,NoAct
1624878438.03,fixation,1,736,,,PerfumeSession
1624878438.08,stimulus,3,53,,,NoAct
1624878438.58,fixation,3,53,,,NoAct
1624878439.23,stimulus,2,268,,,NoAct
1624878439.53,stimulus,1,737,,,PerfumeSession
1624878439.73,fixation,2,268,,,NoAct
1624878440.03,fixation,1,737,,,PerfumeSession
1624878440.08,stimulus,3,54,,,NoAct
1624878440.58,fixation,3,54,,,NoAct
1624878441.23,stimulus,2,269,,,NoAct
1624878441.53,stimulus,1,738,,,PerfumeSession
1624878441.73,fixation,2,269,,,NoAct
1624878442.03,fixation,1,738,,,PerfumeSession
1624878442.08,stimulus,3,55,,,NoAct
1624878442.58,fixation,3,55,,,NoAct
1624878443.23,stimulus,2,270,,,NoAct
1624878443.53,stimulus,1,739,,,PerfumeSession
1624878443.73,fixation,2,270,,,NoAct
1624878444.03,fixation,1,739,,,PerfumeSession
1624878444.08,stimulus,3,56,,,NoAct
1624878444.58,fixation,3,56,,,NoAct
1624878445.23,stimulus,2,271,,,NoAct
1624878445.53,stimulus,1,740,,,PerfumeSession
1624878445.73,fixation,2,271,,,NoAct
1624878446.03,fixation,1,740,,,PerfumeSession
1624878446.08,stimulus,3,57,,,NoAct
1624878446.58,fixation,3,57,,,NoAct
1624878447.23,stimulus,2,272,,,NoAct
1624878447.53,stimulus,1,741,,,PerfumeSession
1624878447.73,fixation,2,272,,,NoAct
1624878448.03,fixation,1,741,,,PerfumeSession
1624878448.08,stimulus,3,58,,,NoAct
1624878448.58,fixation,3,58,,,NoAct
1624878449.23,stimulus,2,273,,,NoAct
1624878449.53,stimulus,1,742,,,PerfumeSession
1624878449.73,fixation,2,273,,,NoAct
1624878450.03,fixation,1,742,,,PerfumeSession
1624878450.08,stimulus,3,59,,,NoAct
1624878450.58,fixation,3,59,,,NoAct
1624878451.23,stimulus,2,274,,,NoAct
1624878451.53,stimulus,1,743,,,PerfumeSession
1624878451.73,fixation,2,274,,,NoAct
1624878452.03,fixation,1,743,,,PerfumeSession
1624878452.08,stimulus,3,60,,,NoAct
1624878452.58,fixation,3,60,,,NoAct
1624878453.23,stimulus,2,275,,,NoAct
1624878453.53,stimulus,1,744,,,PerfumeSession
1624878453.73,fixation,2,275,,,NoAct
1624878454.03,fixation,1,744,,,PerfumeSession
1624878454.08,stimulus,3,61,,,NoAct
1624878454.58,fixation,3,61,,,NoAct
1624878455.23,stimulus,2,276,,,NoAct
1624878455.53,stimulus,1,745,,,PerfumeSession
1624878455.73,fixation,2,276,,,NoAct
1624878456.03,fixation,1,745,,,PerfumeSession
1624878456.08,stimulus,3,62,,,NoAct
1624878456.58,fixation,3,62,,,NoAct
1624878457.23,stimulus,2,277,,,NoAct
1624878457.53,stimulus,1,746,,,PerfumeSession
1624878457.73,fixation,2,277,,,NoAct
1624878458.03,fixation,1,746,,,PerfumeSession
1624878458.08,stimulus,3,63,,,NoAct
1624878458.58,fixation,3,63,,,NoAct
1624878459.23,stimulus,2,278,,,NoAct
1624878459.53,stimulus,1,747,,,PerfumeSession
1624878459.73,fixation,2,278,,,NoAct
1624878460.03,fixation,1,747,,,PerfumeSession
1624878460.08,stimulus,3,64,,,NoAct
1624878460.58,fixation,3,64,,,NoAct
1624878461.23,stimulus,2,279,,,NoAct
1624878461.53,stimulus,1,748,,,PerfumeSession
1624878461.73,fixation,2,279,,,NoAct
1624878462.03,fixation,1,748,,,PerfumeSession
1624878462.08,stimulus,3,65,,,NoAct
1624878462.58,fixation,3,65,,,NoAct
1624878463.23,stimulus,2,280,,,NoAct
1624878463.53,stimulus,1,749,,,PerfumeSession
1624878463.73,fixation,2,280,,,NoAct
1624878464.03,fixation,1,749,,,PerfumeSession
1624878464.08,stimulus,3,66,,,NoAct
1624878464.58,fixation,3,66,,,NoAct
1624878465.23,stimulus,2,281,,,NoAct
1624878465.53,stimulus,1,750,,,PerfumeSession
1624878465.73,fixation,2,281,,,NoAct
1624878466.03,fixation,1,750,,,PerfumeSession
1624878466.08,stimulus,3,67,,,NoAct
1624878466.58,fixation,3,67,,,NoAct
1624878467.23,stimulus,2,282,,,NoAct
1624878467.53,stimulus,1,751,,,CoffeeSession
1624878467.73,fixation,2,282,,,NoAct
1624878468.03,fixation,1,751,,,CoffeeSession
1624878468.08,stimulus,3,68,,,NoAct
1624878468.58,fixation,3,68,,,NoAct
1624878469.23,stimulus,2,283,,,NoAct
1624878469.53,stimulus,1,752,,,CoffeeSession
1624878469.73,fixation,2,283,,,NoAct
1624878470.03,fixation,1,752,,,CoffeeSession
1624878470.08,stimulus,3,69,,,NoAct
1624878470.58,fixation,3,69,,,NoAct
1624878471.23,stimulus,2,284,,,NoAct
1624878471.53,stimulus,1,753,,,CoffeeSession
1624878471.73,fixation,2,284,,,NoAct
1624878472.03,fixation,1,753,,,CoffeeSession
1624878472.08,stimulus,3,70,,,NoAct
1624878472.58,fixation,3,70,,,NoAct
1624878473.23,stimulus,2,285,,,NoAct
1624878473.53,stimulus,1,754,,,CoffeeSession
1624878473.73,fixation,2,285,,,NoAct
1624878474.03,fixation,1,754,,,CoffeeSession
1624878474.08,stimulus,3,71,,,NoAct
1624878474.58,fixation,3,71,,,NoAct
1624878475.23,stimulus,2,286,,,NoAct
1624878475.53,stimulus,1,755,,,CoffeeSession
1624878475.73,fixation,2,286,,,NoAct
1624878476.03,fixation,1,755,,,CoffeeSession
1624878476.08,stimulus,3,72,,,NoAct
1624878476.58,fixation,3,72,,,NoAct
1624878477.23,stimulus,2,287,,,NoAct
1624878477.53,stimulus,1,756,,,CoffeeSession
1624878477.73,fixation,2,287,,,NoAct
1624878478.03,fixation,1,756,,,CoffeeSession
1624878478.08,stimulus,3,73,,,NoAct
1624878478.58,fixation,3,73,,,NoAct
1624878479.23,stimulus,2,288,,,NoAct
1624878479.53,stimulus,1,757,,,CoffeeSession
1624878479.73,fixation,2,288,,,NoAct
1624878480.03,fixation,1,757,,,CoffeeSession
1624878480.08,stimulus,3,74,,,NoAct
1624878480.58,fixation,3,74,,,NoAct
1624878481.23,stimulus,2,289,,,NoAct
1624878481.53,stimulus,1,758,,,CoffeeSession
1624878481.73,fixation,2,289,,,NoAct
1624878482.03,fixation,1,758,,,CoffeeSession
1624878482.08,stimulus,3,75,,,NoAct
1624878482.58,fixation,3,75,,,NoAct
1624878483.23,stimulus,2,290,,,NoAct
1624878483.53,stimulus,1,759,,,CoffeeSession
1624878483.73,fixation,2,290,,,NoAct
1624878484.03,fixation,1,759,,,CoffeeSession
1624878484.08,stimulus,3,76,,,NoAct
1624878484.58,fixation,3,76,,,NoAct
1624878485.23,stimulus,2,291,,,NoAct
1624878485.53,stimulus,1,760,,,CoffeeSession
1624878485.73,fixation,2,291,,,NoAct
1624878486.03,fixation,1,760,,,CoffeeSession
1624878486.08,stimulus,3,77,,,NoAct
1624878486.58,fixation,3,77,,,NoAct
1624878487.23,stimulus,2,292,,,NoAct
1624878487.53,stimulus,1,761,,,CoffeeSession
1624878487.73,fixation,2,292,,,NoAct
1624878488.03,fixation,1,761,,,CoffeeSession
1624878488.08,stimulus,3,78,,,NoAct
1624878488.58,fixation,3,78,,,NoAct
1624878489.23,stimulus,2,293,,,NoAct
1624878489.53,stimulus,1,762,,,CoffeeSession
1624878489.73,fixation,2,293,,,NoAct
1624878490.03,fixation,1,762,,,CoffeeSession
1624878490.08,stimulus,3,79,,,NoAct
1624878490.58,fixation,3,79,,,NoAct
1624878491.23,stimulus,2,294,,,NoAct
1624878491.53,stimulus,1,763,,,CoffeeSession
1624878491.73,fixation,2,294,,,NoAct
1624878492.03,fixation,1,763,,,CoffeeSession
1624878492.08,stimulus,3,80,,,NoAct
1624878492.58,fixation,3,80,,,NoAct
1624878493.23,stimulus,2,295,,,NoAct
1624878493.53,stimulus,1,764,,,CoffeeSession
1624878493.73,fixation,2,295,,,NoAct
1624878494.03,fixation,1,764,,,CoffeeSession
1624878494.08,stimulus,3,81,,,NoAct
1624878494.58,fixation,3,81,,,NoAct
1624878495.23,stimulus,2,296,,,NoAct
1624878495.53,stimulus,1,765,,,CoffeeSession
1624878495.73,fixation,2,296,,,NoAct
1624878496.03,fixation,1,765,,,CoffeeSession
1624878496.08,stimulus,3,82,,,NoAct
1624878496.58,fixation,3,82,,,NoAct
1624878497.23,stimulus,2,297,,,NoAct
1624878497.53,stimulus,1,766,,,CoffeeSession
1624878497.73,fixation,2,297,,,NoAct
1624878498.03,fixation,1,766,,,CoffeeSession
1624878498.08,stimulus,3,83,,,NoAct
1624878498.58,fixation,3,83,,,NoAct
1624878499.23,stimulus,2,298,,,NoAct
1624878499.53,stimulus,1,767,,,CoffeeSession
1624878499.73,fixation,2,298,,,NoAct
1624878500.03,fixation,1,767,,,CoffeeSession
1624878500.08,stimulus,3,84,,,NoAct
1624878500.58,fixation,3,84,,,NoAct
1624878501.23,stimulus,2,299,,,NoAct
1624878501.53,stimulus,1,768,,,CoffeeSession
1624878501.73,fixation,2,299,,,NoAct
1624878502.03,fixation,1,768,,,CoffeeSession
1624878502.08,stimulus,3,85,,,NoAct
1624878502.58,fixation,3,85,,,NoAct
1624878503.23,stimulus,2,300,,,NoAct
1624878503.53,stimulus,1,769,,,CoffeeSession
1624878503.73,fixation,2,300,,,NoAct
1624878504.03,fixation,1,769,,,CoffeeSession
1624878504.08,stimulus,3,86,,,NoAct
1624878504.58,fixation,3,86,,,NoAct
1624878505.23,stimulus,2,301,,,NoAct
1624878505.53,stimulus,1,770,,,CoffeeSession
1624878505.73,fixation,2,301,,,NoAct
1624878506.03,fixation,1,770,,,CoffeeSession
1624878506.08,stimulus,3,87,,,NoAct
1624878506.58,fixation,3,87,,,NoAct
1624878507.23,stimulus,2,302,,,NoAct
1624878507.53,stimulus,1,771,,,CoffeeSession
1624878507.73,fixation,2,302,,,NoAct
1624878508.03,fixation,1,771,,,CoffeeSession
1624878508.08,stimulus,3,88,,,NoAct
1624878508.58,fixation,3,88,,,NoAct
1624878509.23,stimulus,2,303,,,NoAct
1624878509.53,stimulus,1,772,,,CoffeeSession
1624878509.73,fixation,2,303,,,NoAct
1624878510.03,fixation,1,772,,,CoffeeSession
1624878510.08,stimulus,3,89,,,NoAct
1624878510.58,fixation,3,89,,,NoAct
1624878511.23,stimulus,2,304,,,NoAct
1624878511.53,stimulus,1,773,,,CoffeeSession
1624878511.73,fixation,2,304,,,NoAct
1624878512.03,fixation,1,773,,,CoffeeSession
1624878512.08,stimulus,3,90,,,NoAct
1624878512.58,fixation,3,90,,,NoAct
1624878513.23,stimulus,2,305,,,NoAct
1624878513.53,stimulus,1,774,,,CoffeeSession
1624878513.73,fixation,2,305,,,NoAct
1624878514.03,fixation,1,774,,,CoffeeSession
1624878514.08,stimulus,3,91,,,NoAct
1624878514.58,fixation,3,91,,,NoAct
1624878515.23,stimulus,2,306,,,NoAct
1624878515.53,stimulus,1,775,,,CoffeeSession
1624878515.73,fixation,2,306,,,NoAct
1624878516.03,fixation,1,775,,,CoffeeSession
1624878516.08,stimulus,3,92,,,NoAct
1624878516.58,fixation,3,92,,,NoAct
1624878517.23,stimulus,2,307,,,NoAct
1624878517.53,stimulus,1,776,,,CoffeeSession
1624878517.73,fixation,2,307,,,NoAct
