event_time_s,trial_type,session_idx,trial_idx,RT_s,ACC,session_type
1624275928.36,stimulus,1,1,,,PracticeSession
1624275928.86,fixation,1,1,,,PracticeSession
1624275930.36,stimulus,1,2,,,PracticeSession
1624275930.86,fixation,1,2,,,PracticeSession
1624275932.36,stimulus,1,3,,,PracticeSession
1624275932.86,fixation,1,3,,,PracticeSession
1624275934.36,stimulus,1,4,,,PracticeSession
1624275934.86,fixation,1,4,,,PracticeSession
1624275936.36,stimulus,1,5,,,PracticeSession
1624275936.86,fixation,1,5,,,PracticeSession
1624275938.36,stimulus,1,6,,,PracticeSession
1624275938.86,fixation,1,6,,,PracticeSession
1624275940.36,stimulus,1,7,,,PracticeSession
1624275940.86,fixation,1,7,,,PracticeSession
1624275942.36,stimulus,1,8,,,PracticeSession
1624275942.86,fixation,1,8,,,PracticeSession
1624275944.36,stimulus,1,9,,,PracticeSession
1624275944.86,fixation,1,9,,,PracticeSession
1624275946.36,stimulus,1,10,,,PracticeSession
1624275946.86,fixation,1,10,,,PracticeSession
1624275948.36,stimulus,1,11,,,PracticeSession
1624275948.86,fixation,1,11,,,PracticeSession
1624275950.36,stimulus,1,12,,,PracticeSession
1624275950.86,fixation,1,12,,,PracticeSession
1624275952.36,stimulus,1,13,,,PracticeSession
1624275952.86,fixation,1,13,,,PracticeSession
1624275954.36,stimulus,1,14,,,PracticeSession
1624275954.86,fixation,1,14,,,PracticeSession
1624275956.36,stimulus,1,15,,,PracticeSession
1624275956.86,fixation,1,15,,,PracticeSession
1624275958.36,stimulus,1,16,,,PracticeSession
1624275958.86,fixation,1,16,,,PracticeSession
1624275960.36,stimulus,1,17,,,PracticeSession
1624275960.86,fixation,1,17,,,PracticeSession
1624275962.36,stimulus,1,18,,,PracticeSession
1624275962.86,fixation,1,18,,,PracticeSession
1624275964.36,stimulus,1,19,,,PracticeSession
1624275964.86,fixation,1,19,,,PracticeSession
1624275966.36,stimulus,1,20,,,PracticeSession
1624275966.86,fixation,1,20,,,PracticeSession
1624275968.36,stimulus,1,21,,,PracticeSession
1624275968.86,fixation,1,21,,,PracticeSession
1624275970.36,stimulus,1,22,,,PracticeSession
1624275970.86,fixation,1,22,,,PracticeSession
1624275972.36,stimulus,1,23,,,PracticeSession
1624275972.86,fixation,1,23,,,PracticeSession
1624275974.36,stimulus,1,24,,,PracticeSession
1624275974.86,fixation,1,24,,,PracticeSession
1624275976.36,stimulus,1,25,,,PracticeSession
1624275976.86,fixation,1,25,,,PracticeSession
1624275978.36,stimulus,1,26,,,PracticeSession
1624275978.86,fixation,1,26,,,PracticeSession
1624275980.36,stimulus,1,27,,,PracticeSession
1624275980.86,fixation,1,27,,,PracticeSession
1624275982.36,stimulus,1,28,,,PracticeSession
1624275982.86,fixation,1,28,,,PracticeSession
1624275984.36,stimulus,1,29,,,PracticeSession
1624275984.86,fixation,1,29,,,PracticeSession
1624275986.36,stimulus,1,30,,,PracticeSession
1624275986.86,fixation,1,30,,,PracticeSession
1624275988.36,stimulus,1,31,,,PracticeSession
1624275988.86,fixation,1,31,,,PracticeSession
1624275990.36,stimulus,1,32,,,PracticeSession
1624275990.86,fixation,1,32,,,PracticeSession
1624275992.36,stimulus,1,33,,,PracticeSession
1624275992.86,fixation,1,33,,,PracticeSession
1624275994.36,stimulus,1,34,,,PracticeSession
1624275994.86,fixation,1,34,,,PracticeSession
1624275996.36,stimulus,1,35,,,PracticeSession
1624275996.86,fixation,1,35,,,PracticeSession
1624275998.36,stimulus,1,36,,,PracticeSession
1624275998.86,fixation,1,36,,,PracticeSession
1624276000.36,stimulus,1,37,,,PracticeSession
1624276000.86,fixation,1,37,,,PracticeSession
1624276002.36,stimulus,1,38,,,PracticeSession
1624276002.86,fixation,1,38,,,PracticeSession
1624276004.36,stimulus,1,39,,,PracticeSession
1624276004.86,fixation,1,39,,,PracticeSession
1624276006.36,stimulus,1,40,,,PracticeSession
1624276006.86,fixation,1,40,,,PracticeSession
1624276008.36,stimulus,1,41,,,PracticeSession
1624276008.86,fixation,1,41,,,PracticeSession
1624276010.36,stimulus,1,42,,,PracticeSession
1624276010.86,fixation,1,42,,,PracticeSession
1624276012.36,stimulus,1,43,,,PracticeSession
1624276012.86,fixation,1,43,,,PracticeSession
1624276014.36,stimulus,1,44,,,PracticeSession
1624276014.86,fixation,1,44,,,PracticeSession
1624276016.36,stimulus,1,45,,0.0,NoAct
1624276018.0909998,fixation,1,45,1.231,1.0,NoAct
1624276018.36,stimulus,1,46,,0.0,NoAct
1624276019.566,fixation,1,46,0.706,1.0,NoAct
1624276020.843,stimulus,1,47,0.483,1.0,NoAct
1624276020.86,fixation,1,47,,0.0,NoAct
1624276022.6759999,stimulus,1,48,0.316,1.0,NoAct
1624276022.86,fixation,1,48,,0.0,NoAct
1624276024.698,stimulus,1,49,0.338,1.0,NoAct
1624276024.86,fixation,1,49,,0.0,NoAct
1624276026.741,stimulus,1,50,0.381,1.0,NoAct
1624276026.86,fixation,1,50,,0.0,NoAct
1624276028.678,stimulus,1,51,0.318,0.0,NoAct
1624276028.86,fixation,1,51,,0.0,NoAct
1624276030.82,stimulus,1,52,0.46,1.0,NoAct
1624276030.86,fixation,1,52,,0.0,NoAct
1624276032.7029998,stimulus,1,53,0.343,1.0,NoAct
1624276032.86,fixation,1,53,,0.0,NoAct
1624276034.7659998,stimulus,1,54,0.406,1.0,NoAct
1624276034.86,fixation,1,54,,0.0,NoAct
1624276036.8119998,stimulus,1,55,0.452,1.0,NoAct
1624276036.86,fixation,1,55,,0.0,NoAct
1624276038.794,stimulus,1,56,0.434,1.0,NoAct
1624276038.86,fixation,1,56,,0.0,NoAct
1624276040.725,stimulus,1,57,0.365,1.0,NoAct
1624276040.86,fixation,1,57,,0.0,NoAct
1624276042.7429998,stimulus,1,58,0.383,1.0,NoAct
1624276042.86,fixation,1,58,,0.0,NoAct
1624276044.817,stimulus,1,59,0.457,1.0,NoAct
1624276044.86,fixation,1,59,,0.0,NoAct
1624276046.7659998,stimulus,1,60,0.406,1.0,NoAct
1624276046.86,fixation,1,60,,0.0,NoAct
1624276048.714,stimulus,1,61,0.354,1.0,NoAct
1624276048.86,fixation,1,61,,0.0,NoAct
1624276050.758,stimulus,1,62,0.398,1.0,NoAct
1624276050.86,fixation,1,62,,0.0,NoAct
1624276052.7259998,stimulus,1,63,0.366,1.0,NoAct
1624276052.86,fixation,1,63,,0.0,NoAct
1624276054.712,stimulus,1,64,0.352,1.0,NoAct
1624276054.86,fixation,1,64,,0.0,NoAct
1624276056.819,stimulus,1,65,0.459,1.0,NoAct
1624276056.86,fixation,1,65,,0.0,NoAct
1624276058.7289999,stimulus,1,66,0.369,1.0,NoAct
1624276058.86,fixation,1,66,,0.0,NoAct
1624276060.8439999,stimulus,1,67,0.484,1.0,NoAct
1624276060.86,fixation,1,67,,0.0,NoAct
1624276062.704,stimulus,1,68,0.344,1.0,NoAct
1624276062.86,fixation,1,68,,0.0,NoAct
1624276064.731,stimulus,1,69,0.371,1.0,NoAct
1624276064.86,fixation,1,69,,0.0,NoAct
1624276066.8,stimulus,1,70,0.44,1.0,NoAct
1624276066.86,fixation,1,70,,0.0,NoAct
1624276068.7429998,stimulus,1,71,0.383,1.0,NoAct
1624276068.86,fixation,1,71,,0.0,NoAct
1624276070.793,stimulus,1,72,0.433,1.0,NoAct
1624276070.86,fixation,1,72,,0.0,NoAct
1624276072.7129998,stimulus,1,73,0.353,1.0,NoAct
1624276072.86,fixation,1,73,,0.0,NoAct
1624276074.721,stimulus,1,74,0.361,0.0,NoAct
1624276074.86,fixation,1,74,,0.0,NoAct
1624276076.656,stimulus,1,75,0.296,1.0,NoAct
1624276076.86,fixation,1,75,,0.0,NoAct
1624276078.859,stimulus,1,76,0.499,1.0,NoAct
1624276078.86,fixation,1,76,,0.0,NoAct
1624276080.763,stimulus,1,77,0.403,1.0,NoAct
1624276080.86,fixation,1,77,,0.0,NoAct
1624276082.36,stimulus,1,78,,0.0,NoAct
1624276082.902,fixation,1,78,0.042,1.0,NoAct
1624276084.36,stimulus,1,79,,0.0,NoAct
1624276084.862,fixation,1,79,0.002,1.0,NoAct
1624276086.7489998,stimulus,1,80,0.389,1.0,NoAct
1624276086.86,fixation,1,80,,0.0,NoAct
1624276088.36,stimulus,1,81,,0.0,NoAct
1624276089.1539998,fixation,1,81,0.294,1.0,NoAct
1624276090.36,stimulus,1,82,,0.0,NoAct
1624276090.918,fixation,1,82,0.058,1.0,NoAct
1624276092.791,stimulus,1,83,0.431,1.0,NoAct
1624276092.86,fixation,1,83,,0.0,NoAct
1624276094.83,stimulus,1,84,0.47,1.0,NoAct
1624276094.86,fixation,1,84,,0.0,NoAct
1624276096.852,stimulus,1,85,0.492,1.0,NoAct
1624276096.86,fixation,1,85,,0.0,NoAct
1624276098.79,stimulus,1,86,0.43,1.0,NoAct
1624276098.86,fixation,1,86,,0.0,NoAct
1624276100.7849998,stimulus,1,87,0.425,1.0,NoAct
1624276100.86,fixation,1,87,,0.0,NoAct
1624276102.824,stimulus,1,88,0.464,1.0,NoAct
1624276102.86,fixation,1,88,,0.0,NoAct
1624276104.7849998,stimulus,1,89,0.425,1.0,NoAct
1624276104.86,fixation,1,89,,0.0,NoAct
1624276106.36,stimulus,1,90,,0.0,NoAct
1624276106.9139998,fixation,1,90,0.054,1.0,NoAct
1624276108.7619998,stimulus,1,91,0.402,1.0,NoAct
1624276108.86,fixation,1,91,,0.0,NoAct
1624276110.36,stimulus,1,92,,0.0,NoAct
1624276110.885,fixation,1,92,0.025,1.0,NoAct
1624276112.8339999,stimulus,1,93,0.474,0.0,NoAct
1624276112.86,fixation,1,93,,0.0,NoAct
1624276114.714,stimulus,1,94,0.354,1.0,NoAct
1624276114.86,fixation,1,94,,0.0,NoAct
1624276116.7389998,stimulus,1,95,0.379,1.0,NoAct
1624276116.86,fixation,1,95,,0.0,NoAct
1624276118.731,stimulus,1,96,0.371,1.0,NoAct
1624276118.86,fixation,1,96,,0.0,NoAct
1624276120.7819998,stimulus,1,97,0.422,1.0,NoAct
1624276120.86,fixation,1,97,,0.0,NoAct
1624276122.7459998,stimulus,1,98,0.386,1.0,NoAct
1624276122.86,fixation,1,98,,0.0,NoAct
1624276124.781,stimulus,1,99,0.421,1.0,NoAct
1624276124.86,fixation,1,99,,0.0,NoAct
1624276126.7879999,stimulus,1,100,0.428,1.0,NoAct
1624276126.86,fixation,1,100,,0.0,NoAct
1624276128.8569999,stimulus,1,101,0.497,0.0,NoAct
1624276128.86,fixation,1,101,,0.0,NoAct
1624276130.817,stimulus,1,102,0.457,1.0,NoAct
1624276130.86,fixation,1,102,,0.0,NoAct
1624276132.36,stimulus,1,103,,0.0,NoAct
1624276133.0029998,fixation,1,103,0.143,1.0,NoAct
1624276134.36,stimulus,1,104,,0.0,NoAct
1624276135.123,fixation,1,104,0.263,1.0,NoAct
1624276136.36,stimulus,1,105,,0.0,NoAct
1624276136.8679998,fixation,1,105,0.008,1.0,NoAct
1624276138.7329998,stimulus,1,106,0.373,1.0,NoAct
1624276138.86,fixation,1,106,,0.0,NoAct
1624276140.36,stimulus,1,107,,0.0,NoAct
1624276140.873,fixation,1,107,0.013,1.0,NoAct
1624276142.8049998,stimulus,1,108,0.445,1.0,NoAct
1624276142.86,fixation,1,108,,0.0,NoAct
1624276144.833,stimulus,1,109,0.473,1.0,NoAct
1624276144.86,fixation,1,109,,0.0,NoAct
1624276146.7259998,stimulus,1,110,0.366,1.0,NoAct
1624276146.86,fixation,1,110,,0.0,NoAct
1624276148.36,stimulus,1,111,,0.0,NoAct
1624276149.0019999,fixation,1,111,0.142,1.0,NoAct
1624276150.823,stimulus,1,112,0.463,1.0,NoAct
1624276150.86,fixation,1,112,,0.0,NoAct
1624276152.8079998,stimulus,1,113,0.448,1.0,NoAct
1624276152.86,fixation,1,113,,0.0,NoAct
1624276154.74,stimulus,1,114,0.38,1.0,NoAct
1624276154.86,fixation,1,114,,0.0,NoAct
1624276156.694,stimulus,1,115,0.334,1.0,NoAct
1624276156.86,fixation,1,115,,0.0,NoAct
1624276158.712,stimulus,1,116,0.352,1.0,NoAct
1624276158.86,fixation,1,116,,0.0,NoAct
1624276160.767,stimulus,1,117,0.407,1.0,NoAct
1624276160.86,fixation,1,117,,0.0,NoAct
1624276162.781,stimulus,1,118,0.421,1.0,NoAct
1624276162.86,fixation,1,118,,0.0,NoAct
1624276164.814,stimulus,1,119,0.454,1.0,NoAct
1624276164.86,fixation,1,119,,0.0,NoAct
1624276166.7489998,stimulus,1,120,0.389,1.0,NoAct
1624276166.86,fixation,1,120,,0.0,NoAct
1624276168.735,stimulus,1,121,0.375,1.0,NoAct
1624276168.86,fixation,1,121,,0.0,NoAct
1624276170.796,stimulus,1,122,0.436,1.0,NoAct
1624276170.86,fixation,1,122,,0.0,NoAct
1624276172.745,stimulus,1,123,0.385,1.0,NoAct
1624276172.86,fixation,1,123,,0.0,NoAct
1624276174.7549999,stimulus,1,124,0.395,1.0,NoAct
1624276174.86,fixation,1,124,,0.0,NoAct
1624276176.7319999,stimulus,1,125,0.372,1.0,NoAct
1624276176.86,fixation,1,125,,0.0,NoAct
1624276178.7389998,stimulus,1,126,0.379,1.0,NoAct
1624276178.86,fixation,1,126,,0.0,NoAct
1624276180.714,stimulus,1,127,0.354,1.0,NoAct
1624276180.86,fixation,1,127,,0.0,NoAct
1624276182.783,stimulus,1,128,0.423,1.0,NoAct
1624276182.86,fixation,1,128,,0.0,NoAct
1624276184.7649999,stimulus,1,129,0.405,1.0,NoAct
1624276184.86,fixation,1,129,,0.0,NoAct
1624276186.8089998,stimulus,1,130,0.449,1.0,NoAct
1624276186.86,fixation,1,130,,0.0,NoAct
1624276188.702,stimulus,1,131,0.342,1.0,NoAct
1624276189.0249999,fixation,1,131,0.165,1.0,NoAct
1624276190.725,stimulus,1,132,0.365,1.0,NoAct
1624276190.86,fixation,1,132,,0.0,NoAct
1624276192.36,stimulus,1,133,,0.0,NoAct
1624276193.0019999,fixation,1,133,0.142,1.0,NoAct
1624276194.738,stimulus,1,134,0.378,1.0,NoAct
1624276194.86,fixation,1,134,,0.0,NoAct
1624276196.748,stimulus,1,135,0.388,1.0,NoAct
1624276196.86,fixation,1,135,,0.0,NoAct
1624276198.36,stimulus,1,136,,0.0,NoAct
1624276198.9729998,fixation,1,136,0.113,1.0,NoAct
1624276200.806,stimulus,1,137,0.446,1.0,NoAct
1624276200.86,fixation,1,137,,0.0,NoAct
1624276202.7199998,stimulus,1,138,0.36,1.0,NoAct
1624276202.86,fixation,1,138,,0.0,NoAct
1624276204.36,stimulus,1,139,,0.0,NoAct
1624276204.931,fixation,1,139,0.071,1.0,NoAct
1624276206.8149998,stimulus,1,140,0.455,1.0,NoAct
1624276206.86,fixation,1,140,,0.0,NoAct
1624276208.36,stimulus,1,141,,0.0,NoAct
1624276209.4399998,fixation,1,141,0.58,1.0,NoAct
1624276210.36,stimulus,1,142,,0.0,NoAct
1624276211.083,fixation,1,142,0.223,1.0,NoAct
1624276212.36,stimulus,1,143,,0.0,NoAct
1624276212.8739998,fixation,1,143,0.014,1.0,NoAct
1624276214.8049998,stimulus,1,144,0.445,1.0,NoAct
1624276214.86,fixation,1,144,,0.0,NoAct
1624276216.36,stimulus,1,145,,0.0,NoAct
1624276216.9759998,fixation,1,145,0.116,0.0,NoAct
1624276218.36,stimulus,1,146,,0.0,NoAct
1624276219.1109998,fixation,1,146,0.251,1.0,NoAct
1624276220.8089998,stimulus,1,147,0.449,0.0,NoAct
1624276220.86,fixation,1,147,,0.0,NoAct
1624276222.36,stimulus,1,148,,0.0,NoAct
1624276222.86,fixation,1,148,,0.0,NoAct
1624276224.803,stimulus,1,149,0.443,1.0,NoAct
1624276224.86,fixation,1,149,,0.0,NoAct
1624276226.8179998,stimulus,1,150,0.458,1.0,NoAct
1624276226.86,fixation,1,150,,0.0,NoAct
1624276228.36,stimulus,1,151,,0.0,NoAct
1624276228.935,fixation,1,151,0.075,1.0,NoAct
1624276230.8049998,stimulus,1,152,0.445,1.0,NoAct
1624276230.86,fixation,1,152,,0.0,NoAct
1624276232.7649999,stimulus,1,153,0.405,1.0,NoAct
1624276232.86,fixation,1,153,,0.0,NoAct
1624276234.81,stimulus,1,154,0.45,1.0,NoAct
1624276234.86,fixation,1,154,,0.0,NoAct
1624276236.36,stimulus,1,155,,0.0,NoAct
1624276236.9429998,fixation,1,155,0.083,1.0,NoAct
1624276238.715,stimulus,1,156,0.355,1.0,NoAct
1624276238.86,fixation,1,156,,0.0,NoAct
1624276240.7089999,stimulus,1,157,0.349,1.0,NoAct
1624276240.86,fixation,1,157,,0.0,NoAct
1624276242.8079998,stimulus,1,158,0.448,1.0,NoAct
1624276242.86,fixation,1,158,,0.0,NoAct
1624276244.7329998,stimulus,1,159,0.373,1.0,NoAct
1624276244.86,fixation,1,159,,0.0,NoAct
1624276246.6599998,stimulus,1,160,0.3,1.0,NoAct
1624276246.86,fixation,1,160,,0.0,NoAct
1624276248.704,stimulus,1,161,0.344,1.0,NoAct
1624276248.9729998,fixation,1,161,0.113,1.0,NoAct
1624276250.6929998,stimulus,1,162,0.333,1.0,NoAct
1624276250.86,fixation,1,162,,0.0,NoAct
1624276252.708,stimulus,1,163,0.348,1.0,NoAct
1624276252.86,fixation,1,163,,0.0,NoAct
1624276254.771,stimulus,1,164,0.411,1.0,NoAct
1624276254.86,fixation,1,164,,0.0,NoAct
1624276256.711,stimulus,1,165,0.351,1.0,NoAct
1624276256.86,fixation,1,165,,0.0,NoAct
1624276258.816,stimulus,1,166,0.456,1.0,NoAct
1624276258.86,fixation,1,166,,0.0,NoAct
1624276260.734,stimulus,1,167,0.374,1.0,NoAct
1624276260.86,fixation,1,167,,0.0,NoAct
1624276262.744,stimulus,1,168,0.384,1.0,NoAct
1624276262.86,fixation,1,168,,0.0,NoAct
1624276264.6299999,stimulus,1,169,0.27,1.0,NoAct
1624276264.86,fixation,1,169,,0.0,NoAct
1624276266.7189999,stimulus,1,170,0.359,1.0,NoAct
1624276266.86,fixation,1,170,,0.0,NoAct
1624276268.685,stimulus,1,171,0.325,1.0,NoAct
1624276268.86,fixation,1,171,,0.0,NoAct
1624276270.75,stimulus,1,172,0.39,1.0,NoAct
1624276270.86,fixation,1,172,,0.0,NoAct
1624276272.7589998,stimulus,1,173,0.399,1.0,NoAct
1624276272.86,fixation,1,173,,0.0,NoAct
1624276274.771,stimulus,1,174,0.411,1.0,NoAct
1624276274.86,fixation,1,174,,0.0,NoAct
1624276276.741,stimulus,1,175,0.381,0.0,NoAct
1624276276.86,fixation,1,175,,0.0,NoAct
1624276278.8049998,stimulus,1,176,0.445,1.0,NoAct
1624276278.86,fixation,1,176,,0.0,NoAct
1624276280.36,stimulus,1,177,,0.0,NoAct
1624276280.895,fixation,1,177,0.035,1.0,NoAct
1624276282.7549999,stimulus,1,178,0.395,1.0,NoAct
1624276282.86,fixation,1,178,,0.0,NoAct
1624276284.7879999,stimulus,1,179,0.428,1.0,NoAct
1624276284.86,fixation,1,179,,0.0,NoAct
1624276286.717,stimulus,1,180,0.357,0.0,NoAct
1624276286.86,fixation,1,180,,0.0,NoAct
1624276288.7549999,stimulus,1,181,0.395,1.0,NoAct
1624276288.86,fixation,1,181,,0.0,NoAct
1624276290.754,stimulus,1,182,0.394,1.0,NoAct
1624276290.86,fixation,1,182,,0.0,NoAct
1624276292.7089999,stimulus,1,183,0.349,1.0,NoAct
1624276292.86,fixation,1,183,,0.0,NoAct
1624276294.7199998,stimulus,1,184,0.36,1.0,NoAct
1624276294.86,fixation,1,184,,0.0,NoAct
1624276296.728,stimulus,1,185,0.368,1.0,NoAct
1624276296.86,fixation,1,185,,0.0,NoAct
1624276298.7329998,stimulus,1,186,0.373,1.0,NoAct
1624276298.86,fixation,1,186,,0.0,NoAct
1624276300.714,stimulus,1,187,0.354,1.0,NoAct
1624276300.86,fixation,1,187,,0.0,NoAct
1624276302.7589998,stimulus,1,188,0.399,1.0,NoAct
1624276302.86,fixation,1,188,,0.0,NoAct
1624276304.84,stimulus,1,189,0.48,1.0,NoAct
1624276304.86,fixation,1,189,,0.0,NoAct
1624276306.655,stimulus,1,190,0.295,1.0,NoAct
1624276306.86,fixation,1,190,,0.0,NoAct
1624276308.691,stimulus,1,191,0.331,1.0,NoAct
1624276308.86,fixation,1,191,,0.0,NoAct
1624276310.715,stimulus,1,192,0.355,1.0,NoAct
1624276310.86,fixation,1,192,,0.0,NoAct
1624276312.7389998,stimulus,1,193,0.379,1.0,NoAct
1624276312.86,fixation,1,193,,0.0,NoAct
1624276314.7289999,stimulus,1,194,0.369,1.0,NoAct
1624276314.86,fixation,1,194,,0.0,NoAct
1624276316.767,stimulus,1,195,0.407,1.0,NoAct
1624276316.86,fixation,1,195,,0.0,NoAct
1624276318.694,stimulus,1,196,0.334,1.0,NoAct
1624276318.86,fixation,1,196,,0.0,NoAct
1624276320.728,stimulus,1,197,0.368,1.0,NoAct
1624276320.86,fixation,1,197,,0.0,NoAct
1624276322.75,stimulus,1,198,0.39,1.0,NoAct
1624276322.86,fixation,1,198,,0.0,NoAct
1624276324.36,stimulus,1,199,,0.0,NoAct
1624276324.949,fixation,1,199,0.089,1.0,NoAct
1624276326.692,stimulus,1,200,0.332,1.0,NoAct
1624276326.86,fixation,1,200,,0.0,NoAct
1624276328.7189999,stimulus,1,201,0.359,1.0,NoAct
1624276328.86,fixation,1,201,,0.0,NoAct
1624276330.717,stimulus,1,202,0.357,1.0,NoAct
1624276330.86,fixation,1,202,,0.0,NoAct
1624276332.751,stimulus,1,203,0.391,1.0,NoAct
1624276332.86,fixation,1,203,,0.0,NoAct
1624276334.36,stimulus,1,204,,0.0,NoAct
1624276334.893,fixation,1,204,0.033,1.0,NoAct
1624276336.7919998,stimulus,1,205,0.432,1.0,NoAct
1624276336.86,fixation,1,205,,0.0,NoAct
1624276338.763,stimulus,1,206,0.403,1.0,NoAct
1624276338.86,fixation,1,206,,0.0,NoAct
1624276340.36,stimulus,1,207,,0.0,NoAct
1624276340.889,fixation,1,207,0.029,1.0,NoAct
1624276342.702,stimulus,1,208,0.342,1.0,NoAct
1624276342.86,fixation,1,208,,0.0,NoAct
1624276344.7199998,stimulus,1,209,0.36,1.0,NoAct
1624276344.86,fixation,1,209,,0.0,NoAct
1624276346.8319998,stimulus,1,210,0.472,1.0,NoAct
1624276346.86,fixation,1,210,,0.0,NoAct
1624276348.7979999,stimulus,1,211,0.438,1.0,NoAct
1624276348.86,fixation,1,211,,0.0,NoAct
1624276350.859,stimulus,1,212,0.499,1.0,NoAct
1624276350.86,fixation,1,212,,0.0,NoAct
1624276352.7389998,stimulus,1,213,0.379,1.0,NoAct
1624276352.86,fixation,1,213,,0.0,NoAct
1624276354.787,stimulus,1,214,0.427,1.0,NoAct
1624276354.86,fixation,1,214,,0.0,NoAct
1624276356.777,stimulus,1,215,0.417,1.0,NoAct
1624276356.86,fixation,1,215,,0.0,NoAct
1624276358.36,stimulus,1,216,,0.0,NoAct
1624276358.984,fixation,1,216,0.124,1.0,NoAct
1624276360.8349998,stimulus,1,217,0.475,0.0,NoAct
1624276360.86,fixation,1,217,,0.0,NoAct
1624276362.8009999,stimulus,1,218,0.441,1.0,NoAct
1624276362.86,fixation,1,218,,0.0,NoAct
1624276364.784,stimulus,1,219,0.424,1.0,NoAct
1624276364.86,fixation,1,219,,0.0,NoAct
1624276366.36,stimulus,1,220,,0.0,NoAct
1624276367.0049999,fixation,1,220,0.145,1.0,NoAct
1624276368.36,stimulus,1,221,,,NoAct
1624276368.86,fixation,1,221,,,NoAct
1624276370.36,stimulus,1,222,,0.0,NoAct
1624276370.987,fixation,1,222,0.127,1.0,NoAct
1624276372.738,stimulus,1,223,0.378,1.0,NoAct
1624276372.86,fixation,1,223,,0.0,NoAct
1624276374.7549999,stimulus,1,224,0.395,1.0,NoAct
1624276374.86,fixation,1,224,,0.0,NoAct
1624276376.814,stimulus,1,225,0.454,1.0,NoAct
1624276376.86,fixation,1,225,,0.0,NoAct
1624276378.76,stimulus,1,226,0.4,1.0,NoAct
1624276378.86,fixation,1,226,,0.0,NoAct
1624276380.7779999,stimulus,1,227,0.418,1.0,NoAct
1624276380.86,fixation,1,227,,0.0,NoAct
1624276382.81,stimulus,1,228,0.45,1.0,NoAct
1624276382.86,fixation,1,228,,0.0,NoAct
1624276384.7889998,stimulus,1,229,0.429,1.0,NoAct
1624276384.86,fixation,1,229,,0.0,NoAct
1624276386.36,stimulus,1,230,,0.0,NoAct
1624276387.0509999,fixation,1,230,0.191,0.0,NoAct
1624276388.814,stimulus,1,231,0.454,1.0,NoAct
1624276388.86,fixation,1,231,,0.0,NoAct
1624276390.7849998,stimulus,1,232,0.425,1.0,NoAct
1624276390.86,fixation,1,232,,0.0,NoAct
1624276392.36,stimulus,1,233,,0.0,NoAct
1624276392.991,fixation,1,233,0.131,0.0,NoAct
1624276394.36,stimulus,1,234,,0.0,NoAct
1624276395.359,fixation,1,234,0.499,0.0,NoAct
1624276396.36,stimulus,1,235,,0.0,NoAct
1624276396.896,fixation,1,235,0.036,0.0,NoAct
1624276398.36,stimulus,1,236,,0.0,NoAct
1624276399.097,fixation,1,236,0.237,1.0,NoAct
1624276400.773,stimulus,1,237,0.413,1.0,NoAct
1624276400.86,fixation,1,237,,0.0,NoAct
1624276402.843,stimulus,1,238,0.483,1.0,NoAct
1624276402.86,fixation,1,238,,0.0,NoAct
1624276404.36,stimulus,1,239,,0.0,NoAct
1624276404.941,fixation,1,239,0.081,1.0,NoAct
1624276406.849,stimulus,1,240,0.489,0.0,NoAct
1624276406.86,fixation,1,240,,0.0,NoAct
1624276408.36,stimulus,1,241,,0.0,NoAct
1624276408.9919999,fixation,1,241,0.132,1.0,NoAct
1624276410.36,stimulus,1,242,,0.0,NoAct
1624276411.047,fixation,1,242,0.187,1.0,NoAct
1624276412.8149998,stimulus,1,243,0.455,1.0,NoAct
1624276412.86,fixation,1,243,,0.0,NoAct
1624276414.36,stimulus,1,244,,0.0,NoAct
1624276415.031,fixation,1,244,0.171,1.0,NoAct
1624276416.36,stimulus,1,245,,0.0,NoAct
1624276416.9819999,fixation,1,245,0.122,1.0,NoAct
1624276418.7289999,stimulus,1,246,0.369,1.0,NoAct
1624276418.86,fixation,1,246,,0.0,NoAct
1624276420.36,stimulus,1,247,,0.0,NoAct
1624276420.87,fixation,1,247,0.01,1.0,NoAct
1624276422.7619998,stimulus,1,248,0.402,1.0,NoAct
1624276422.86,fixation,1,248,,0.0,NoAct
1624276424.824,stimulus,1,249,0.464,1.0,NoAct
1624276424.86,fixation,1,249,,0.0,NoAct
1624276426.712,stimulus,1,250,0.352,1.0,NoAct
1624276426.86,fixation,1,250,,0.0,NoAct
1624276428.8339999,stimulus,1,251,0.474,1.0,NoAct
1624276428.86,fixation,1,251,,0.0,NoAct
1624276430.6929998,stimulus,1,252,0.333,1.0,NoAct
1624276430.86,fixation,1,252,,0.0,NoAct
1624276432.7979999,stimulus,1,253,0.438,1.0,NoAct
1624276432.86,fixation,1,253,,0.0,NoAct
1624276434.7659998,stimulus,1,254,0.406,1.0,NoAct
1624276434.86,fixation,1,254,,0.0,NoAct
1624276436.767,stimulus,1,255,0.407,1.0,NoAct
1624276436.86,fixation,1,255,,0.0,NoAct
1624276438.7189999,stimulus,1,256,0.359,1.0,NoAct
1624276438.86,fixation,1,256,,0.0,NoAct
1624276440.701,stimulus,1,257,0.341,1.0,NoAct
1624276440.86,fixation,1,257,,0.0,NoAct
1624276442.672,stimulus,1,258,0.312,1.0,NoAct
1624276442.86,fixation,1,258,,0.0,NoAct
1624276444.698,stimulus,1,259,0.338,1.0,NoAct
1624276444.86,fixation,1,259,,0.0,NoAct
1624276446.7319999,stimulus,1,260,0.372,1.0,NoAct
1624276446.86,fixation,1,260,,0.0,NoAct
1624276448.728,stimulus,1,261,0.368,1.0,NoAct
1624276448.86,fixation,1,261,,0.0,NoAct
1624276450.705,stimulus,1,262,0.345,0.0,NoAct
1624276450.86,fixation,1,262,,0.0,NoAct
1624276452.7549999,stimulus,1,263,0.395,1.0,NoAct
1624276452.86,fixation,1,263,,0.0,NoAct
1624276454.741,stimulus,1,264,0.381,1.0,NoAct
1624276454.86,fixation,1,264,,0.0,NoAct
1624276456.6999998,stimulus,1,265,0.34,1.0,NoAct
1624276456.86,fixation,1,265,,0.0,NoAct
1624276458.36,stimulus,1,266,,0.0,NoAct
1624276458.885,fixation,1,266,0.025,1.0,NoAct
1624276460.36,stimulus,1,267,,0.0,NoAct
1624276460.865,fixation,1,267,0.005,1.0,NoAct
1624276462.704,stimulus,1,268,0.344,1.0,NoAct
1624276462.86,fixation,1,268,,0.0,NoAct
1624276464.796,stimulus,1,269,0.436,1.0,NoAct
1624276464.86,fixation,1,269,,0.0,NoAct
1624276466.721,stimulus,1,270,0.361,1.0,NoAct
1624276466.86,fixation,1,270,,0.0,NoAct
1624276468.7129998,stimulus,1,271,0.353,1.0,NoAct
1624276468.86,fixation,1,271,,0.0,NoAct
1624276470.36,stimulus,1,272,,0.0,NoAct
1624276470.912,fixation,1,272,0.052,1.0,NoAct
1624276472.7159998,stimulus,1,273,0.356,1.0,NoAct
1624276472.86,fixation,1,273,,0.0,NoAct
1624276474.7319999,stimulus,1,274,0.372,1.0,NoAct
1624276474.86,fixation,1,274,,0.0,NoAct
1624276476.771,stimulus,1,275,0.411,1.0,NoAct
1624276476.86,fixation,1,275,,0.0,NoAct
1624276478.36,stimulus,1,276,,0.0,NoAct
1624276478.863,fixation,1,276,0.003,1.0,NoAct
1624276480.744,stimulus,1,277,0.384,1.0,NoAct
1624276480.86,fixation,1,277,,0.0,NoAct
1624276482.833,stimulus,1,278,0.473,1.0,NoAct
1624276482.86,fixation,1,278,,0.0,NoAct
1624276484.797,stimulus,1,279,0.437,1.0,NoAct
1624276484.86,fixation,1,279,,0.0,NoAct
1624276486.721,stimulus,1,280,0.361,1.0,NoAct
1624276486.86,fixation,1,280,,0.0,NoAct
1624276488.711,stimulus,1,281,0.351,1.0,NoAct
1624276488.86,fixation,1,281,,0.0,NoAct
1624276490.7069998,stimulus,1,282,0.347,1.0,NoAct
1624276490.86,fixation,1,282,,0.0,NoAct
1624276492.773,stimulus,1,283,0.413,1.0,NoAct
1624276492.86,fixation,1,283,,0.0,NoAct
1624276494.754,stimulus,1,284,0.394,1.0,NoAct
1624276494.86,fixation,1,284,,0.0,NoAct
1624276496.758,stimulus,1,285,0.398,1.0,NoAct
1624276496.86,fixation,1,285,,0.0,NoAct
1624276498.6509998,stimulus,1,286,0.291,1.0,NoAct
1624276498.86,fixation,1,286,,0.0,NoAct
1624276500.721,stimulus,1,287,0.361,1.0,NoAct
1624276500.86,fixation,1,287,,0.0,NoAct
1624276502.83,stimulus,1,288,0.47,1.0,NoAct
1624276502.86,fixation,1,288,,0.0,NoAct
1624276504.7199998,stimulus,1,289,0.36,1.0,NoAct
1624276504.86,fixation,1,289,,0.0,NoAct
1624276506.741,stimulus,1,290,0.381,1.0,NoAct
1624276506.86,fixation,1,290,,0.0,NoAct
1624276508.764,stimulus,1,291,0.404,1.0,NoAct
1624276508.86,fixation,1,291,,0.0,NoAct
1624276510.715,stimulus,1,292,0.355,1.0,NoAct
1624276510.86,fixation,1,292,,0.0,NoAct
1624276512.7319999,stimulus,1,293,0.372,1.0,NoAct
1624276512.86,fixation,1,293,,0.0,NoAct
1624276514.817,stimulus,1,294,0.457,0.0,NoAct
1624276514.86,fixation,1,294,,0.0,NoAct
1624276516.797,stimulus,1,295,0.437,1.0,NoAct
1624276516.86,fixation,1,295,,0.0,NoAct
1624276518.7029998,stimulus,1,296,0.343,1.0,NoAct
1624276518.86,fixation,1,296,,0.0,NoAct
1624276520.7329998,stimulus,1,297,0.373,1.0,NoAct
1624276520.86,fixation,1,297,,0.0,NoAct
1624276522.807,stimulus,1,298,0.447,1.0,NoAct
1624276522.86,fixation,1,298,,0.0,NoAct
1624276524.747,stimulus,1,299,0.387,1.0,NoAct
1624276524.86,fixation,1,299,,0.0,NoAct
1624276526.731,stimulus,1,300,0.371,1.0,NoAct
1624276526.86,fixation,1,300,,0.0,NoAct
1624276528.819,stimulus,1,301,0.459,1.0,NoAct
1624276528.86,fixation,1,301,,0.0,NoAct
1624276530.761,stimulus,1,302,0.401,1.0,NoAct
1624276530.86,fixation,1,302,,0.0,NoAct
1624276532.36,stimulus,1,303,,0.0,NoAct
1624276532.86,fixation,1,303,,0.0,NoAct
1624276534.8149998,stimulus,1,304,0.455,1.0,NoAct
1624276534.86,fixation,1,304,,0.0,NoAct
1624276536.833,stimulus,1,305,0.473,1.0,NoAct
1624276536.86,fixation,1,305,,0.0,NoAct
1624276538.702,stimulus,1,306,0.342,1.0,NoAct
1624276538.86,fixation,1,306,,0.0,NoAct
1624276540.783,stimulus,1,307,0.423,1.0,NoAct
1624276540.86,fixation,1,307,,0.0,NoAct
1624276542.36,stimulus,1,308,,0.0,NoAct
1624276542.949,fixation,1,308,0.089,1.0,NoAct
1624276544.7949998,stimulus,1,309,0.435,1.0,NoAct
1624276544.86,fixation,1,309,,0.0,NoAct
1624276546.36,stimulus,1,310,,0.0,NoAct
1624276546.925,fixation,1,310,0.065,1.0,NoAct
1624276548.6639998,stimulus,1,311,0.304,1.0,NoAct
1624276548.86,fixation,1,311,,0.0,NoAct
1624276550.623,stimulus,1,312,0.263,1.0,NoAct
1624276550.86,fixation,1,312,,0.0,NoAct
1624276552.8279998,stimulus,1,313,0.468,1.0,NoAct
1624276552.86,fixation,1,313,,0.0,NoAct
1624276554.727,stimulus,1,314,0.367,1.0,NoAct
1624276554.86,fixation,1,314,,0.0,NoAct
1624276556.794,stimulus,1,315,0.434,1.0,NoAct
1624276556.86,fixation,1,315,,0.0,NoAct
1624276558.82,stimulus,1,316,0.46,1.0,NoAct
1624276558.86,fixation,1,316,,0.0,NoAct
1624276560.747,stimulus,1,317,0.387,1.0,NoAct
1624276560.86,fixation,1,317,,0.0,NoAct
1624276562.83,stimulus,1,318,0.47,1.0,NoAct
1624276562.86,fixation,1,318,,0.0,NoAct
1624276564.8479998,stimulus,1,319,0.488,0.0,NoAct
1624276564.86,fixation,1,319,,0.0,NoAct
1624276566.734,stimulus,1,320,0.374,1.0,NoAct
1624276566.86,fixation,1,320,,0.0,NoAct
1624276568.699,stimulus,1,321,0.339,1.0,NoAct
1624276568.86,fixation,1,321,,0.0,NoAct
1624276570.84,stimulus,1,322,0.48,1.0,NoAct
1624276570.86,fixation,1,322,,0.0,NoAct
1624276572.7749999,stimulus,1,323,0.415,1.0,NoAct
1624276572.86,fixation,1,323,,0.0,NoAct
1624276574.8509998,stimulus,1,324,0.491,1.0,NoAct
1624276574.86,fixation,1,324,,0.0,NoAct
1624276576.8089998,stimulus,1,325,0.449,1.0,NoAct
1624276576.86,fixation,1,325,,0.0,NoAct
1624276578.777,stimulus,1,326,0.417,1.0,NoAct
1624276578.86,fixation,1,326,,0.0,NoAct
1624276580.714,stimulus,1,327,0.354,1.0,NoAct
1624276580.86,fixation,1,327,,0.0,NoAct
1624276582.36,stimulus,1,328,,0.0,NoAct
1624276583.004,fixation,1,328,0.144,1.0,NoAct
1624276584.771,stimulus,1,329,0.411,1.0,NoAct
1624276584.86,fixation,1,329,,0.0,NoAct
1624276586.7789998,stimulus,1,330,0.419,1.0,NoAct
1624276586.86,fixation,1,330,,0.0,NoAct
1624276588.36,stimulus,1,331,,0.0,NoAct
1624276588.988,fixation,1,331,0.128,1.0,NoAct
1624276590.36,stimulus,1,332,,0.0,NoAct
1624276591.119,fixation,1,332,0.259,1.0,NoAct
1624276592.6859999,stimulus,1,333,0.326,1.0,NoAct
1624276592.86,fixation,1,333,,0.0,NoAct
1624276594.781,stimulus,1,334,0.421,1.0,NoAct
1624276594.86,fixation,1,334,,0.0,NoAct
1624276596.7549999,stimulus,1,335,0.395,1.0,NoAct
1624276596.86,fixation,1,335,,0.0,NoAct
1624276598.7459998,stimulus,1,336,0.386,1.0,NoAct
1624276598.86,fixation,1,336,,0.0,NoAct
1624276600.754,stimulus,1,337,0.394,1.0,NoAct
1624276600.86,fixation,1,337,,0.0,NoAct
1624276602.7559998,stimulus,1,338,0.396,1.0,NoAct
1624276602.86,fixation,1,338,,0.0,NoAct
1624276604.6929998,stimulus,1,339,0.333,1.0,NoAct
1624276604.86,fixation,1,339,,0.0,NoAct
1624276606.721,stimulus,1,340,0.361,1.0,NoAct
1624276606.86,fixation,1,340,,0.0,NoAct
1624276608.852,stimulus,1,341,0.492,1.0,NoAct
1624276608.86,fixation,1,341,,0.0,NoAct
1624276610.7689998,stimulus,1,342,0.409,1.0,NoAct
1624276610.86,fixation,1,342,,0.0,NoAct
1624276612.7559998,stimulus,1,343,0.396,1.0,NoAct
1624276612.86,fixation,1,343,,0.0,NoAct
1624276614.7619998,stimulus,1,344,0.402,1.0,NoAct
1624276614.86,fixation,1,344,,0.0,NoAct
1624276616.7319999,stimulus,1,345,0.372,1.0,NoAct
1624276616.86,fixation,1,345,,0.0,NoAct
1624276618.77,stimulus,1,346,0.41,1.0,NoAct
1624276618.86,fixation,1,346,,0.0,NoAct
1624276620.727,stimulus,1,347,0.367,1.0,NoAct
1624276620.86,fixation,1,347,,0.0,NoAct
1624276622.85,stimulus,1,348,0.49,1.0,NoAct
1624276622.86,fixation,1,348,,0.0,NoAct
1624276624.7759998,stimulus,1,349,0.416,1.0,NoAct
1624276624.86,fixation,1,349,,0.0,NoAct
1624276626.8,stimulus,1,350,0.44,1.0,NoAct
1624276626.86,fixation,1,350,,0.0,NoAct
1624276628.7299998,stimulus,1,351,0.37,1.0,NoAct
1624276628.86,fixation,1,351,,0.0,NoAct
1624276630.649,stimulus,1,352,0.289,1.0,NoAct
1624276630.86,fixation,1,352,,0.0,NoAct
1624276632.824,stimulus,1,353,0.464,1.0,NoAct
1624276632.86,fixation,1,353,,0.0,NoAct
1624276634.847,stimulus,1,354,0.487,1.0,NoAct
1624276634.86,fixation,1,354,,0.0,NoAct
1624276636.36,stimulus,1,355,,0.0,NoAct
1624276636.865,fixation,1,355,0.005,1.0,NoAct
1624276638.695,stimulus,1,356,0.335,1.0,NoAct
1624276638.86,fixation,1,356,,0.0,NoAct
1624276640.8349998,stimulus,1,357,0.475,1.0,NoAct
1624276640.86,fixation,1,357,,0.0,NoAct
1624276642.8209999,stimulus,1,358,0.461,1.0,NoAct
1624276642.86,fixation,1,358,,0.0,NoAct
1624276644.829,stimulus,1,359,0.469,1.0,NoAct
1624276644.86,fixation,1,359,,0.0,NoAct
1624276646.7879999,stimulus,1,360,0.428,1.0,NoAct
1624276646.86,fixation,1,360,,0.0,NoAct
1624276648.75,stimulus,1,361,0.39,1.0,NoAct
1624276648.86,fixation,1,361,,0.0,NoAct
1624276650.7189999,stimulus,1,362,0.359,1.0,NoAct
1624276650.86,fixation,1,362,,0.0,NoAct
1624276652.8379998,stimulus,1,363,0.478,1.0,NoAct
1624276652.86,fixation,1,363,,0.0,NoAct
1624276654.7879999,stimulus,1,364,0.428,0.0,NoAct
1624276654.86,fixation,1,364,,0.0,NoAct
1624276656.7979999,stimulus,1,365,0.438,1.0,NoAct
1624276656.86,fixation,1,365,,0.0,NoAct
1624276658.8439999,stimulus,1,366,0.484,1.0,NoAct
1624276658.86,fixation,1,366,,0.0,NoAct
1624276660.774,stimulus,1,367,0.414,1.0,NoAct
1624276660.86,fixation,1,367,,0.0,NoAct
1624276662.7689998,stimulus,1,368,0.409,1.0,NoAct
1624276662.86,fixation,1,368,,0.0,NoAct
1624276664.36,stimulus,1,369,,0.0,NoAct
1624276664.8799999,fixation,1,369,0.02,1.0,NoAct
1624276666.7719998,stimulus,1,370,0.412,1.0,NoAct
1624276666.86,fixation,1,370,,0.0,NoAct
1624276668.744,stimulus,1,371,0.384,1.0,NoAct
1624276668.86,fixation,1,371,,0.0,NoAct
1624276670.78,stimulus,1,372,0.42,1.0,NoAct
1624276670.86,fixation,1,372,,0.0,NoAct
1624276672.8079998,stimulus,1,373,0.448,1.0,NoAct
1624276672.86,fixation,1,373,,0.0,NoAct
1624276674.36,stimulus,1,374,,0.0,NoAct
1624276674.902,fixation,1,374,0.042,1.0,NoAct
1624276676.781,stimulus,1,375,0.421,1.0,NoAct
1624276676.86,fixation,1,375,,0.0,NoAct
1624276678.36,stimulus,1,376,,0.0,NoAct
1624276678.9009998,fixation,1,376,0.041,1.0,NoAct
1624276680.807,stimulus,1,377,0.447,1.0,NoAct
1624276680.86,fixation,1,377,,0.0,NoAct
1624276682.737,stimulus,1,378,0.377,1.0,NoAct
1624276682.86,fixation,1,378,,0.0,NoAct
1624276684.7259998,stimulus,1,379,0.366,1.0,NoAct
1624276684.86,fixation,1,379,,0.0,NoAct
1624276686.692,stimulus,1,380,0.332,1.0,NoAct
1624276686.86,fixation,1,380,,0.0,NoAct
1624276688.727,stimulus,1,381,0.367,1.0,NoAct
1624276688.86,fixation,1,381,,0.0,NoAct
1624276690.744,stimulus,1,382,0.384,1.0,NoAct
1624276690.86,fixation,1,382,,0.0,NoAct
1624276692.652,stimulus,1,383,0.292,1.0,NoAct
1624276692.86,fixation,1,383,,0.0,NoAct
1624276694.36,stimulus,1,384,,0.0,NoAct
1624276694.909,fixation,1,384,0.049,1.0,NoAct
1624276696.836,stimulus,1,385,0.476,1.0,NoAct
1624276696.86,fixation,1,385,,0.0,NoAct
1624276698.36,stimulus,1,386,,0.0,NoAct
1624276698.908,fixation,1,386,0.048,1.0,NoAct
1624276700.7289999,stimulus,1,387,0.369,1.0,NoAct
1624276700.86,fixation,1,387,,0.0,NoAct
1624276702.7879999,stimulus,1,388,0.428,1.0,NoAct
1624276702.86,fixation,1,388,,0.0,NoAct
1624276704.7549999,stimulus,1,389,0.395,1.0,NoAct
1624276704.86,fixation,1,389,,0.0,NoAct
1624276706.8569999,stimulus,1,390,0.497,1.0,NoAct
1624276706.86,fixation,1,390,,0.0,NoAct
1624276708.711,stimulus,1,391,0.351,1.0,NoAct
1624276708.86,fixation,1,391,,0.0,NoAct
1624276710.79,stimulus,1,392,0.43,1.0,NoAct
1624276710.86,fixation,1,392,,0.0,NoAct
1624276712.763,stimulus,1,393,0.403,1.0,NoAct
1624276712.86,fixation,1,393,,0.0,NoAct
1624276714.7419999,stimulus,1,394,0.382,1.0,NoAct
1624276714.86,fixation,1,394,,0.0,NoAct
1624276716.672,stimulus,1,395,0.312,1.0,NoAct
1624276716.86,fixation,1,395,,0.0,NoAct
1624276718.36,stimulus,1,396,,0.0,NoAct
1624276718.8999999,fixation,1,396,0.04,1.0,NoAct
1624276720.7159998,stimulus,1,397,0.356,1.0,NoAct
1624276720.86,fixation,1,397,,0.0,NoAct
1624276722.36,stimulus,1,398,,,PerfumeSession
1624276722.86,fixation,1,398,,,PerfumeSession
1624276724.36,stimulus,1,399,,,PerfumeSession
1624276724.86,fixation,1,399,,,PerfumeSession
1624276726.36,stimulus,1,400,,,PerfumeSession
1624276726.86,fixation,1,400,,,PerfumeSession
1624276728.36,stimulus,1,401,,,PerfumeSession
1624276728.86,fixation,1,401,,,PerfumeSession
1624276730.36,stimulus,1,402,,,PerfumeSession
1624276730.86,fixation,1,402,,,PerfumeSession
1624276732.36,stimulus,1,403,,,PerfumeSession
1624276732.86,fixation,1,403,,,PerfumeSession
1624276734.36,stimulus,1,404,,,PerfumeSession
1624276734.86,fixation,1,404,,,PerfumeSession
1624276736.36,stimulus,1,405,,,PerfumeSession
1624276736.86,fixation,1,405,,,PerfumeSession
1624276738.36,stimulus,1,406,,,PerfumeSession
1624276738.86,fixation,1,406,,,PerfumeSession
1624276740.36,stimulus,1,407,,,PerfumeSession
1624276740.86,fixation,1,407,,,PerfumeSession
1624276742.36,stimulus,1,408,,,PerfumeSession
1624276742.86,fixation,1,408,,,PerfumeSession
1624276744.36,stimulus,1,409,,,PerfumeSession
1624276744.86,fixation,1,409,,,PerfumeSession
1624276746.36,stimulus,1,410,,,PerfumeSession
1624276746.86,fixation,1,410,,,PerfumeSession
1624276748.36,stimulus,1,411,,,PerfumeSession
1624276748.86,fixation,1,411,,,PerfumeSession
1624276750.36,stimulus,1,412,,,PerfumeSession
1624276750.86,fixation,1,412,,,PerfumeSession
1624276752.36,stimulus,1,413,,,PerfumeSession
1624276752.86,fixation,1,413,,,PerfumeSession
1624276754.36,stimulus,1,414,,,PerfumeSession
1624276754.86,fixation,1,414,,,PerfumeSession
1624276756.36,stimulus,1,415,,,PerfumeSession
1624276756.86,fixation,1,415,,,PerfumeSession
1624276758.36,stimulus,1,416,,,PerfumeSession
1624276758.86,fixation,1,416,,,PerfumeSession
1624276760.36,stimulus,1,417,,,PerfumeSession
1624276760.86,fixation,1,417,,,PerfumeSession
1624276762.36,stimulus,1,418,,,PerfumeSession
1624276762.86,fixation,1,418,,,PerfumeSession
1624276764.36,stimulus,1,419,,,PerfumeSession
1624276764.86,fixation,1,419,,,PerfumeSession
1624276766.36,stimulus,1,420,,,PerfumeSession
1624276766.86,fixation,1,420,,,PerfumeSession
1624276768.36,stimulus,1,421,,,PerfumeSession
1624276768.86,fixation,1,421,,,PerfumeSession
1624276770.36,stimulus,1,422,,,PerfumeSession
1624276770.86,fixation,1,422,,,PerfumeSession
1624276772.36,stimulus,1,423,,,PerfumeSession
1624276772.86,fixation,1,423,,,PerfumeSession
1624276774.36,stimulus,1,424,,,PerfumeSession
1624276774.86,fixation,1,424,,,PerfumeSession
1624276776.36,stimulus,1,425,,,PerfumeSession
1624276776.86,fixation,1,425,,,PerfumeSession
1624276778.36,stimulus,1,426,,,PerfumeSession
1624276778.86,fixation,1,426,,,PerfumeSession
1624276780.36,stimulus,1,427,,,PerfumeSession
1624276780.86,fixation,1,427,,,PerfumeSession
1624276782.36,stimulus,1,428,,,PerfumeSession
1624276782.86,fixation,1,428,,,PerfumeSession
1624276784.36,stimulus,1,429,,,PerfumeSession
1624276784.86,fixation,1,429,,,PerfumeSession
1624276786.36,stimulus,1,430,,,PerfumeSession
1624276786.86,fixation,1,430,,,PerfumeSession
1624276788.36,stimulus,1,431,,,PerfumeSession
1624276788.86,fixation,1,431,,,PerfumeSession
1624276790.36,stimulus,1,432,,,PerfumeSession
1624276790.86,fixation,1,432,,,PerfumeSession
1624276792.36,stimulus,1,433,,,PerfumeSession
1624276792.86,fixation,1,433,,,PerfumeSession
1624276794.36,stimulus,1,434,,,PerfumeSession
1624276794.86,fixation,1,434,,,PerfumeSession
1624276796.36,stimulus,1,435,,,PerfumeSession
1624276796.86,fixation,1,435,,,PerfumeSession
1624276798.36,stimulus,1,436,,,PerfumeSession
1624276798.86,fixation,1,436,,,PerfumeSession
1624276800.36,stimulus,1,437,,,PerfumeSession
1624276800.86,fixation,1,437,,,PerfumeSession
1624276802.36,stimulus,1,438,,,PerfumeSession
1624276802.86,fixation,1,438,,,PerfumeSession
1624276804.36,stimulus,1,439,,,PerfumeSession
1624276804.86,fixation,1,439,,,PerfumeSession
1624276806.36,stimulus,1,440,,,PerfumeSession
1624276806.86,fixation,1,440,,,PerfumeSession
1624276808.36,stimulus,1,441,,,PerfumeSession
1624276808.86,fixation,1,441,,,PerfumeSession
1624276810.36,stimulus,1,442,,,PerfumeSession
1624276810.86,fixation,1,442,,,PerfumeSession
1624276812.36,stimulus,1,443,,,PerfumeSession
1624276812.86,fixation,1,443,,,PerfumeSession
1624276814.36,stimulus,1,444,,,PerfumeSession
1624276814.86,fixation,1,444,,,PerfumeSession
1624276816.36,stimulus,1,445,,,PerfumeSession
1624276816.86,fixation,1,445,,,PerfumeSession
1624276818.36,stimulus,1,446,,,PerfumeSession
1624276818.86,fixation,1,446,,,PerfumeSession
1624276820.36,stimulus,1,447,,,PerfumeSession
1624276820.86,fixation,1,447,,,PerfumeSession
1624276822.36,stimulus,1,448,,,PerfumeSession
1624276822.86,fixation,1,448,,,PerfumeSession
1624276824.36,stimulus,1,449,,,PerfumeSession
1624276824.86,fixation,1,449,,,PerfumeSession
1624276826.36,stimulus,1,450,,,PerfumeSession
1624276826.86,fixation,1,450,,,PerfumeSession
1624276828.36,stimulus,1,451,,,PerfumeSession
1624276828.86,fixation,1,451,,,PerfumeSession
1624276830.36,stimulus,1,452,,,PerfumeSession
1624276830.86,fixation,1,452,,,PerfumeSession
1624276832.36,stimulus,1,453,,,PerfumeSession
1624276832.86,fixation,1,453,,,PerfumeSession
1624276834.36,stimulus,1,454,,,PerfumeSession
1624276834.86,fixation,1,454,,,PerfumeSession
1624276836.36,stimulus,1,455,,,PerfumeSession
1624276836.86,fixation,1,455,,,PerfumeSession
1624276838.36,stimulus,1,456,,,PerfumeSession
1624276838.86,fixation,1,456,,,PerfumeSession
1624276840.36,stimulus,1,457,,,PerfumeSession
1624276840.86,fixation,1,457,,,PerfumeSession
1624276842.36,stimulus,1,458,,,PerfumeSession
1624276842.86,fixation,1,458,,,PerfumeSession
1624276844.36,stimulus,1,459,,,PerfumeSession
1624276844.86,fixation,1,459,,,PerfumeSession
1624276846.36,stimulus,1,460,,,PerfumeSession
1624276846.86,fixation,1,460,,,PerfumeSession
1624276848.36,stimulus,1,461,,,PerfumeSession
1624276848.86,fixation,1,461,,,PerfumeSession
1624276850.36,stimulus,1,462,,,PerfumeSession
1624276850.86,fixation,1,462,,,PerfumeSession
1624276852.36,stimulus,1,463,,,PerfumeSession
1624276852.86,fixation,1,463,,,PerfumeSession
1624276854.36,stimulus,1,464,,,PerfumeSession
1624276854.86,fixation,1,464,,,PerfumeSession
1624276856.36,stimulus,1,465,,,PerfumeSession
1624276856.86,fixation,1,465,,,PerfumeSession
1624276858.36,stimulus,1,466,,,PerfumeSession
1624276858.86,fixation,1,466,,,PerfumeSession
1624276860.36,stimulus,1,467,,,PerfumeSession
1624276860.86,fixation,1,467,,,PerfumeSession
1624276862.36,stimulus,1,468,,,PerfumeSession
1624276862.86,fixation,1,468,,,PerfumeSession
1624276864.36,stimulus,1,469,,,PerfumeSession
1624276864.86,fixation,1,469,,,PerfumeSession
1624276866.36,stimulus,1,470,,,PerfumeSession
1624276866.86,fixation,1,470,,,PerfumeSession
1624276868.36,stimulus,1,471,,,PerfumeSession
1624276868.86,fixation,1,471,,,PerfumeSession
1624276870.36,stimulus,1,472,,,PerfumeSession
1624276870.86,fixation,1,472,,,PerfumeSession
1624276872.36,stimulus,1,473,,,PerfumeSession
1624276872.86,fixation,1,473,,,PerfumeSession
1624276873.06,stimulus,2,1,,,PracticeSession
1624276873.56,fixation,2,1,,,PracticeSession
1624276874.36,stimulus,1,474,,,PerfumeSession
1624276874.86,fixation,1,474,,,PerfumeSession
1624276875.06,stimulus,2,2,,,PracticeSession
1624276875.56,fixation,2,2,,,PracticeSession
1624276876.36,stimulus,1,475,,,PerfumeSession
1624276876.86,fixation,1,475,,,PerfumeSession
1624276877.06,stimulus,2,3,,,PracticeSession
1624276877.56,fixation,2,3,,,PracticeSession
1624276878.36,stimulus,1,476,,,PerfumeSession
1624276878.86,fixation,1,476,,,PerfumeSession
1624276879.06,stimulus,2,4,,,PracticeSession
1624276879.56,fixation,2,4,,,PracticeSession
1624276880.36,stimulus,1,477,,,PerfumeSession
1624276880.86,fixation,1,477,,,PerfumeSession
1624276881.06,stimulus,2,5,,,PracticeSession
1624276881.56,fixation,2,5,,,PracticeSession
1624276882.36,stimulus,1,478,,,PerfumeSession
1624276882.86,fixation,1,478,,,PerfumeSession
1624276883.06,stimulus,2,6,,,PracticeSession
1624276883.56,fixation,2,6,,,PracticeSession
1624276884.36,stimulus,1,479,,,PerfumeSession
1624276884.86,fixation,1,479,,,PerfumeSession
1624276885.06,stimulus,2,7,,,PracticeSession
1624276885.56,fixation,2,7,,,PracticeSession
1624276886.36,stimulus,1,480,,,PerfumeSession
1624276886.86,fixation,1,480,,,PerfumeSession
1624276887.06,stimulus,2,8,,,PracticeSession
1624276887.56,fixation,2,8,,,PracticeSession
1624276888.36,stimulus,1,481,,,PerfumeSession
1624276888.86,fixation,1,481,,,PerfumeSession
1624276889.06,stimulus,2,9,,,PracticeSession
1624276889.56,fixation,2,9,,,PracticeSession
1624276890.36,stimulus,1,482,,,PerfumeSession
1624276890.86,fixation,1,482,,,PerfumeSession
1624276891.06,stimulus,2,10,,,PracticeSession
1624276891.56,fixation,2,10,,,PracticeSession
1624276892.36,stimulus,1,483,,,PerfumeSession
1624276892.86,fixation,1,483,,,PerfumeSession
1624276893.06,stimulus,2,11,,,PracticeSession
1624276893.56,fixation,2,11,,,PracticeSession
1624276894.36,stimulus,1,484,,,PerfumeSession
1624276894.86,fixation,1,484,,,PerfumeSession
1624276895.06,stimulus,2,12,,,PracticeSession
1624276895.56,fixation,2,12,,,PracticeSession
1624276896.36,stimulus,1,485,,,PerfumeSession
1624276896.86,fixation,1,485,,,PerfumeSession
1624276897.06,stimulus,2,13,,,PracticeSession
1624276897.56,fixation,2,13,,,PracticeSession
1624276898.36,stimulus,1,486,,,PerfumeSession
1624276898.86,fixation,1,486,,,PerfumeSession
1624276899.06,stimulus,2,14,,,PracticeSession
1624276899.56,fixation,2,14,,,PracticeSession
1624276900.36,stimulus,1,487,,,PerfumeSession
1624276900.86,fixation,1,487,,,PerfumeSession
1624276901.06,stimulus,2,15,,,PracticeSession
1624276901.56,fixation,2,15,,,PracticeSession
1624276902.36,stimulus,1,488,,,PerfumeSession
1624276902.86,fixation,1,488,,,PerfumeSession
1624276903.06,stimulus,2,16,,,PracticeSession
1624276903.56,fixation,2,16,,,PracticeSession
1624276904.36,stimulus,1,489,,,PerfumeSession
1624276904.86,fixation,1,489,,,PerfumeSession
1624276905.06,stimulus,2,17,,,PracticeSession
1624276905.56,fixation,2,17,,,PracticeSession
1624276906.36,stimulus,1,490,,,PerfumeSession
1624276906.86,fixation,1,490,,,PerfumeSession
1624276907.06,stimulus,2,18,,,PracticeSession
1624276907.56,fixation,2,18,,,PracticeSession
1624276908.36,stimulus,1,491,,,PerfumeSession
1624276908.86,fixation,1,491,,,PerfumeSession
1624276909.06,stimulus,2,19,,,PracticeSession
1624276909.56,fixation,2,19,,,PracticeSession
1624276910.36,stimulus,1,492,,,PerfumeSession
1624276910.86,fixation,1,492,,,PerfumeSession
1624276911.06,stimulus,2,20,,,PracticeSession
1624276911.56,fixation,2,20,,,PracticeSession
1624276912.36,stimulus,1,493,,,PerfumeSession
1624276912.86,fixation,1,493,,,PerfumeSession
1624276913.06,stimulus,2,21,,,PracticeSession
1624276913.56,fixation,2,21,,,PracticeSession
1624276914.36,stimulus,1,494,,,PerfumeSession
1624276914.86,fixation,1,494,,,PerfumeSession
1624276915.06,stimulus,2,22,,,PracticeSession
1624276915.56,fixation,2,22,,,PracticeSession
1624276916.36,stimulus,1,495,,,PerfumeSession
1624276916.86,fixation,1,495,,,PerfumeSession
1624276917.06,stimulus,2,23,,,PracticeSession
1624276917.56,fixation,2,23,,,PracticeSession
1624276918.36,stimulus,1,496,,,PerfumeSession
1624276918.86,fixation,1,496,,,PerfumeSession
1624276919.06,stimulus,2,24,,,PracticeSession
1624276919.56,fixation,2,24,,,PracticeSession
1624276920.36,stimulus,1,497,,,PerfumeSession
1624276920.86,fixation,1,497,,,PerfumeSession
1624276921.06,stimulus,2,25,,,PracticeSession
1624276921.56,fixation,2,25,,,PracticeSession
1624276922.36,stimulus,1,498,,,PerfumeSession
1624276922.86,fixation,1,498,,,PerfumeSession
1624276923.06,stimulus,2,26,,,PracticeSession
1624276923.56,fixation,2,26,,,PracticeSession
1624276924.36,stimulus,1,499,,,PerfumeSession
1624276924.86,fixation,1,499,,,PerfumeSession
1624276925.06,stimulus,2,27,,,PracticeSession
1624276925.56,fixation,2,27,,,PracticeSession
1624276926.36,stimulus,1,500,,,PerfumeSession
1624276926.86,fixation,1,500,,,PerfumeSession
1624276927.06,stimulus,2,28,,,PracticeSession
1624276927.56,fixation,2,28,,,PracticeSession
1624276928.36,stimulus,1,501,,,PerfumeSession
1624276928.86,fixation,1,501,,,PerfumeSession
1624276929.06,stimulus,2,29,,,PracticeSession
1624276929.56,fixation,2,29,,,PracticeSession
1624276930.36,stimulus,1,502,,,PerfumeSession
1624276930.86,fixation,1,502,,,PerfumeSession
1624276931.06,stimulus,2,30,,,PracticeSession
1624276931.56,fixation,2,30,,,PracticeSession
1624276932.36,stimulus,1,503,,,PerfumeSession
1624276932.86,fixation,1,503,,,PerfumeSession
1624276933.06,stimulus,2,31,,,PracticeSession
1624276933.56,fixation,2,31,,,PracticeSession
1624276934.36,stimulus,1,504,,,PerfumeSession
1624276934.86,fixation,1,504,,,PerfumeSession
1624276935.06,stimulus,2,32,,,PracticeSession
1624276935.56,fixation,2,32,,,PracticeSession
1624276936.36,stimulus,1,505,,,PerfumeSession
1624276936.86,fixation,1,505,,,PerfumeSession
1624276937.06,stimulus,2,33,,,PracticeSession
1624276937.56,fixation,2,33,,,PracticeSession
1624276938.36,stimulus,1,506,,,PerfumeSession
1624276938.86,fixation,1,506,,,PerfumeSession
1624276939.06,stimulus,2,34,,,PracticeSession
1624276939.56,fixation,2,34,,,PracticeSession
1624276940.36,stimulus,1,507,,,PerfumeSession
1624276940.86,fixation,1,507,,,PerfumeSession
1624276941.06,stimulus,2,35,,,PracticeSession
1624276941.56,fixation,2,35,,,PracticeSession
1624276942.36,stimulus,1,508,,,PerfumeSession
1624276942.86,fixation,1,508,,,PerfumeSession
1624276943.06,stimulus,2,36,,,PracticeSession
1624276943.56,fixation,2,36,,,PracticeSession
1624276944.36,stimulus,1,509,,,PerfumeSession
1624276944.86,fixation,1,509,,,PerfumeSession
1624276945.06,stimulus,2,37,,,PracticeSession
1624276945.56,fixation,2,37,,,PracticeSession
1624276946.36,stimulus,1,510,,,PerfumeSession
1624276946.86,fixation,1,510,,,PerfumeSession
1624276947.06,stimulus,2,38,,,PracticeSession
1624276947.56,fixation,2,38,,,PracticeSession
1624276948.36,stimulus,1,511,,,PerfumeSession
1624276948.86,fixation,1,511,,,PerfumeSession
1624276949.06,stimulus,2,39,,,PracticeSession
1624276949.56,fixation,2,39,,,PracticeSession
1624276950.36,stimulus,1,512,,,PerfumeSession
1624276950.86,fixation,1,512,,,PerfumeSession
1624276951.06,stimulus,2,40,,,PracticeSession
1624276951.56,fixation,2,40,,,PracticeSession
1624276952.36,stimulus,1,513,,,PerfumeSession
1624276952.86,fixation,1,513,,,PerfumeSession
1624276953.06,stimulus,2,41,,,PracticeSession
1624276953.56,fixation,2,41,,,PracticeSession
1624276954.36,stimulus,1,514,,,PerfumeSession
1624276954.86,fixation,1,514,,,PerfumeSession
1624276955.06,stimulus,2,42,,,PracticeSession
1624276955.56,fixation,2,42,,,PracticeSession
1624276956.36,stimulus,1,515,,,PerfumeSession
1624276956.86,fixation,1,515,,,PerfumeSession
1624276957.06,stimulus,2,43,,,PracticeSession
1624276957.56,fixation,2,43,,,PracticeSession
1624276958.36,stimulus,1,516,,,PerfumeSession
1624276958.86,fixation,1,516,,,PerfumeSession
1624276959.06,stimulus,2,44,,,PracticeSession
1624276959.56,fixation,2,44,,,PracticeSession
1624276960.36,stimulus,1,517,,,PerfumeSession
1624276960.86,fixation,1,517,,,PerfumeSession
1624276961.06,stimulus,2,45,,,NoAct
1624276961.56,fixation,2,45,,,NoAct
1624276962.36,stimulus,1,518,,,PerfumeSession
1624276962.86,fixation,1,518,,,PerfumeSession
1624276963.06,stimulus,2,46,,,NoAct
1624276963.56,fixation,2,46,,,NoAct
1624276964.36,stimulus,1,519,,,PerfumeSession
1624276964.86,fixation,1,519,,,PerfumeSession
1624276965.06,stimulus,2,47,,,NoAct
1624276965.56,fixation,2,47,,,NoAct
1624276966.36,stimulus,1,520,,,PerfumeSession
1624276966.86,fixation,1,520,,,PerfumeSession
1624276967.06,stimulus,2,48,,,NoAct
1624276967.56,fixation,2,48,,,NoAct
1624276968.36,stimulus,1,521,,,PerfumeSession
1624276968.86,fixation,1,521,,,PerfumeSession
1624276969.06,stimulus,2,49,,,NoAct
1624276969.56,fixation,2,49,,,NoAct
1624276970.36,stimulus,1,522,,,PerfumeSession
1624276970.86,fixation,1,522,,,PerfumeSession
1624276971.06,stimulus,2,50,,,NoAct
1624276971.56,fixation,2,50,,,NoAct
1624276972.36,stimulus,1,523,,,PerfumeSession
1624276972.86,fixation,1,523,,,PerfumeSession
1624276973.06,stimulus,2,51,,,NoAct
1624276973.56,fixation,2,51,,,NoAct
1624276974.36,stimulus,1,524,,,PerfumeSession
1624276974.86,fixation,1,524,,,PerfumeSession
1624276975.06,stimulus,2,52,,,NoAct
1624276975.56,fixation,2,52,,,NoAct
1624276976.36,stimulus,1,525,,,PerfumeSession
1624276976.86,fixation,1,525,,,PerfumeSession
1624276977.06,stimulus,2,53,,,NoAct
1624276977.56,fixation,2,53,,,NoAct
1624276978.36,stimulus,1,526,,,PerfumeSession
1624276978.86,fixation,1,526,,,PerfumeSession
1624276979.06,stimulus,2,54,,,NoAct
1624276979.56,fixation,2,54,,,NoAct
1624276980.36,stimulus,1,527,,,PerfumeSession
1624276980.86,fixation,1,527,,,PerfumeSession
1624276981.06,stimulus,2,55,,,NoAct
1624276981.56,fixation,2,55,,,NoAct
1624276982.36,stimulus,1,528,,,PerfumeSession
1624276982.86,fixation,1,528,,,PerfumeSession
1624276983.06,stimulus,2,56,,,NoAct
1624276983.56,fixation,2,56,,,NoAct
1624276984.36,stimulus,1,529,,,PerfumeSession
1624276984.86,fixation,1,529,,,PerfumeSession
1624276985.06,stimulus,2,57,,,NoAct
1624276985.56,fixation,2,57,,,NoAct
1624276986.36,stimulus,1,530,,,PerfumeSession
1624276986.86,fixation,1,530,,,PerfumeSession
1624276987.06,stimulus,2,58,,,NoAct
1624276987.56,fixation,2,58,,,NoAct
1624276988.36,stimulus,1,531,,,PerfumeSession
1624276988.86,fixation,1,531,,,PerfumeSession
1624276989.06,stimulus,2,59,,,NoAct
1624276989.56,fixation,2,59,,,NoAct
1624276990.36,stimulus,1,532,,,PerfumeSession
1624276990.86,fixation,1,532,,,PerfumeSession
1624276991.06,stimulus,2,60,,,NoAct
1624276991.56,fixation,2,60,,,NoAct
1624276992.36,stimulus,1,533,,,PerfumeSession
1624276992.86,fixation,1,533,,,PerfumeSession
1624276993.06,stimulus,2,61,,,NoAct
1624276993.56,fixation,2,61,,,NoAct
1624276994.36,stimulus,1,534,,,PerfumeSession
1624276994.86,fixation,1,534,,,PerfumeSession
1624276995.06,stimulus,2,62,,,NoAct
1624276995.56,fixation,2,62,,,NoAct
1624276996.36,stimulus,1,535,,,PerfumeSession
1624276996.86,fixation,1,535,,,PerfumeSession
1624276997.06,stimulus,2,63,,,NoAct
1624276997.56,fixation,2,63,,,NoAct
1624276998.36,stimulus,1,536,,,PerfumeSession
1624276998.86,fixation,1,536,,,PerfumeSession
1624276999.06,stimulus,2,64,,,NoAct
1624276999.56,fixation,2,64,,,NoAct
1624277000.36,stimulus,1,537,,,PerfumeSession
1624277000.86,fixation,1,537,,,PerfumeSession
1624277001.06,stimulus,2,65,,,NoAct
1624277001.56,fixation,2,65,,,NoAct
1624277002.36,stimulus,1,538,,,PerfumeSession
1624277002.86,fixation,1,538,,,PerfumeSession
1624277003.06,stimulus,2,66,,,NoAct
1624277003.56,fixation,2,66,,,NoAct
1624277004.36,stimulus,1,539,,,PerfumeSession
1624277004.86,fixation,1,539,,,PerfumeSession
1624277005.06,stimulus,2,67,,,NoAct
1624277005.56,fixation,2,67,,,NoAct
1624277006.36,stimulus,1,540,,,PerfumeSession
1624277006.86,fixation,1,540,,,PerfumeSession
1624277007.06,stimulus,2,68,,,NoAct
1624277007.56,fixation,2,68,,,NoAct
1624277008.36,stimulus,1,541,,,PerfumeSession
1624277008.86,fixation,1,541,,,PerfumeSession
1624277009.06,stimulus,2,69,,,NoAct
1624277009.56,fixation,2,69,,,NoAct
1624277010.36,stimulus,1,542,,,PerfumeSession
1624277010.86,fixation,1,542,,,PerfumeSession
1624277011.06,stimulus,2,70,,,NoAct
1624277011.56,fixation,2,70,,,NoAct
1624277012.36,stimulus,1,543,,,PerfumeSession
1624277012.86,fixation,1,543,,,PerfumeSession
1624277013.06,stimulus,2,71,,,NoAct
1624277013.56,fixation,2,71,,,NoAct
1624277014.36,stimulus,1,544,,,PerfumeSession
1624277014.86,fixation,1,544,,,PerfumeSession
1624277015.06,stimulus,2,72,,,NoAct
1624277015.56,fixation,2,72,,,NoAct
1624277016.36,stimulus,1,545,,,PerfumeSession
1624277016.86,fixation,1,545,,,PerfumeSession
1624277017.06,stimulus,2,73,,,NoAct
1624277017.56,fixation,2,73,,,NoAct
1624277018.36,stimulus,1,546,,,PerfumeSession
1624277018.86,fixation,1,546,,,PerfumeSession
1624277019.06,stimulus,2,74,,,NoAct
1624277019.56,fixation,2,74,,,NoAct
1624277020.36,stimulus,1,547,,,PerfumeSession
1624277020.86,fixation,1,547,,,PerfumeSession
1624277021.06,stimulus,2,75,,,NoAct
1624277021.56,fixation,2,75,,,NoAct
1624277022.36,stimulus,1,548,,,PerfumeSession
1624277022.86,fixation,1,548,,,PerfumeSession
1624277023.06,stimulus,2,76,,,NoAct
1624277023.56,fixation,2,76,,,NoAct
1624277024.36,stimulus,1,549,,,PerfumeSession
1624277024.86,fixation,1,549,,,PerfumeSession
1624277025.06,stimulus,2,77,,,NoAct
1624277025.56,fixation,2,77,,,NoAct
1624277026.36,stimulus,1,550,,,PerfumeSession
1624277026.86,fixation,1,550,,,PerfumeSession
1624277027.06,stimulus,2,78,,,NoAct
1624277027.56,fixation,2,78,,,NoAct
1624277028.36,stimulus,1,551,,,PerfumeSession
1624277028.86,fixation,1,551,,,PerfumeSession
1624277029.06,stimulus,2,79,,,NoAct
1624277029.56,fixation,2,79,,,NoAct
1624277030.36,stimulus,1,552,,,PerfumeSession
1624277030.86,fixation,1,552,,,PerfumeSession
1624277031.06,stimulus,2,80,,,NoAct
1624277031.56,fixation,2,80,,,NoAct
1624277032.36,stimulus,1,553,,,PerfumeSession
1624277032.86,fixation,1,553,,,PerfumeSession
1624277033.06,stimulus,2,81,,,NoAct
1624277033.56,fixation,2,81,,,NoAct
1624277034.36,stimulus,1,554,,,PerfumeSession
1624277034.86,fixation,1,554,,,PerfumeSession
1624277035.06,stimulus,2,82,,,NoAct
1624277035.56,fixation,2,82,,,NoAct
1624277036.36,stimulus,1,555,,,PerfumeSession
1624277036.86,fixation,1,555,,,PerfumeSession
1624277037.06,stimulus,2,83,,,NoAct
1624277037.56,fixation,2,83,,,NoAct
1624277038.36,stimulus,1,556,,,PerfumeSession
1624277038.86,fixation,1,556,,,PerfumeSession
1624277039.06,stimulus,2,84,,,NoAct
1624277039.56,fixation,2,84,,,NoAct
1624277040.36,stimulus,1,557,,,PerfumeSession
1624277040.86,fixation,1,557,,,PerfumeSession
1624277041.06,stimulus,2,85,,,NoAct
1624277041.56,fixation,2,85,,,NoAct
1624277042.36,stimulus,1,558,,,PerfumeSession
1624277042.86,fixation,1,558,,,PerfumeSession
1624277043.06,stimulus,2,86,,,NoAct
1624277043.56,fixation,2,86,,,NoAct
1624277044.36,stimulus,1,559,,,PerfumeSession
1624277044.86,fixation,1,559,,,PerfumeSession
1624277045.06,stimulus,2,87,,,NoAct
1624277045.56,fixation,2,87,,,NoAct
1624277046.36,stimulus,1,560,,,PerfumeSession
1624277046.86,fixation,1,560,,,PerfumeSession
1624277047.06,stimulus,2,88,,,NoAct
1624277047.56,fixation,2,88,,,NoAct
1624277048.36,stimulus,1,561,,,PerfumeSession
1624277048.86,fixation,1,561,,,PerfumeSession
1624277049.06,stimulus,2,89,,,NoAct
1624277049.56,fixation,2,89,,,NoAct
1624277050.36,stimulus,1,562,,,PerfumeSession
1624277050.86,fixation,1,562,,,PerfumeSession
1624277051.06,stimulus,2,90,,,NoAct
1624277051.56,fixation,2,90,,,NoAct
1624277052.36,stimulus,1,563,,,PerfumeSession
1624277052.86,fixation,1,563,,,PerfumeSession
1624277053.06,stimulus,2,91,,,NoAct
1624277053.56,fixation,2,91,,,NoAct
1624277054.36,stimulus,1,564,,,PerfumeSession
1624277054.86,fixation,1,564,,,PerfumeSession
1624277055.06,stimulus,2,92,,,NoAct
1624277055.56,fixation,2,92,,,NoAct
1624277056.36,stimulus,1,565,,,PerfumeSession
1624277056.86,fixation,1,565,,,PerfumeSession
1624277057.06,stimulus,2,93,,,NoAct
1624277057.56,fixation,2,93,,,NoAct
1624277058.36,stimulus,1,566,,,PerfumeSession
1624277058.86,fixation,1,566,,,PerfumeSession
1624277059.06,stimulus,2,94,,,NoAct
1624277059.56,fixation,2,94,,,NoAct
1624277060.36,stimulus,1,567,,,PerfumeSession
1624277060.86,fixation,1,567,,,PerfumeSession
1624277061.06,stimulus,2,95,,,NoAct
1624277061.56,fixation,2,95,,,NoAct
1624277062.36,stimulus,1,568,,,PerfumeSession
1624277062.86,fixation,1,568,,,PerfumeSession
1624277063.06,stimulus,2,96,,,NoAct
1624277063.56,fixation,2,96,,,NoAct
1624277064.36,stimulus,1,569,,,PerfumeSession
1624277064.86,fixation,1,569,,,PerfumeSession
1624277065.06,stimulus,2,97,,,NoAct
1624277065.56,fixation,2,97,,,NoAct
1624277066.36,stimulus,1,570,,,PerfumeSession
1624277066.86,fixation,1,570,,,PerfumeSession
1624277067.06,stimulus,2,98,,,NoAct
1624277067.56,fixation,2,98,,,NoAct
1624277068.36,stimulus,1,571,,,PerfumeSession
1624277068.86,fixation,1,571,,,PerfumeSession
1624277069.06,stimulus,2,99,,,NoAct
1624277069.56,fixation,2,99,,,NoAct
1624277070.36,stimulus,1,572,,,PerfumeSession
1624277070.86,fixation,1,572,,,PerfumeSession
1624277071.06,stimulus,2,100,,,NoAct
1624277071.56,fixation,2,100,,,NoAct
1624277072.36,stimulus,1,573,,,PerfumeSession
1624277072.86,fixation,1,573,,,PerfumeSession
1624277073.06,stimulus,2,101,,,NoAct
1624277073.56,fixation,2,101,,,NoAct
1624277074.36,stimulus,1,574,,,PerfumeSession
1624277074.86,fixation,1,574,,,PerfumeSession
1624277075.06,stimulus,2,102,,,NoAct
1624277075.56,fixation,2,102,,,NoAct
1624277076.36,stimulus,1,575,,,PerfumeSession
1624277076.86,fixation,1,575,,,PerfumeSession
1624277077.06,stimulus,2,103,,,NoAct
1624277077.56,fixation,2,103,,,NoAct
1624277078.36,stimulus,1,576,,,PerfumeSession
1624277078.86,fixation,1,576,,,PerfumeSession
1624277079.06,stimulus,2,104,,,NoAct
1624277079.56,fixation,2,104,,,NoAct
1624277080.36,stimulus,1,577,,,PerfumeSession
1624277080.86,fixation,1,577,,,PerfumeSession
1624277081.06,stimulus,2,105,,,NoAct
1624277081.56,fixation,2,105,,,NoAct
1624277082.36,stimulus,1,578,,,PerfumeSession
1624277082.86,fixation,1,578,,,PerfumeSession
1624277083.06,stimulus,2,106,,,NoAct
1624277083.56,fixation,2,106,,,NoAct
1624277084.36,stimulus,1,579,,,PerfumeSession
1624277084.86,fixation,1,579,,,PerfumeSession
1624277085.06,stimulus,2,107,,,NoAct
1624277085.56,fixation,2,107,,,NoAct
1624277086.36,stimulus,1,580,,,PerfumeSession
1624277086.86,fixation,1,580,,,PerfumeSession
1624277087.06,stimulus,2,108,,,NoAct
1624277087.56,fixation,2,108,,,NoAct
1624277088.36,stimulus,1,581,,,PerfumeSession
1624277088.86,fixation,1,581,,,PerfumeSession
1624277089.06,stimulus,2,109,,,NoAct
1624277089.56,fixation,2,109,,,NoAct
1624277090.36,stimulus,1,582,,,PerfumeSession
1624277090.86,fixation,1,582,,,PerfumeSession
1624277091.06,stimulus,2,110,,,NoAct
1624277091.56,fixation,2,110,,,NoAct
1624277092.36,stimulus,1,583,,,PerfumeSession
1624277092.86,fixation,1,583,,,PerfumeSession
1624277093.06,stimulus,2,111,,,NoAct
1624277093.56,fixation,2,111,,,NoAct
1624277094.36,stimulus,1,584,,,PerfumeSession
1624277094.86,fixation,1,584,,,PerfumeSession
1624277095.06,stimulus,2,112,,,NoAct
1624277095.56,fixation,2,112,,,NoAct
1624277096.36,stimulus,1,585,,,PerfumeSession
1624277096.86,fixation,1,585,,,PerfumeSession
1624277097.06,stimulus,2,113,,,NoAct
1624277097.56,fixation,2,113,,,NoAct
1624277098.36,stimulus,1,586,,,PerfumeSession
1624277098.86,fixation,1,586,,,PerfumeSession
1624277099.06,stimulus,2,114,,,NoAct
1624277099.56,fixation,2,114,,,NoAct
1624277100.36,stimulus,1,587,,,PerfumeSession
1624277100.86,fixation,1,587,,,PerfumeSession
1624277101.06,stimulus,2,115,,,NoAct
1624277101.56,fixation,2,115,,,NoAct
1624277102.36,stimulus,1,588,,,PerfumeSession
1624277102.86,fixation,1,588,,,PerfumeSession
1624277103.06,stimulus,2,116,,,NoAct
1624277103.56,fixation,2,116,,,NoAct
1624277104.36,stimulus,1,589,,,PerfumeSession
1624277104.86,fixation,1,589,,,PerfumeSession
1624277105.06,stimulus,2,117,,,NoAct
1624277105.56,fixation,2,117,,,NoAct
1624277106.36,stimulus,1,590,,,PerfumeSession
1624277106.86,fixation,1,590,,,PerfumeSession
1624277107.06,stimulus,2,118,,,NoAct
1624277107.56,fixation,2,118,,,NoAct
1624277108.36,stimulus,1,591,,,PerfumeSession
1624277108.86,fixation,1,591,,,PerfumeSession
1624277109.06,stimulus,2,119,,,NoAct
1624277109.56,fixation,2,119,,,NoAct
1624277110.36,stimulus,1,592,,,PerfumeSession
1624277110.86,fixation,1,592,,,PerfumeSession
1624277111.06,stimulus,2,120,,,NoAct
1624277111.56,fixation,2,120,,,NoAct
1624277112.36,stimulus,1,593,,,PerfumeSession
1624277112.86,fixation,1,593,,,PerfumeSession
1624277113.06,stimulus,2,121,,,NoAct
1624277113.56,fixation,2,121,,,NoAct
1624277114.36,stimulus,1,594,,,PerfumeSession
1624277114.86,fixation,1,594,,,PerfumeSession
1624277115.06,stimulus,2,122,,,NoAct
1624277115.56,fixation,2,122,,,NoAct
1624277116.36,stimulus,1,595,,,PerfumeSession
1624277116.86,fixation,1,595,,,PerfumeSession
1624277117.06,stimulus,2,123,,,NoAct
1624277117.56,fixation,2,123,,,NoAct
1624277118.36,stimulus,1,596,,,PerfumeSession
1624277118.86,fixation,1,596,,,PerfumeSession
1624277119.06,stimulus,2,124,,,NoAct
1624277119.56,fixation,2,124,,,NoAct
1624277120.36,stimulus,1,597,,,PerfumeSession
1624277120.86,fixation,1,597,,,PerfumeSession
1624277121.06,stimulus,2,125,,,NoAct
1624277121.56,fixation,2,125,,,NoAct
1624277122.36,stimulus,1,598,,,PerfumeSession
1624277122.86,fixation,1,598,,,PerfumeSession
1624277123.06,stimulus,2,126,,,NoAct
1624277123.56,fixation,2,126,,,NoAct
1624277124.36,stimulus,1,599,,,PerfumeSession
1624277124.86,fixation,1,599,,,PerfumeSession
1624277125.06,stimulus,2,127,,,NoAct
1624277125.56,fixation,2,127,,,NoAct
1624277126.36,stimulus,1,600,,,PerfumeSession
1624277126.86,fixation,1,600,,,PerfumeSession
1624277127.06,stimulus,2,128,,,NoAct
1624277127.56,fixation,2,128,,,NoAct
1624277128.36,stimulus,1,601,,,PerfumeSession
1624277128.86,fixation,1,601,,,PerfumeSession
1624277129.06,stimulus,2,129,,,NoAct
1624277129.56,fixation,2,129,,,NoAct
1624277130.36,stimulus,1,602,,,PerfumeSession
1624277130.86,fixation,1,602,,,PerfumeSession
1624277131.06,stimulus,2,130,,,NoAct
1624277131.56,fixation,2,130,,,NoAct
1624277132.36,stimulus,1,603,,,PerfumeSession
1624277132.86,fixation,1,603,,,PerfumeSession
1624277133.06,stimulus,2,131,,,NoAct
1624277133.56,fixation,2,131,,,NoAct
1624277134.36,stimulus,1,604,,,PerfumeSession
1624277134.86,fixation,1,604,,,PerfumeSession
1624277135.06,stimulus,2,132,,,NoAct
1624277135.56,fixation,2,132,,,NoAct
1624277136.36,stimulus,1,605,,,PerfumeSession
1624277136.86,fixation,1,605,,,PerfumeSession
1624277137.06,stimulus,2,133,,,NoAct
1624277137.56,fixation,2,133,,,NoAct
1624277138.36,stimulus,1,606,,,PerfumeSession
1624277138.86,fixation,1,606,,,PerfumeSession
1624277139.06,stimulus,2,134,,,NoAct
1624277139.56,fixation,2,134,,,NoAct
1624277140.36,stimulus,1,607,,,PerfumeSession
1624277140.86,fixation,1,607,,,PerfumeSession
1624277141.06,stimulus,2,135,,,NoAct
1624277141.56,fixation,2,135,,,NoAct
1624277142.36,stimulus,1,608,,,PerfumeSession
1624277142.86,fixation,1,608,,,PerfumeSession
1624277143.06,stimulus,2,136,,,NoAct
1624277143.56,fixation,2,136,,,NoAct
1624277144.36,stimulus,1,609,,,PerfumeSession
1624277144.86,fixation,1,609,,,PerfumeSession
1624277145.06,stimulus,2,137,,,NoAct
1624277145.56,fixation,2,137,,,NoAct
1624277146.36,stimulus,1,610,,,PerfumeSession
1624277146.86,fixation,1,610,,,PerfumeSession
1624277147.06,stimulus,2,138,,,NoAct
1624277147.56,fixation,2,138,,,NoAct
1624277148.36,stimulus,1,611,,,PerfumeSession
1624277148.86,fixation,1,611,,,PerfumeSession
1624277149.06,stimulus,2,139,,,NoAct
1624277149.56,fixation,2,139,,,NoAct
1624277150.36,stimulus,1,612,,,PerfumeSession
1624277150.86,fixation,1,612,,,PerfumeSession
1624277151.06,stimulus,2,140,,,NoAct
1624277151.56,fixation,2,140,,,NoAct
1624277152.36,stimulus,1,613,,,PerfumeSession
1624277152.86,fixation,1,613,,,PerfumeSession
1624277153.06,stimulus,2,141,,,NoAct
1624277153.56,fixation,2,141,,,NoAct
1624277154.36,stimulus,1,614,,,PerfumeSession
1624277154.86,fixation,1,614,,,PerfumeSession
1624277155.06,stimulus,2,142,,,NoAct
1624277155.56,fixation,2,142,,,NoAct
1624277156.36,stimulus,1,615,,,PerfumeSession
1624277156.86,fixation,1,615,,,PerfumeSession
1624277157.06,stimulus,2,143,,,NoAct
1624277157.56,fixation,2,143,,,NoAct
1624277158.36,stimulus,1,616,,,PerfumeSession
1624277158.86,fixation,1,616,,,PerfumeSession
1624277159.06,stimulus,2,144,,,NoAct
1624277159.56,fixation,2,144,,,NoAct
1624277160.36,stimulus,1,617,,,PerfumeSession
1624277160.86,fixation,1,617,,,PerfumeSession
1624277161.06,stimulus,2,145,,,NoAct
1624277161.56,fixation,2,145,,,NoAct
1624277162.36,stimulus,1,618,,,PerfumeSession
1624277162.86,fixation,1,618,,,PerfumeSession
1624277163.06,stimulus,2,146,,,NoAct
1624277163.56,fixation,2,146,,,NoAct
1624277164.36,stimulus,1,619,,,PerfumeSession
1624277164.86,fixation,1,619,,,PerfumeSession
1624277165.06,stimulus,2,147,,,NoAct
1624277165.56,fixation,2,147,,,NoAct
1624277166.36,stimulus,1,620,,,PerfumeSession
1624277166.86,fixation,1,620,,,PerfumeSession
1624277167.06,stimulus,2,148,,,NoAct
1624277167.56,fixation,2,148,,,NoAct
1624277168.36,stimulus,1,621,,,PerfumeSession
1624277168.86,fixation,1,621,,,PerfumeSession
1624277169.06,stimulus,2,149,,,NoAct
1624277169.56,fixation,2,149,,,NoAct
1624277170.36,stimulus,1,622,,,PerfumeSession
1624277170.86,fixation,1,622,,,PerfumeSession
1624277171.06,stimulus,2,150,,,NoAct
1624277171.56,fixation,2,150,,,NoAct
1624277172.36,stimulus,1,623,,,PerfumeSession
1624277172.86,fixation,1,623,,,PerfumeSession
1624277173.06,stimulus,2,151,,,NoAct
1624277173.56,fixation,2,151,,,NoAct
1624277174.36,stimulus,1,624,,,PerfumeSession
1624277174.86,fixation,1,624,,,PerfumeSession
1624277175.06,stimulus,2,152,,,NoAct
1624277175.56,fixation,2,152,,,NoAct
1624277176.36,stimulus,1,625,,,PerfumeSession
1624277176.86,fixation,1,625,,,PerfumeSession
1624277177.06,stimulus,2,153,,,NoAct
1624277177.56,fixation,2,153,,,NoAct
1624277178.36,stimulus,1,626,,,PerfumeSession
1624277178.86,fixation,1,626,,,PerfumeSession
1624277179.06,stimulus,2,154,,,NoAct
1624277179.56,fixation,2,154,,,NoAct
1624277180.36,stimulus,1,627,,,PerfumeSession
1624277180.86,fixation,1,627,,,PerfumeSession
1624277181.06,stimulus,2,155,,,NoAct
1624277181.56,fixation,2,155,,,NoAct
1624277182.36,stimulus,1,628,,,PerfumeSession
1624277182.86,fixation,1,628,,,PerfumeSession
1624277183.06,stimulus,2,156,,,NoAct
1624277183.56,fixation,2,156,,,NoAct
1624277184.36,stimulus,1,629,,,PerfumeSession
1624277184.86,fixation,1,629,,,PerfumeSession
1624277185.06,stimulus,2,157,,,NoAct
1624277185.56,fixation,2,157,,,NoAct
1624277186.36,stimulus,1,630,,,PerfumeSession
1624277186.86,fixation,1,630,,,PerfumeSession
1624277187.06,stimulus,2,158,,,NoAct
1624277187.56,fixation,2,158,,,NoAct
1624277188.36,stimulus,1,631,,,PerfumeSession
1624277188.86,fixation,1,631,,,PerfumeSession
1624277189.06,stimulus,2,159,,,NoAct
1624277189.56,fixation,2,159,,,NoAct
1624277190.36,stimulus,1,632,,,PerfumeSession
1624277190.86,fixation,1,632,,,PerfumeSession
1624277191.06,stimulus,2,160,,,NoAct
1624277191.56,fixation,2,160,,,NoAct
1624277192.36,stimulus,1,633,,,PerfumeSession
1624277192.86,fixation,1,633,,,PerfumeSession
1624277193.06,stimulus,2,161,,,NoAct
1624277193.56,fixation,2,161,,,NoAct
1624277194.36,stimulus,1,634,,,PerfumeSession
1624277194.86,fixation,1,634,,,PerfumeSession
1624277195.06,stimulus,2,162,,,NoAct
1624277195.56,fixation,2,162,,,NoAct
1624277196.36,stimulus,1,635,,,PerfumeSession
1624277196.86,fixation,1,635,,,PerfumeSession
1624277197.06,stimulus,2,163,,,NoAct
1624277197.56,fixation,2,163,,,NoAct
1624277198.36,stimulus,1,636,,,PerfumeSession
1624277198.86,fixation,1,636,,,PerfumeSession
1624277199.06,stimulus,2,164,,,NoAct
1624277199.56,fixation,2,164,,,NoAct
1624277200.36,stimulus,1,637,,,PerfumeSession
1624277200.86,fixation,1,637,,,PerfumeSession
1624277201.06,stimulus,2,165,,,NoAct
1624277201.56,fixation,2,165,,,NoAct
1624277202.36,stimulus,1,638,,,PerfumeSession
1624277202.86,fixation,1,638,,,PerfumeSession
1624277203.06,stimulus,2,166,,,NoAct
1624277203.56,fixation,2,166,,,NoAct
1624277204.36,stimulus,1,639,,,PerfumeSession
1624277204.86,fixation,1,639,,,PerfumeSession
1624277205.06,stimulus,2,167,,,NoAct
1624277205.56,fixation,2,167,,,NoAct
1624277206.36,stimulus,1,640,,,PerfumeSession
1624277206.86,fixation,1,640,,,PerfumeSession
1624277207.06,stimulus,2,168,,,NoAct
1624277207.56,fixation,2,168,,,NoAct
1624277208.36,stimulus,1,641,,,PerfumeSession
1624277208.86,fixation,1,641,,,PerfumeSession
1624277209.06,stimulus,2,169,,,NoAct
1624277209.56,fixation,2,169,,,NoAct
1624277210.36,stimulus,1,642,,,PerfumeSession
1624277210.86,fixation,1,642,,,PerfumeSession
1624277211.06,stimulus,2,170,,,NoAct
1624277211.56,fixation,2,170,,,NoAct
1624277212.36,stimulus,1,643,,,PerfumeSession
1624277212.86,fixation,1,643,,,PerfumeSession
1624277213.06,stimulus,2,171,,,NoAct
1624277213.56,fixation,2,171,,,NoAct
1624277214.36,stimulus,1,644,,,PerfumeSession
1624277214.86,fixation,1,644,,,PerfumeSession
1624277215.06,stimulus,2,172,,,NoAct
1624277215.56,fixation,2,172,,,NoAct
1624277216.36,stimulus,1,645,,,PerfumeSession
1624277216.86,fixation,1,645,,,PerfumeSession
1624277217.06,stimulus,2,173,,,NoAct
1624277217.56,fixation,2,173,,,NoAct
1624277218.36,stimulus,1,646,,,PerfumeSession
1624277218.86,fixation,1,646,,,PerfumeSession
1624277219.06,stimulus,2,174,,,NoAct
1624277219.56,fixation,2,174,,,NoAct
1624277220.36,stimulus,1,647,,,PerfumeSession
1624277220.86,fixation,1,647,,,PerfumeSession
1624277221.06,stimulus,2,175,,,NoAct
1624277221.56,fixation,2,175,,,NoAct
1624277222.36,stimulus,1,648,,,PerfumeSession
1624277222.86,fixation,1,648,,,PerfumeSession
1624277223.06,stimulus,2,176,,,NoAct
1624277223.56,fixation,2,176,,,NoAct
1624277224.36,stimulus,1,649,,,PerfumeSession
1624277224.86,fixation,1,649,,,PerfumeSession
1624277225.06,stimulus,2,177,,,NoAct
1624277225.56,fixation,2,177,,,NoAct
1624277226.36,stimulus,1,650,,,PerfumeSession
1624277226.86,fixation,1,650,,,PerfumeSession
1624277227.06,stimulus,2,178,,,NoAct
1624277227.56,fixation,2,178,,,NoAct
1624277228.36,stimulus,1,651,,,PerfumeSession
1624277228.86,fixation,1,651,,,PerfumeSession
1624277229.06,stimulus,2,179,,,NoAct
1624277229.56,fixation,2,179,,,NoAct
1624277230.36,stimulus,1,652,,,PerfumeSession
1624277230.86,fixation,1,652,,,PerfumeSession
1624277231.06,stimulus,2,180,,,NoAct
1624277231.56,fixation,2,180,,,NoAct
1624277232.36,stimulus,1,653,,,PerfumeSession
1624277232.86,fixation,1,653,,,PerfumeSession
1624277233.06,stimulus,2,181,,,NoAct
1624277233.56,fixation,2,181,,,NoAct
1624277234.36,stimulus,1,654,,,PerfumeSession
1624277234.86,fixation,1,654,,,PerfumeSession
1624277235.06,stimulus,2,182,,,NoAct
1624277235.56,fixation,2,182,,,NoAct
1624277236.36,stimulus,1,655,,,PerfumeSession
1624277236.86,fixation,1,655,,,PerfumeSession
1624277237.06,stimulus,2,183,,,NoAct
1624277237.56,fixation,2,183,,,NoAct
1624277238.36,stimulus,1,656,,,PerfumeSession
1624277238.86,fixation,1,656,,,PerfumeSession
1624277239.06,stimulus,2,184,,,NoAct
1624277239.56,fixation,2,184,,,NoAct
1624277240.36,stimulus,1,657,,,PerfumeSession
1624277240.86,fixation,1,657,,,PerfumeSession
1624277241.06,stimulus,2,185,,,NoAct
1624277241.56,fixation,2,185,,,NoAct
1624277242.36,stimulus,1,658,,,PerfumeSession
1624277242.86,fixation,1,658,,,PerfumeSession
1624277243.06,stimulus,2,186,,,NoAct
1624277243.56,fixation,2,186,,,NoAct
1624277244.36,stimulus,1,659,,,PerfumeSession
1624277244.86,fixation,1,659,,,PerfumeSession
1624277245.06,stimulus,2,187,,,NoAct
1624277245.56,fixation,2,187,,,NoAct
1624277246.36,stimulus,1,660,,,PerfumeSession
1624277246.86,fixation,1,660,,,PerfumeSession
1624277247.06,stimulus,2,188,,,NoAct
1624277247.56,fixation,2,188,,,NoAct
1624277248.36,stimulus,1,661,,,PerfumeSession
1624277248.86,fixation,1,661,,,PerfumeSession
1624277249.06,stimulus,2,189,,,NoAct
1624277249.56,fixation,2,189,,,NoAct
1624277250.36,stimulus,1,662,,,PerfumeSession
1624277250.86,fixation,1,662,,,PerfumeSession
1624277251.06,stimulus,2,190,,,NoAct
1624277251.56,fixation,2,190,,,NoAct
1624277252.36,stimulus,1,663,,,PerfumeSession
1624277252.86,fixation,1,663,,,PerfumeSession
1624277253.06,stimulus,2,191,,,NoAct
1624277253.56,fixation,2,191,,,NoAct
1624277254.36,stimulus,1,664,,,PerfumeSession
1624277254.86,fixation,1,664,,,PerfumeSession
1624277255.06,stimulus,2,192,,,NoAct
1624277255.56,fixation,2,192,,,NoAct
1624277256.36,stimulus,1,665,,,PerfumeSession
1624277256.86,fixation,1,665,,,PerfumeSession
1624277257.06,stimulus,2,193,,,NoAct
1624277257.56,fixation,2,193,,,NoAct
1624277258.36,stimulus,1,666,,,PerfumeSession
1624277258.67,stimulus,3,1,,,PracticeSession
1624277258.86,fixation,1,666,,,PerfumeSession
1624277259.06,stimulus,2,194,,,NoAct
1624277259.17,fixation,3,1,,,PracticeSession
1624277259.56,fixation,2,194,,,NoAct
1624277260.36,stimulus,1,667,,,PerfumeSession
1624277260.67,stimulus,3,2,,,PracticeSession
1624277260.86,fixation,1,667,,,PerfumeSession
1624277261.06,stimulus,2,195,,,NoAct
1624277261.17,fixation,3,2,,,PracticeSession
1624277261.56,fixation,2,195,,,NoAct
1624277262.36,stimulus,1,668,,,PerfumeSession
1624277262.67,stimulus,3,3,,,PracticeSession
1624277262.86,fixation,1,668,,,PerfumeSession
1624277263.06,stimulus,2,196,,,NoAct
1624277263.17,fixation,3,3,,,PracticeSession
1624277263.56,fixation,2,196,,,NoAct
1624277264.36,stimulus,1,669,,,PerfumeSession
1624277264.67,stimulus,3,4,,,PracticeSession
1624277264.86,fixation,1,669,,,PerfumeSession
1624277265.06,stimulus,2,197,,,NoAct
1624277265.17,fixation,3,4,,,PracticeSession
1624277265.56,fixation,2,197,,,NoAct
1624277266.36,stimulus,1,670,,,PerfumeSession
1624277266.67,stimulus,3,5,,,PracticeSession
1624277266.86,fixation,1,670,,,PerfumeSession
1624277267.06,stimulus,2,198,,,NoAct
1624277267.17,fixation,3,5,,,PracticeSession
1624277267.56,fixation,2,198,,,NoAct
1624277268.36,stimulus,1,671,,,PerfumeSession
1624277268.67,stimulus,3,6,,,PracticeSession
1624277268.86,fixation,1,671,,,PerfumeSession
1624277269.06,stimulus,2,199,,,NoAct
1624277269.17,fixation,3,6,,,PracticeSession
1624277269.56,fixation,2,199,,,NoAct
1624277270.36,stimulus,1,672,,,PerfumeSession
1624277270.67,stimulus,3,7,,,PracticeSession
1624277270.86,fixation,1,672,,,PerfumeSession
1624277271.06,stimulus,2,200,,,NoAct
1624277271.17,fixation,3,7,,,PracticeSession
1624277271.56,fixation,2,200,,,NoAct
1624277272.36,stimulus,1,673,,,PerfumeSession
1624277272.67,stimulus,3,8,,,PracticeSession
1624277272.86,fixation,1,673,,,PerfumeSession
1624277273.06,stimulus,2,201,,,NoAct
1624277273.17,fixation,3,8,,,PracticeSession
1624277273.56,fixation,2,201,,,NoAct
1624277274.36,stimulus,1,674,,,PerfumeSession
1624277274.67,stimulus,3,9,,,PracticeSession
1624277274.86,fixation,1,674,,,PerfumeSession
1624277275.06,stimulus,2,202,,,NoAct
1624277275.17,fixation,3,9,,,PracticeSession
1624277275.56,fixation,2,202,,,NoAct
1624277276.36,stimulus,1,675,,,PerfumeSession
1624277276.67,stimulus,3,10,,,PracticeSession
1624277276.86,fixation,1,675,,,PerfumeSession
1624277277.06,stimulus,2,203,,,NoAct
1624277277.17,fixation,3,10,,,PracticeSession
1624277277.56,fixation,2,203,,,NoAct
1624277278.36,stimulus,1,676,,,PerfumeSession
1624277278.67,stimulus,3,11,,,PracticeSession
1624277278.86,fixation,1,676,,,PerfumeSession
1624277279.06,stimulus,2,204,,,NoAct
1624277279.17,fixation,3,11,,,PracticeSession
1624277279.56,fixation,2,204,,,NoAct
1624277280.36,stimulus,1,677,,,PerfumeSession
1624277280.67,stimulus,3,12,,,PracticeSession
1624277280.86,fixation,1,677,,,PerfumeSession
1624277281.06,stimulus,2,205,,,NoAct
1624277281.17,fixation,3,12,,,PracticeSession
1624277281.56,fixation,2,205,,,NoAct
1624277282.36,stimulus,1,678,,,PerfumeSession
1624277282.67,stimulus,3,13,,,PracticeSession
1624277282.86,fixation,1,678,,,PerfumeSession
1624277283.06,stimulus,2,206,,,NoAct
1624277283.17,fixation,3,13,,,PracticeSession
1624277283.56,fixation,2,206,,,NoAct
1624277284.36,stimulus,1,679,,,PerfumeSession
1624277284.67,stimulus,3,14,,,PracticeSession
1624277284.86,fixation,1,679,,,PerfumeSession
1624277285.06,stimulus,2,207,,,NoAct
1624277285.17,fixation,3,14,,,PracticeSession
1624277285.56,fixation,2,207,,,NoAct
1624277286.36,stimulus,1,680,,,PerfumeSession
1624277286.67,stimulus,3,15,,,PracticeSession
1624277286.86,fixation,1,680,,,PerfumeSession
1624277287.06,stimulus,2,208,,,NoAct
1624277287.17,fixation,3,15,,,PracticeSession
1624277287.56,fixation,2,208,,,NoAct
1624277288.36,stimulus,1,681,,,PerfumeSession
1624277288.67,stimulus,3,16,,,PracticeSession
1624277288.86,fixation,1,681,,,PerfumeSession
1624277289.06,stimulus,2,209,,,NoAct
1624277289.17,fixation,3,16,,,PracticeSession
1624277289.56,fixation,2,209,,,NoAct
1624277290.36,stimulus,1,682,,,PerfumeSession
1624277290.67,stimulus,3,17,,,PracticeSession
1624277290.86,fixation,1,682,,,PerfumeSession
1624277291.06,stimulus,2,210,,,NoAct
1624277291.17,fixation,3,17,,,PracticeSession
1624277291.56,fixation,2,210,,,NoAct
1624277292.36,stimulus,1,683,,,PerfumeSession
1624277292.67,stimulus,3,18,,,PracticeSession
1624277292.86,fixation,1,683,,,PerfumeSession
1624277293.06,stimulus,2,211,,,NoAct
1624277293.17,fixation,3,18,,,PracticeSession
1624277293.56,fixation,2,211,,,NoAct
1624277294.36,stimulus,1,684,,,PerfumeSession
1624277294.67,stimulus,3,19,,,PracticeSession
1624277294.86,fixation,1,684,,,PerfumeSession
1624277295.06,stimulus,2,212,,,NoAct
1624277295.17,fixation,3,19,,,PracticeSession
1624277295.56,fixation,2,212,,,NoAct
1624277296.36,stimulus,1,685,,,PerfumeSession
1624277296.67,stimulus,3,20,,,PracticeSession
1624277296.86,fixation,1,685,,,PerfumeSession
1624277297.06,stimulus,2,213,,,NoAct
1624277297.17,fixation,3,20,,,PracticeSession
1624277297.56,fixation,2,213,,,NoAct
1624277298.36,stimulus,1,686,,,PerfumeSession
1624277298.67,stimulus,3,21,,,PracticeSession
1624277298.86,fixation,1,686,,,PerfumeSession
1624277299.06,stimulus,2,214,,,NoAct
1624277299.17,fixation,3,21,,,PracticeSession
1624277299.56,fixation,2,214,,,NoAct
1624277300.36,stimulus,1,687,,,PerfumeSession
1624277300.67,stimulus,3,22,,,PracticeSession
1624277300.86,fixation,1,687,,,PerfumeSession
1624277301.06,stimulus,2,215,,,NoAct
1624277301.17,fixation,3,22,,,PracticeSession
1624277301.56,fixation,2,215,,,NoAct
1624277302.36,stimulus,1,688,,,PerfumeSession
1624277302.67,stimulus,3,23,,,PracticeSession
1624277302.86,fixation,1,688,,,PerfumeSession
1624277303.06,stimulus,2,216,,,NoAct
1624277303.17,fixation,3,23,,,PracticeSession
1624277303.56,fixation,2,216,,,NoAct
1624277304.36,stimulus,1,689,,,PerfumeSession
1624277304.67,stimulus,3,24,,,PracticeSession
1624277304.86,fixation,1,689,,,PerfumeSession
1624277305.06,stimulus,2,217,,,NoAct
1624277305.17,fixation,3,24,,,PracticeSession
1624277305.56,fixation,2,217,,,NoAct
1624277306.36,stimulus,1,690,,,PerfumeSession
1624277306.67,stimulus,3,25,,,PracticeSession
1624277306.86,fixation,1,690,,,PerfumeSession
1624277307.06,stimulus,2,218,,,NoAct
1624277307.17,fixation,3,25,,,PracticeSession
1624277307.56,fixation,2,218,,,NoAct
1624277308.36,stimulus,1,691,,,PerfumeSession
1624277308.67,stimulus,3,26,,,PracticeSession
1624277308.86,fixation,1,691,,,PerfumeSession
1624277309.06,stimulus,2,219,,,NoAct
1624277309.17,fixation,3,26,,,PracticeSession
1624277309.56,fixation,2,219,,,NoAct
1624277310.36,stimulus,1,692,,,PerfumeSession
1624277310.67,stimulus,3,27,,,PracticeSession
1624277310.86,fixation,1,692,,,PerfumeSession
1624277311.06,stimulus,2,220,,,NoAct
1624277311.17,fixation,3,27,,,PracticeSession
1624277311.56,fixation,2,220,,,NoAct
1624277312.36,stimulus,1,693,,,PerfumeSession
1624277312.67,stimulus,3,28,,,PracticeSession
1624277312.86,fixation,1,693,,,PerfumeSession
1624277313.06,stimulus,2,221,,,NoAct
1624277313.17,fixation,3,28,,,PracticeSession
1624277313.56,fixation,2,221,,,NoAct
1624277314.36,stimulus,1,694,,,PerfumeSession
1624277314.67,stimulus,3,29,,,PracticeSession
1624277314.86,fixation,1,694,,,PerfumeSession
1624277315.06,stimulus,2,222,,,NoAct
1624277315.17,fixation,3,29,,,PracticeSession
1624277315.56,fixation,2,222,,,NoAct
1624277316.36,stimulus,1,695,,,PerfumeSession
1624277316.67,stimulus,3,30,,,PracticeSession
1624277316.86,fixation,1,695,,,PerfumeSession
1624277317.06,stimulus,2,223,,,NoAct
1624277317.17,fixation,3,30,,,PracticeSession
1624277317.56,fixation,2,223,,,NoAct
1624277318.36,stimulus,1,696,,,PerfumeSession
1624277318.67,stimulus,3,31,,,PracticeSession
1624277318.86,fixation,1,696,,,PerfumeSession
1624277319.06,stimulus,2,224,,,NoAct
1624277319.17,fixation,3,31,,,PracticeSession
1624277319.56,fixation,2,224,,,NoAct
1624277320.36,stimulus,1,697,,,PerfumeSession
1624277320.67,stimulus,3,32,,,PracticeSession
1624277320.86,fixation,1,697,,,PerfumeSession
1624277321.06,stimulus,2,225,,,NoAct
1624277321.17,fixation,3,32,,,PracticeSession
1624277321.56,fixation,2,225,,,NoAct
1624277322.36,stimulus,1,698,,,PerfumeSession
1624277322.67,stimulus,3,33,,,PracticeSession
1624277322.86,fixation,1,698,,,PerfumeSession
1624277323.06,stimulus,2,226,,,NoAct
1624277323.17,fixation,3,33,,,PracticeSession
1624277323.56,fixation,2,226,,,NoAct
1624277324.36,stimulus,1,699,,,PerfumeSession
1624277324.67,stimulus,3,34,,,PracticeSession
1624277324.86,fixation,1,699,,,PerfumeSession
1624277325.06,stimulus,2,227,,,NoAct
1624277325.17,fixation,3,34,,,PracticeSession
1624277325.56,fixation,2,227,,,NoAct
1624277326.36,stimulus,1,700,,,PerfumeSession
1624277326.67,stimulus,3,35,,,PracticeSession
1624277326.86,fixation,1,700,,,PerfumeSession
1624277327.06,stimulus,2,228,,,NoAct
1624277327.17,fixation,3,35,,,PracticeSession
1624277327.56,fixation,2,228,,,NoAct
1624277328.36,stimulus,1,701,,,PerfumeSession
1624277328.67,stimulus,3,36,,,PracticeSession
1624277328.86,fixation,1,701,,,PerfumeSession
1624277329.06,stimulus,2,229,,,NoAct
1624277329.17,fixation,3,36,,,PracticeSession
1624277329.56,fixation,2,229,,,NoAct
1624277330.36,stimulus,1,702,,,PerfumeSession
1624277330.67,stimulus,3,37,,,PracticeSession
1624277330.86,fixation,1,702,,,PerfumeSession
1624277331.06,stimulus,2,230,,,NoAct
1624277331.17,fixation,3,37,,,PracticeSession
1624277331.56,fixation,2,230,,,NoAct
1624277332.36,stimulus,1,703,,,PerfumeSession
1624277332.67,stimulus,3,38,,,PracticeSession
1624277332.86,fixation,1,703,,,PerfumeSession
1624277333.06,stimulus,2,231,,,NoAct
1624277333.17,fixation,3,38,,,PracticeSession
1624277333.56,fixation,2,231,,,NoAct
1624277334.36,stimulus,1,704,,,PerfumeSession
1624277334.67,stimulus,3,39,,,PracticeSession
1624277334.86,fixation,1,704,,,PerfumeSession
1624277335.06,stimulus,2,232,,,NoAct
1624277335.17,fixation,3,39,,,PracticeSession
1624277335.56,fixation,2,232,,,NoAct
1624277336.36,stimulus,1,705,,,PerfumeSession
1624277336.67,stimulus,3,40,,,PracticeSession
1624277336.86,fixation,1,705,,,PerfumeSession
1624277337.06,stimulus,2,233,,,NoAct
1624277337.17,fixation,3,40,,,PracticeSession
1624277337.56,fixation,2,233,,,NoAct
1624277338.36,stimulus,1,706,,,PerfumeSession
1624277338.67,stimulus,3,41,,,PracticeSession
1624277338.86,fixation,1,706,,,PerfumeSession
1624277339.06,stimulus,2,234,,,NoAct
1624277339.17,fixation,3,41,,,PracticeSession
1624277339.56,fixation,2,234,,,NoAct
1624277340.36,stimulus,1,707,,,PerfumeSession
1624277340.67,stimulus,3,42,,,PracticeSession
1624277340.86,fixation,1,707,,,PerfumeSession
1624277341.06,stimulus,2,235,,,NoAct
1624277341.17,fixation,3,42,,,PracticeSession
1624277341.56,fixation,2,235,,,NoAct
1624277342.36,stimulus,1,708,,,PerfumeSession
1624277342.67,stimulus,3,43,,,PracticeSession
1624277342.86,fixation,1,708,,,PerfumeSession
1624277343.06,stimulus,2,236,,,NoAct
1624277343.17,fixation,3,43,,,PracticeSession
1624277343.56,fixation,2,236,,,NoAct
1624277344.36,stimulus,1,709,,,PerfumeSession
1624277344.67,stimulus,3,44,,,PracticeSession
1624277344.86,fixation,1,709,,,PerfumeSession
1624277345.06,stimulus,2,237,,,NoAct
1624277345.17,fixation,3,44,,,PracticeSession
1624277345.56,fixation,2,237,,,NoAct
1624277346.36,stimulus,1,710,,,PerfumeSession
1624277346.67,stimulus,3,45,,,NoAct
1624277346.86,fixation,1,710,,,PerfumeSession
1624277347.06,stimulus,2,238,,,NoAct
1624277347.17,fixation,3,45,,,NoAct
1624277347.56,fixation,2,238,,,NoAct
1624277348.36,stimulus,1,711,,,PerfumeSession
1624277348.67,stimulus,3,46,,,NoAct
1624277348.86,fixation,1,711,,,PerfumeSession
1624277349.06,stimulus,2,239,,,NoAct
1624277349.17,fixation,3,46,,,NoAct
1624277349.56,fixation,2,239,,,NoAct
1624277350.36,stimulus,1,712,,,PerfumeSession
1624277350.67,stimulus,3,47,,,NoAct
1624277350.86,fixation,1,712,,,PerfumeSession
1624277351.06,stimulus,2,240,,,NoAct
1624277351.17,fixation,3,47,,,NoAct
1624277351.56,fixation,2,240,,,NoAct
1624277352.36,stimulus,1,713,,,PerfumeSession
1624277352.67,stimulus,3,48,,,NoAct
1624277352.86,fixation,1,713,,,PerfumeSession
1624277353.06,stimulus,2,241,,,NoAct
1624277353.17,fixation,3,48,,,NoAct
1624277353.56,fixation,2,241,,,NoAct
1624277354.36,stimulus,1,714,,,PerfumeSession
1624277354.67,stimulus,3,49,,,NoAct
1624277354.86,fixation,1,714,,,PerfumeSession
1624277355.06,stimulus,2,242,,,NoAct
1624277355.17,fixation,3,49,,,NoAct
1624277355.56,fixation,2,242,,,NoAct
1624277356.36,stimulus,1,715,,,PerfumeSession
1624277356.67,stimulus,3,50,,,NoAct
1624277356.86,fixation,1,715,,,PerfumeSession
1624277357.06,stimulus,2,243,,,NoAct
1624277357.17,fixation,3,50,,,NoAct
1624277357.56,fixation,2,243,,,NoAct
1624277358.36,stimulus,1,716,,,PerfumeSession
1624277358.67,stimulus,3,51,,,NoAct
1624277358.86,fixation,1,716,,,PerfumeSession
1624277359.06,stimulus,2,244,,,NoAct
1624277359.17,fixation,3,51,,,NoAct
1624277359.56,fixation,2,244,,,NoAct
1624277360.36,stimulus,1,717,,,PerfumeSession
1624277360.67,stimulus,3,52,,,NoAct
1624277360.86,fixation,1,717,,,PerfumeSession
1624277361.06,stimulus,2,245,,,NoAct
1624277361.17,fixation,3,52,,,NoAct
1624277361.56,fixation,2,245,,,NoAct
1624277362.36,stimulus,1,718,,,PerfumeSession
1624277362.67,stimulus,3,53,,,NoAct
1624277362.86,fixation,1,718,,,PerfumeSession
1624277363.06,stimulus,2,246,,,NoAct
1624277363.17,fixation,3,53,,,NoAct
1624277363.56,fixation,2,246,,,NoAct
1624277364.36,stimulus,1,719,,,PerfumeSession
1624277364.67,stimulus,3,54,,,NoAct
1624277364.86,fixation,1,719,,,PerfumeSession
1624277365.06,stimulus,2,247,,,NoAct
1624277365.17,fixation,3,54,,,NoAct
1624277365.56,fixation,2,247,,,NoAct
1624277366.36,stimulus,1,720,,,PerfumeSession
1624277366.67,stimulus,3,55,,,NoAct
1624277366.86,fixation,1,720,,,PerfumeSession
1624277367.06,stimulus,2,248,,,NoAct
1624277367.17,fixation,3,55,,,NoAct
1624277367.56,fixation,2,248,,,NoAct
1624277368.36,stimulus,1,721,,,PerfumeSession
1624277368.67,stimulus,3,56,,,NoAct
1624277368.86,fixation,1,721,,,PerfumeSession
1624277369.06,stimulus,2,249,,,NoAct
1624277369.17,fixation,3,56,,,NoAct
1624277369.56,fixation,2,249,,,NoAct
1624277370.36,stimulus,1,722,,,PerfumeSession
1624277370.67,stimulus,3,57,,,NoAct
1624277370.86,fixation,1,722,,,PerfumeSession
1624277371.06,stimulus,2,250,,,NoAct
1624277371.17,fixation,3,57,,,NoAct
1624277371.56,fixation,2,250,,,NoAct
1624277372.36,stimulus,1,723,,,PerfumeSession
1624277372.67,stimulus,3,58,,,NoAct
1624277372.86,fixation,1,723,,,PerfumeSession
1624277373.06,stimulus,2,251,,,NoAct
1624277373.17,fixation,3,58,,,NoAct
1624277373.56,fixation,2,251,,,NoAct
1624277374.36,stimulus,1,724,,,PerfumeSession
1624277374.67,stimulus,3,59,,,NoAct
1624277374.86,fixation,1,724,,,PerfumeSession
1624277375.06,stimulus,2,252,,,NoAct
1624277375.17,fixation,3,59,,,NoAct
1624277375.56,fixation,2,252,,,NoAct
1624277376.36,stimulus,1,725,,,PerfumeSession
1624277376.67,stimulus,3,60,,,NoAct
1624277376.86,fixation,1,725,,,PerfumeSession
1624277377.06,stimulus,2,253,,,NoAct
1624277377.17,fixation,3,60,,,NoAct
1624277377.56,fixation,2,253,,,NoAct
1624277378.36,stimulus,1,726,,,PerfumeSession
1624277378.67,stimulus,3,61,,,NoAct
1624277378.86,fixation,1,726,,,PerfumeSession
1624277379.06,stimulus,2,254,,,NoAct
1624277379.17,fixation,3,61,,,NoAct
1624277379.56,fixation,2,254,,,NoAct
1624277380.36,stimulus,1,727,,,PerfumeSession
1624277380.67,stimulus,3,62,,,NoAct
1624277380.86,fixation,1,727,,,PerfumeSession
1624277381.06,stimulus,2,255,,,NoAct
1624277381.17,fixation,3,62,,,NoAct
1624277381.56,fixation,2,255,,,NoAct
1624277382.36,stimulus,1,728,,,PerfumeSession
1624277382.67,stimulus,3,63,,,NoAct
1624277382.86,fixation,1,728,,,PerfumeSession
1624277383.06,stimulus,2,256,,,NoAct
1624277383.17,fixation,3,63,,,NoAct
1624277383.56,fixation,2,256,,,NoAct
1624277384.36,stimulus,1,729,,,PerfumeSession
1624277384.67,stimulus,3,64,,,NoAct
1624277384.86,fixation,1,729,,,PerfumeSession
1624277385.06,stimulus,2,257,,,NoAct
1624277385.17,fixation,3,64,,,NoAct
1624277385.56,fixation,2,257,,,NoAct
1624277386.36,stimulus,1,730,,,PerfumeSession
1624277386.67,stimulus,3,65,,,NoAct
1624277386.86,fixation,1,730,,,PerfumeSession
1624277387.06,stimulus,2,258,,,NoAct
1624277387.17,fixation,3,65,,,NoAct
1624277387.56,fixation,2,258,,,NoAct
1624277388.36,stimulus,1,731,,,PerfumeSession
1624277388.67,stimulus,3,66,,,NoAct
1624277388.86,fixation,1,731,,,PerfumeSession
1624277389.06,stimulus,2,259,,,NoAct
1624277389.17,fixation,3,66,,,NoAct
1624277389.56,fixation,2,259,,,NoAct
1624277390.36,stimulus,1,732,,,PerfumeSession
1624277390.67,stimulus,3,67,,,NoAct
1624277390.86,fixation,1,732,,,PerfumeSession
1624277391.06,stimulus,2,260,,,NoAct
1624277391.17,fixation,3,67,,,NoAct
1624277391.56,fixation,2,260,,,NoAct
1624277392.36,stimulus,1,733,,,PerfumeSession
1624277392.67,stimulus,3,68,,,NoAct
1624277392.86,fixation,1,733,,,PerfumeSession
1624277393.06,stimulus,2,261,,,NoAct
1624277393.17,fixation,3,68,,,NoAct
1624277393.56,fixation,2,261,,,NoAct
1624277394.36,stimulus,1,734,,,PerfumeSession
1624277394.67,stimulus,3,69,,,NoAct
1624277394.86,fixation,1,734,,,PerfumeSession
1624277395.06,stimulus,2,262,,,NoAct
1624277395.17,fixation,3,69,,,NoAct
1624277395.56,fixation,2,262,,,NoAct
1624277396.36,stimulus,1,735,,,PerfumeSession
1624277396.67,stimulus,3,70,,,NoAct
1624277396.86,fixation,1,735,,,PerfumeSession
1624277397.06,stimulus,2,263,,,NoAct
1624277397.17,fixation,3,70,,,NoAct
1624277397.56,fixation,2,263,,,NoAct
1624277398.36,stimulus,1,736,,,PerfumeSession
1624277398.67,stimulus,3,71,,,NoAct
1624277398.86,fixation,1,736,,,PerfumeSession
1624277399.06,stimulus,2,264,,,NoAct
1624277399.17,fixation,3,71,,,NoAct
1624277399.56,fixation,2,264,,,NoAct
1624277400.36,stimulus,1,737,,,PerfumeSession
1624277400.67,stimulus,3,72,,,NoAct
1624277400.86,fixation,1,737,,,PerfumeSession
1624277401.06,stimulus,2,265,,,NoAct
1624277401.17,fixation,3,72,,,NoAct
1624277401.56,fixation,2,265,,,NoAct
1624277402.36,stimulus,1,738,,,PerfumeSession
1624277402.67,stimulus,3,73,,,NoAct
1624277402.86,fixation,1,738,,,PerfumeSession
1624277403.06,stimulus,2,266,,,NoAct
1624277403.17,fixation,3,73,,,NoAct
1624277403.56,fixation,2,266,,,NoAct
1624277404.36,stimulus,1,739,,,PerfumeSession
1624277404.67,stimulus,3,74,,,NoAct
1624277404.86,fixation,1,739,,,PerfumeSession
1624277405.06,stimulus,2,267,,,NoAct
1624277405.17,fixation,3,74,,,NoAct
1624277405.56,fixation,2,267,,,NoAct
1624277406.36,stimulus,1,740,,,PerfumeSession
1624277406.67,stimulus,3,75,,,NoAct
1624277406.86,fixation,1,740,,,PerfumeSession
1624277407.06,stimulus,2,268,,,NoAct
1624277407.17,fixation,3,75,,,NoAct
1624277407.56,fixation,2,268,,,NoAct
1624277408.36,stimulus,1,741,,,PerfumeSession
1624277408.67,stimulus,3,76,,,NoAct
1624277408.86,fixation,1,741,,,PerfumeSession
1624277409.06,stimulus,2,269,,,NoAct
1624277409.17,fixation,3,76,,,NoAct
1624277409.56,fixation,2,269,,,NoAct
1624277410.36,stimulus,1,742,,,PerfumeSession
1624277410.67,stimulus,3,77,,,NoAct
1624277410.86,fixation,1,742,,,PerfumeSession
1624277411.06,stimulus,2,270,,,NoAct
1624277411.17,fixation,3,77,,,NoAct
1624277411.56,fixation,2,270,,,NoAct
1624277412.36,stimulus,1,743,,,PerfumeSession
1624277412.67,stimulus,3,78,,,NoAct
1624277412.86,fixation,1,743,,,PerfumeSession
1624277413.06,stimulus,2,271,,,NoAct
1624277413.17,fixation,3,78,,,NoAct
1624277413.56,fixation,2,271,,,NoAct
1624277414.36,stimulus,1,744,,,PerfumeSession
1624277414.67,stimulus,3,79,,,NoAct
1624277414.86,fixation,1,744,,,PerfumeSession
1624277415.06,stimulus,2,272,,,NoAct
1624277415.17,fixation,3,79,,,NoAct
1624277415.56,fixation,2,272,,,NoAct
1624277416.36,stimulus,1,745,,,PerfumeSession
1624277416.67,stimulus,3,80,,,NoAct
1624277416.86,fixation,1,745,,,PerfumeSession
1624277417.06,stimulus,2,273,,,NoAct
1624277417.17,fixation,3,80,,,NoAct
1624277417.56,fixation,2,273,,,NoAct
1624277418.36,stimulus,1,746,,,PerfumeSession
1624277418.67,stimulus,3,81,,,NoAct
1624277418.86,fixation,1,746,,,PerfumeSession
1624277419.06,stimulus,2,274,,,NoAct
1624277419.17,fixation,3,81,,,NoAct
1624277419.56,fixation,2,274,,,NoAct
1624277420.36,stimulus,1,747,,,PerfumeSession
1624277420.67,stimulus,3,82,,,NoAct
1624277420.86,fixation,1,747,,,PerfumeSession
1624277421.06,stimulus,2,275,,,NoAct
1624277421.17,fixation,3,82,,,NoAct
1624277421.56,fixation,2,275,,,NoAct
1624277422.36,stimulus,1,748,,,PerfumeSession
1624277422.67,stimulus,3,83,,,NoAct
1624277422.86,fixation,1,748,,,PerfumeSession
1624277423.06,stimulus,2,276,,,NoAct
1624277423.17,fixation,3,83,,,NoAct
1624277423.56,fixation,2,276,,,NoAct
1624277424.36,stimulus,1,749,,,PerfumeSession
1624277424.67,stimulus,3,84,,,NoAct
1624277424.86,fixation,1,749,,,PerfumeSession
1624277425.06,stimulus,2,277,,,NoAct
1624277425.17,fixation,3,84,,,NoAct
1624277425.56,fixation,2,277,,,NoAct
1624277426.36,stimulus,1,750,,,PerfumeSession
1624277426.67,stimulus,3,85,,,NoAct
1624277426.86,fixation,1,750,,,PerfumeSession
1624277427.06,stimulus,2,278,,,NoAct
1624277427.17,fixation,3,85,,,NoAct
1624277427.56,fixation,2,278,,,NoAct
1624277428.36,stimulus,1,751,,,CoffeeSession
1624277428.67,stimulus,3,86,,,NoAct
1624277428.86,fixation,1,751,,,CoffeeSession
1624277429.06,stimulus,2,279,,,NoAct
1624277429.17,fixation,3,86,,,NoAct
1624277429.56,fixation,2,279,,,NoAct
1624277430.36,stimulus,1,752,,,CoffeeSession
1624277430.67,stimulus,3,87,,,NoAct
1624277430.86,fixation,1,752,,,CoffeeSession
1624277431.06,stimulus,2,280,,,NoAct
1624277431.17,fixation,3,87,,,NoAct
1624277431.56,fixation,2,280,,,NoAct
1624277432.36,stimulus,1,753,,,CoffeeSession
1624277432.67,stimulus,3,88,,,NoAct
1624277432.86,fixation,1,753,,,CoffeeSession
1624277433.06,stimulus,2,281,,,NoAct
1624277433.17,fixation,3,88,,,NoAct
1624277433.56,fixation,2,281,,,NoAct
1624277434.36,stimulus,1,754,,,CoffeeSession
1624277434.67,stimulus,3,89,,,NoAct
1624277434.86,fixation,1,754,,,CoffeeSession
1624277435.06,stimulus,2,282,,,NoAct
1624277435.17,fixation,3,89,,,NoAct
1624277435.56,fixation,2,282,,,NoAct
1624277436.36,stimulus,1,755,,,CoffeeSession
1624277436.67,stimulus,3,90,,,NoAct
1624277436.86,fixation,1,755,,,CoffeeSession
1624277437.06,stimulus,2,283,,,NoAct
1624277437.17,fixation,3,90,,,NoAct
1624277437.56,fixation,2,283,,,NoAct
1624277438.36,stimulus,1,756,,,CoffeeSession
1624277438.67,stimulus,3,91,,,NoAct
1624277438.86,fixation,1,756,,,CoffeeSession
1624277439.06,stimulus,2,284,,,NoAct
1624277439.17,fixation,3,91,,,NoAct
1624277439.56,fixation,2,284,,,NoAct
1624277440.36,stimulus,1,757,,,CoffeeSession
1624277440.67,stimulus,3,92,,,NoAct
1624277440.86,fixation,1,757,,,CoffeeSession
1624277441.06,stimulus,2,285,,,NoAct
1624277441.17,fixation,3,92,,,NoAct
1624277441.56,fixation,2,285,,,NoAct
1624277442.36,stimulus,1,758,,,CoffeeSession
1624277442.67,stimulus,3,93,,,NoAct
1624277442.86,fixation,1,758,,,CoffeeSession
1624277443.06,stimulus,2,286,,,NoAct
1624277443.17,fixation,3,93,,,NoAct
1624277443.56,fixation,2,286,,,NoAct
1624277444.36,stimulus,1,759,,,CoffeeSession
1624277444.67,stimulus,3,94,,,NoAct
1624277444.86,fixation,1,759,,,CoffeeSession
1624277445.06,stimulus,2,287,,,NoAct
1624277445.17,fixation,3,94,,,NoAct
1624277445.56,fixation,2,287,,,NoAct
1624277446.36,stimulus,1,760,,,CoffeeSession
1624277446.67,stimulus,3,95,,,NoAct
1624277446.86,fixation,1,760,,,CoffeeSession
1624277447.06,stimulus,2,288,,,NoAct
1624277447.17,fixation,3,95,,,NoAct
1624277447.56,fixation,2,288,,,NoAct
1624277448.36,stimulus,1,761,,,CoffeeSession
1624277448.67,stimulus,3,96,,,NoAct
1624277448.86,fixation,1,761,,,CoffeeSession
1624277449.06,stimulus,2,289,,,NoAct
1624277449.17,fixation,3,96,,,NoAct
1624277449.56,fixation,2,289,,,NoAct
1624277450.36,stimulus,1,762,,,CoffeeSession
1624277450.67,stimulus,3,97,,,NoAct
1624277450.86,fixation,1,762,,,CoffeeSession
1624277451.06,stimulus,2,290,,,NoAct
1624277451.17,fixation,3,97,,,NoAct
1624277451.56,fixation,2,290,,,NoAct
1624277452.36,stimulus,1,763,,,CoffeeSession
1624277452.67,stimulus,3,98,,,NoAct
1624277452.86,fixation,1,763,,,CoffeeSession
1624277453.06,stimulus,2,291,,,NoAct
1624277453.17,fixation,3,98,,,NoAct
1624277453.56,fixation,2,291,,,NoAct
1624277454.36,stimulus,1,764,,,CoffeeSession
1624277454.67,stimulus,3,99,,,NoAct
1624277454.86,fixation,1,764,,,CoffeeSession
1624277455.06,stimulus,2,292,,,NoAct
1624277455.17,fixation,3,99,,,NoAct
1624277455.56,fixation,2,292,,,NoAct
1624277456.36,stimulus,1,765,,,CoffeeSession
1624277456.67,stimulus,3,100,,,NoAct
1624277456.86,fixation,1,765,,,CoffeeSession
1624277457.06,stimulus,2,293,,,NoAct
1624277457.17,fixation,3,100,,,NoAct
1624277457.56,fixation,2,293,,,NoAct
1624277458.36,stimulus,1,766,,,CoffeeSession
1624277458.67,stimulus,3,101,,,NoAct
1624277458.86,fixation,1,766,,,CoffeeSession
1624277459.06,stimulus,2,294,,,NoAct
1624277459.17,fixation,3,101,,,NoAct
1624277459.56,fixation,2,294,,,NoAct
1624277460.36,stimulus,1,767,,,CoffeeSession
1624277460.67,stimulus,3,102,,,NoAct
1624277460.86,fixation,1,767,,,CoffeeSession
1624277461.06,stimulus,2,295,,,NoAct
1624277461.17,fixation,3,102,,,NoAct
1624277461.56,fixation,2,295,,,NoAct
1624277462.36,stimulus,1,768,,,CoffeeSession
1624277462.67,stimulus,3,103,,,NoAct
1624277462.86,fixation,1,768,,,CoffeeSession
1624277463.06,stimulus,2,296,,,NoAct
1624277463.17,fixation,3,103,,,NoAct
1624277463.56,fixation,2,296,,,NoAct
1624277464.36,stimulus,1,769,,,CoffeeSession
1624277464.67,stimulus,3,104,,,NoAct
1624277464.86,fixation,1,769,,,CoffeeSession
1624277465.06,stimulus,2,297,,,NoAct
