event_time_s,trial_type,session_idx,trial_idx,RT_s,ACC,session_type
1624890820.69,stimulus,1,1,,,PracticeSession
1624890821.19,fixation,1,1,,,PracticeSession
1624890822.69,stimulus,1,2,,,PracticeSession
1624890823.19,fixation,1,2,,,PracticeSession
1624890824.69,stimulus,1,3,,,PracticeSession
1624890825.19,fixation,1,3,,,PracticeSession
1624890826.69,stimulus,1,4,,,PracticeSession
1624890827.19,fixation,1,4,,,PracticeSession
1624890828.69,stimulus,1,5,,,PracticeSession
1624890829.19,fixation,1,5,,,PracticeSession
1624890830.69,stimulus,1,6,,,PracticeSession
1624890831.19,fixation,1,6,,,PracticeSession
1624890832.69,stimulus,1,7,,,PracticeSession
1624890833.19,fixation,1,7,,,PracticeSession
1624890834.69,stimulus,1,8,,,PracticeSession
1624890835.19,fixation,1,8,,,PracticeSession
1624890836.69,stimulus,1,9,,,PracticeSession
1624890837.19,fixation,1,9,,,PracticeSession
1624890838.69,stimulus,1,10,,,PracticeSession
1624890839.19,fixation,1,10,,,PracticeSession
1624890840.69,stimulus,1,11,,,PracticeSession
1624890841.19,fixation,1,11,,,PracticeSession
1624890842.69,stimulus,1,12,,,PracticeSession
1624890843.19,fixation,1,12,,,PracticeSession
1624890844.69,stimulus,1,13,,,PracticeSession
1624890845.19,fixation,1,13,,,PracticeSession
1624890846.69,stimulus,1,14,,,PracticeSession
1624890847.19,fixation,1,14,,,PracticeSession
1624890848.69,stimulus,1,15,,,PracticeSession
1624890849.19,fixation,1,15,,,PracticeSession
1624890850.69,stimulus,1,16,,,PracticeSession
1624890851.19,fixation,1,16,,,PracticeSession
1624890852.69,stimulus,1,17,,,PracticeSession
1624890853.19,fixation,1,17,,,PracticeSession
1624890854.69,stimulus,1,18,,,PracticeSession
1624890855.19,fixation,1,18,,,PracticeSession
1624890856.69,stimulus,1,19,,,PracticeSession
1624890857.19,fixation,1,19,,,PracticeSession
1624890858.69,stimulus,1,20,,,PracticeSession
1624890859.19,fixation,1,20,,,PracticeSession
1624890860.69,stimulus,1,21,,,PracticeSession
1624890861.19,fixation,1,21,,,PracticeSession
1624890862.69,stimulus,1,22,,,PracticeSession
1624890863.19,fixation,1,22,,,PracticeSession
1624890864.69,stimulus,1,23,,,PracticeSession
1624890865.19,fixation,1,23,,,PracticeSession
1624890866.69,stimulus,1,24,,,PracticeSession
1624890867.19,fixation,1,24,,,PracticeSession
1624890868.69,stimulus,1,25,,,PracticeSession
1624890869.19,fixation,1,25,,,PracticeSession
1624890870.69,stimulus,1,26,,,PracticeSession
1624890871.19,fixation,1,26,,,PracticeSession
1624890872.69,stimulus,1,27,,,PracticeSession
1624890873.19,fixation,1,27,,,PracticeSession
1624890874.69,stimulus,1,28,,,PracticeSession
1624890875.19,fixation,1,28,,,PracticeSession
1624890876.69,stimulus,1,29,,,PracticeSession
1624890877.19,fixation,1,29,,,PracticeSession
1624890878.69,stimulus,1,30,,,PracticeSession
1624890879.19,fixation,1,30,,,PracticeSession
1624890880.69,stimulus,1,31,,,PracticeSession
1624890881.19,fixation,1,31,,,PracticeSession
1624890882.69,stimulus,1,32,,,PracticeSession
1624890883.19,fixation,1,32,,,PracticeSession
1624890884.69,stimulus,1,33,,,PracticeSession
1624890885.19,fixation,1,33,,,PracticeSession
1624890886.69,stimulus,1,34,,,PracticeSession
1624890887.19,fixation,1,34,,,PracticeSession
1624890888.69,stimulus,1,35,,,PracticeSession
1624890889.19,fixation,1,35,,,PracticeSession
1624890890.69,stimulus,1,36,,,PracticeSession
1624890891.19,fixation,1,36,,,PracticeSession
1624890892.69,stimulus,1,37,,,PracticeSession
1624890893.19,fixation,1,37,,,PracticeSession
1624890894.69,stimulus,1,38,,,PracticeSession
1624890895.19,fixation,1,38,,,PracticeSession
1624890896.69,stimulus,1,39,,,PracticeSession
1624890897.19,fixation,1,39,,,PracticeSession
1624890898.69,stimulus,1,40,,,PracticeSession
1624890899.19,fixation,1,40,,,PracticeSession
1624890900.69,stimulus,1,41,,,PracticeSession
1624890901.19,fixation,1,41,,,PracticeSession
1624890902.69,stimulus,1,42,,,PracticeSession
1624890903.19,fixation,1,42,,,PracticeSession
1624890904.69,stimulus,1,43,,,PracticeSession
1624890905.19,fixation,1,43,,,PracticeSession
1624890906.69,stimulus,1,44,,,PracticeSession
1624890907.19,fixation,1,44,,,PracticeSession
1624890908.69,stimulus,1,45,,0.0,NoAct
1624890909.2250001,fixation,1,45,0.035,1.0,NoAct
1624890910.69,stimulus,1,46,,0.0,NoAct
1624890911.437,fixation,1,46,0.247,1.0,NoAct
1624890912.69,stimulus,1,47,,0.0,NoAct
1624890913.41,fixation,1,47,0.22,1.0,NoAct
1624890914.69,stimulus,1,48,,0.0,NoAct
1624890915.446,fixation,1,48,0.256,1.0,NoAct
1624890916.69,stimulus,1,49,,0.0,NoAct
1624890917.375,fixation,1,49,0.185,1.0,NoAct
1624890918.69,stimulus,1,50,,0.0,NoAct
1624890919.394,fixation,1,50,0.204,1.0,NoAct
1624890920.69,stimulus,1,51,,0.0,NoAct
1624890921.487,fixation,1,51,0.297,0.0,NoAct
1624890922.69,stimulus,1,52,,0.0,NoAct
1624890923.368,fixation,1,52,0.178,1.0,NoAct
1624890924.69,stimulus,1,53,,0.0,NoAct
1624890925.391,fixation,1,53,0.201,1.0,NoAct
1624890926.69,stimulus,1,54,,0.0,NoAct
1624890927.43,fixation,1,54,0.24,1.0,NoAct
1624890928.69,stimulus,1,55,,0.0,NoAct
1624890929.414,fixation,1,55,0.224,1.0,NoAct
1624890930.69,stimulus,1,56,,0.0,NoAct
1624890931.42,fixation,1,56,0.23,1.0,NoAct
1624890932.69,stimulus,1,57,,0.0,NoAct
1624890933.614,fixation,1,57,0.424,1.0,NoAct
1624890934.69,stimulus,1,58,,0.0,NoAct
1624890935.586,fixation,1,58,0.396,1.0,NoAct
1624890936.69,stimulus,1,59,,0.0,NoAct
1624890937.4450002,fixation,1,59,0.255,1.0,NoAct
1624890938.69,stimulus,1,60,,0.0,NoAct
1624890939.476,fixation,1,60,0.286,1.0,NoAct
1624890940.69,stimulus,1,61,,0.0,NoAct
1624890941.71,fixation,1,61,0.52,1.0,NoAct
1624890942.69,stimulus,1,62,,0.0,NoAct
1624890943.767,fixation,1,62,0.577,1.0,NoAct
1624890944.69,stimulus,1,63,,0.0,NoAct
1624890945.456,fixation,1,63,0.266,1.0,NoAct
1624890946.69,stimulus,1,64,,0.0,NoAct
1624890947.687,fixation,1,64,0.497,1.0,NoAct
1624890948.69,stimulus,1,65,,0.0,NoAct
1624890949.471,fixation,1,65,0.281,1.0,NoAct
1624890950.69,stimulus,1,66,,0.0,NoAct
1624890951.339,fixation,1,66,0.149,1.0,NoAct
1624890952.69,stimulus,1,67,,0.0,NoAct
1624890953.681,fixation,1,67,0.491,1.0,NoAct
1624890955.186,stimulus,1,68,0.496,1.0,NoAct
1624890955.19,fixation,1,68,,0.0,NoAct
1624890957.0700002,stimulus,1,69,0.38,1.0,NoAct
1624890957.19,fixation,1,69,,0.0,NoAct
1624890958.69,stimulus,1,70,,0.0,NoAct
1624890959.517,fixation,1,70,0.327,1.0,NoAct
1624890960.69,stimulus,1,71,,0.0,NoAct
1624890961.2940001,fixation,1,71,0.104,1.0,NoAct
1624890962.69,stimulus,1,72,,0.0,NoAct
1624890963.221,fixation,1,72,0.031,1.0,NoAct
1624890964.69,stimulus,1,73,,0.0,NoAct
1624890965.339,fixation,1,73,0.149,1.0,NoAct
1624890966.69,stimulus,1,74,,0.0,NoAct
1624890967.193,fixation,1,74,0.003,0.0,NoAct
1624890969.042,stimulus,1,75,0.352,1.0,NoAct
1624890969.19,fixation,1,75,,0.0,NoAct
1624890971.185,stimulus,1,76,0.495,1.0,NoAct
1624890971.19,fixation,1,76,,0.0,NoAct
1624890972.69,stimulus,1,77,,0.0,NoAct
1624890973.197,fixation,1,77,0.007,1.0,NoAct
1624890974.69,stimulus,1,78,,0.0,NoAct
1624890975.437,fixation,1,78,0.247,1.0,NoAct
1624890976.69,stimulus,1,79,,0.0,NoAct
1624890977.444,fixation,1,79,0.254,1.0,NoAct
1624890978.69,stimulus,1,80,,0.0,NoAct
1624890979.443,fixation,1,80,0.253,1.0,NoAct
1624890980.69,stimulus,1,81,,0.0,NoAct
1624890981.509,fixation,1,81,0.319,1.0,NoAct
1624890982.69,stimulus,1,82,,0.0,NoAct
1624890983.405,fixation,1,82,0.215,1.0,NoAct
1624890984.69,stimulus,1,83,,0.0,NoAct
1624890985.539,fixation,1,83,0.349,1.0,NoAct
1624890986.69,stimulus,1,84,,0.0,NoAct
1624890987.657,fixation,1,84,0.467,1.0,NoAct
1624890988.69,stimulus,1,85,,0.0,NoAct
1624890989.5570002,fixation,1,85,0.367,1.0,NoAct
1624890990.69,stimulus,1,86,,0.0,NoAct
1624890991.4650002,fixation,1,86,0.275,1.0,NoAct
1624890992.69,stimulus,1,87,,0.0,NoAct
1624890993.5210001,fixation,1,87,0.331,1.0,NoAct
1624890994.69,stimulus,1,88,,0.0,NoAct
1624890995.5670002,fixation,1,88,0.377,1.0,NoAct
1624890996.69,stimulus,1,89,,0.0,NoAct
1624890997.4910002,fixation,1,89,0.301,1.0,NoAct
1624890999.015,stimulus,1,90,0.325,1.0,NoAct
1624890999.19,fixation,1,90,,0.0,NoAct
1624891001.003,stimulus,1,91,0.313,1.0,NoAct
1624891001.19,fixation,1,91,,0.0,NoAct
1624891002.69,stimulus,1,92,,0.0,NoAct
1624891003.43,fixation,1,92,0.24,1.0,NoAct
1624891004.69,stimulus,1,93,,0.0,NoAct
1624891005.447,fixation,1,93,0.257,0.0,NoAct
1624891006.69,stimulus,1,94,,0.0,NoAct
1624891007.484,fixation,1,94,0.294,1.0,NoAct
1624891008.69,stimulus,1,95,,0.0,NoAct
1624891009.434,fixation,1,95,0.244,1.0,NoAct
1624891010.69,stimulus,1,96,,0.0,NoAct
1624891011.423,fixation,1,96,0.233,1.0,NoAct
1624891012.69,stimulus,1,97,,0.0,NoAct
1624891013.503,fixation,1,97,0.313,1.0,NoAct
1624891014.69,stimulus,1,98,,0.0,NoAct
1624891015.3660002,fixation,1,98,0.176,1.0,NoAct
1624891016.69,stimulus,1,99,,0.0,NoAct
1624891017.339,fixation,1,99,0.149,1.0,NoAct
1624891018.69,stimulus,1,100,,0.0,NoAct
1624891019.319,fixation,1,100,0.129,1.0,NoAct
1624891020.69,stimulus,1,101,,0.0,NoAct
1624891021.9910002,fixation,1,101,0.801,0.0,NoAct
1624891022.69,stimulus,1,102,,0.0,NoAct
1624891023.2410002,fixation,1,102,0.051,1.0,NoAct
1624891024.69,stimulus,1,103,,0.0,NoAct
1624891025.1990001,fixation,1,103,0.009,1.0,NoAct
1624891027.178,stimulus,1,104,0.488,1.0,NoAct
1624891027.19,fixation,1,104,,0.0,NoAct
1624891028.69,stimulus,1,105,,0.0,NoAct
1624891029.313,fixation,1,105,0.123,1.0,NoAct
1624891030.69,stimulus,1,106,,0.0,NoAct
1624891031.361,fixation,1,106,0.171,1.0,NoAct
1624891032.69,stimulus,1,107,,0.0,NoAct
1624891033.438,fixation,1,107,0.248,1.0,NoAct
1624891034.69,stimulus,1,108,,0.0,NoAct
1624891035.4090002,fixation,1,108,0.219,1.0,NoAct
1624891036.69,stimulus,1,109,,0.0,NoAct
1624891037.4420002,fixation,1,109,0.252,1.0,NoAct
1624891038.69,stimulus,1,110,,0.0,NoAct
1624891039.411,fixation,1,110,0.221,1.0,NoAct
1624891040.69,stimulus,1,111,,0.0,NoAct
1624891041.773,fixation,1,111,0.583,1.0,NoAct
1624891042.69,stimulus,1,112,,0.0,NoAct
1624891043.435,fixation,1,112,0.245,1.0,NoAct
1624891044.69,stimulus,1,113,,0.0,NoAct
1624891045.217,fixation,1,113,0.027,1.0,NoAct
1624891046.69,stimulus,1,114,,0.0,NoAct
1624891047.2380002,fixation,1,114,0.048,1.0,NoAct
1624891048.69,stimulus,1,115,,0.0,NoAct
1624891049.285,fixation,1,115,0.095,1.0,NoAct
1624891050.69,stimulus,1,116,,0.0,NoAct
1624891051.1950002,fixation,1,116,0.005,1.0,NoAct
1624891052.69,stimulus,1,117,,0.0,NoAct
1624891053.4880002,fixation,1,117,0.298,1.0,NoAct
1624891054.69,stimulus,1,118,,0.0,NoAct
1624891055.402,fixation,1,118,0.212,1.0,NoAct
1624891056.69,stimulus,1,119,,0.0,NoAct
1624891057.493,fixation,1,119,0.303,1.0,NoAct
1624891058.69,stimulus,1,120,,0.0,NoAct
1624891059.427,fixation,1,120,0.237,1.0,NoAct
1624891060.69,stimulus,1,121,,0.0,NoAct
1624891061.329,fixation,1,121,0.139,1.0,NoAct
1624891062.69,stimulus,1,122,,0.0,NoAct
1624891063.438,fixation,1,122,0.248,1.0,NoAct
1624891064.69,stimulus,1,123,,0.0,NoAct
1624891065.6100001,fixation,1,123,0.42,1.0,NoAct
1624891066.69,stimulus,1,124,,0.0,NoAct
1624891067.3530002,fixation,1,124,0.163,1.0,NoAct
1624891068.69,stimulus,1,125,,0.0,NoAct
1624891069.292,fixation,1,125,0.102,1.0,NoAct
1624891070.69,stimulus,1,126,,0.0,NoAct
1624891071.309,fixation,1,126,0.119,1.0,NoAct
1624891072.69,stimulus,1,127,,0.0,NoAct
1624891073.3960001,fixation,1,127,0.206,1.0,NoAct
1624891074.69,stimulus,1,128,,0.0,NoAct
1624891075.4390001,fixation,1,128,0.249,1.0,NoAct
1624891076.69,stimulus,1,129,,0.0,NoAct
1624891077.27,fixation,1,129,0.08,1.0,NoAct
1624891078.69,stimulus,1,130,,0.0,NoAct
1624891079.3300002,fixation,1,130,0.14,1.0,NoAct
1624891081.173,stimulus,1,131,0.483,1.0,NoAct
1624891081.19,fixation,1,131,,0.0,NoAct
1624891082.69,stimulus,1,132,,0.0,NoAct
1624891083.426,fixation,1,132,0.236,1.0,NoAct
1624891084.69,stimulus,1,133,,0.0,NoAct
1624891085.2,fixation,1,133,0.01,1.0,NoAct
1624891086.999,stimulus,1,134,0.309,1.0,NoAct
1624891087.19,fixation,1,134,,0.0,NoAct
1624891089.089,stimulus,1,135,0.399,1.0,NoAct
1624891089.19,fixation,1,135,,0.0,NoAct
1624891090.69,stimulus,1,136,,0.0,NoAct
1624891091.6000001,fixation,1,136,0.41,1.0,NoAct
1624891092.69,stimulus,1,137,,0.0,NoAct
1624891093.513,fixation,1,137,0.323,1.0,NoAct
1624891094.69,stimulus,1,138,,0.0,NoAct
1624891095.451,fixation,1,138,0.261,1.0,NoAct
1624891097.188,stimulus,1,139,0.498,1.0,NoAct
1624891097.19,fixation,1,139,,0.0,NoAct
1624891098.69,stimulus,1,140,,0.0,NoAct
1624891099.338,fixation,1,140,0.148,1.0,NoAct
1624891100.69,stimulus,1,141,,0.0,NoAct
1624891101.652,fixation,1,141,0.462,1.0,NoAct
1624891102.69,stimulus,1,142,,0.0,NoAct
1624891103.469,fixation,1,142,0.279,1.0,NoAct
1624891104.69,stimulus,1,143,,0.0,NoAct
1624891105.356,fixation,1,143,0.166,1.0,NoAct
1624891106.69,stimulus,1,144,,0.0,NoAct
1624891107.493,fixation,1,144,0.303,1.0,NoAct
1624891108.69,stimulus,1,145,,0.0,NoAct
1624891109.263,fixation,1,145,0.073,0.0,NoAct
1624891111.0670002,stimulus,1,146,0.377,1.0,NoAct
1624891111.19,fixation,1,146,,0.0,NoAct
1624891112.69,stimulus,1,147,,0.0,NoAct
1624891113.4520001,fixation,1,147,0.262,0.0,NoAct
1624891114.69,stimulus,1,148,,0.0,NoAct
1624891115.4850001,fixation,1,148,0.295,1.0,NoAct
1624891116.69,stimulus,1,149,,0.0,NoAct
1624891117.2810001,fixation,1,149,0.091,1.0,NoAct
1624891118.69,stimulus,1,150,,0.0,NoAct
1624891119.243,fixation,1,150,0.053,1.0,NoAct
1624891120.69,stimulus,1,151,,0.0,NoAct
1624891121.278,fixation,1,151,0.088,1.0,NoAct
1624891122.69,stimulus,1,152,,0.0,NoAct
1624891123.364,fixation,1,152,0.174,1.0,NoAct
1624891124.69,stimulus,1,153,,0.0,NoAct
1624891125.461,fixation,1,153,0.271,1.0,NoAct
1624891126.69,stimulus,1,154,,0.0,NoAct
1624891127.447,fixation,1,154,0.257,1.0,NoAct
1624891128.69,stimulus,1,155,,0.0,NoAct
1624891129.762,fixation,1,155,0.572,1.0,NoAct
1624891130.69,stimulus,1,156,,0.0,NoAct
1624891131.277,fixation,1,156,0.087,1.0,NoAct
1624891132.69,stimulus,1,157,,0.0,NoAct
1624891133.4,fixation,1,157,0.21,1.0,NoAct
1624891134.69,stimulus,1,158,,0.0,NoAct
1624891135.3140001,fixation,1,158,0.124,1.0,NoAct
1624891136.69,stimulus,1,159,,0.0,NoAct
1624891137.423,fixation,1,159,0.233,1.0,NoAct
1624891138.69,stimulus,1,160,,0.0,NoAct
1624891139.305,fixation,1,160,0.115,1.0,NoAct
1624891140.69,stimulus,1,161,,0.0,NoAct
1624891141.392,fixation,1,161,0.202,1.0,NoAct
1624891142.69,stimulus,1,162,,0.0,NoAct
1624891143.3960001,fixation,1,162,0.206,1.0,NoAct
1624891144.69,stimulus,1,163,,0.0,NoAct
1624891145.371,fixation,1,163,0.181,1.0,NoAct
1624891146.69,stimulus,1,164,,0.0,NoAct
1624891147.287,fixation,1,164,0.097,1.0,NoAct
1624891148.69,stimulus,1,165,,0.0,NoAct
1624891149.394,fixation,1,165,0.204,1.0,NoAct
1624891150.69,stimulus,1,166,,0.0,NoAct
1624891151.226,fixation,1,166,0.036,1.0,NoAct
1624891152.69,stimulus,1,167,,0.0,NoAct
1624891153.285,fixation,1,167,0.095,1.0,NoAct
1624891154.69,stimulus,1,168,,0.0,NoAct
1624891155.2380002,fixation,1,168,0.048,1.0,NoAct
1624891156.69,stimulus,1,169,,0.0,NoAct
1624891157.464,fixation,1,169,0.274,1.0,NoAct
1624891158.69,stimulus,1,170,,0.0,NoAct
1624891159.356,fixation,1,170,0.166,1.0,NoAct
1624891160.69,stimulus,1,171,,0.0,NoAct
1624891161.536,fixation,1,171,0.346,1.0,NoAct
1624891162.69,stimulus,1,172,,0.0,NoAct
1624891163.2840002,fixation,1,172,0.094,1.0,NoAct
1624891164.69,stimulus,1,173,,0.0,NoAct
1624891165.303,fixation,1,173,0.113,1.0,NoAct
1624891166.69,stimulus,1,174,,0.0,NoAct
1624891167.388,fixation,1,174,0.198,1.0,NoAct
1624891168.69,stimulus,1,175,,0.0,NoAct
1624891169.786,fixation,1,175,0.596,0.0,NoAct
1624891170.69,stimulus,1,176,,0.0,NoAct
1624891171.461,fixation,1,176,0.271,1.0,NoAct
1624891172.69,stimulus,1,177,,0.0,NoAct
1624891173.75,fixation,1,177,0.56,1.0,NoAct
1624891174.69,stimulus,1,178,,0.0,NoAct
1624891175.332,fixation,1,178,0.142,1.0,NoAct
1624891176.69,stimulus,1,179,,0.0,NoAct
1624891177.2120001,fixation,1,179,0.022,1.0,NoAct
1624891178.69,stimulus,1,180,,0.0,NoAct
1624891179.4550002,fixation,1,180,0.265,1.0,NoAct
1624891180.69,stimulus,1,181,,0.0,NoAct
1624891181.482,fixation,1,181,0.292,1.0,NoAct
1624891182.69,stimulus,1,182,,0.0,NoAct
1624891183.469,fixation,1,182,0.279,1.0,NoAct
1624891184.69,stimulus,1,183,,0.0,NoAct
1624891185.484,fixation,1,183,0.294,1.0,NoAct
1624891186.69,stimulus,1,184,,0.0,NoAct
1624891187.435,fixation,1,184,0.245,1.0,NoAct
1624891188.69,stimulus,1,185,,0.0,NoAct
1624891189.4420002,fixation,1,185,0.252,1.0,NoAct
1624891190.69,stimulus,1,186,,0.0,NoAct
1624891191.5440001,fixation,1,186,0.354,1.0,NoAct
1624891192.69,stimulus,1,187,,0.0,NoAct
1624891193.3430002,fixation,1,187,0.153,1.0,NoAct
1624891194.69,stimulus,1,188,,0.0,NoAct
1624891195.264,fixation,1,188,0.074,1.0,NoAct
1624891196.69,stimulus,1,189,,0.0,NoAct
1624891197.341,fixation,1,189,0.151,1.0,NoAct
1624891198.69,stimulus,1,190,,0.0,NoAct
1624891199.46,fixation,1,190,0.27,1.0,NoAct
1624891200.69,stimulus,1,191,,0.0,NoAct
1624891201.425,fixation,1,191,0.235,1.0,NoAct
1624891202.69,stimulus,1,192,,0.0,NoAct
1624891203.364,fixation,1,192,0.174,1.0,NoAct
1624891204.69,stimulus,1,193,,0.0,NoAct
1624891205.427,fixation,1,193,0.237,1.0,NoAct
1624891206.69,stimulus,1,194,,0.0,NoAct
1624891207.46,fixation,1,194,0.27,1.0,NoAct
1624891208.69,stimulus,1,195,,0.0,NoAct
1624891209.586,fixation,1,195,0.396,1.0,NoAct
1624891210.69,stimulus,1,196,,0.0,NoAct
1624891211.588,fixation,1,196,0.398,1.0,NoAct
1624891212.69,stimulus,1,197,,0.0,NoAct
1624891213.639,fixation,1,197,0.449,1.0,NoAct
1624891214.69,stimulus,1,198,,0.0,NoAct
1624891215.4550002,fixation,1,198,0.265,1.0,NoAct
1624891216.69,stimulus,1,199,,0.0,NoAct
1624891217.2710001,fixation,1,199,0.081,1.0,NoAct
1624891219.049,stimulus,1,200,0.359,1.0,NoAct
1624891219.19,fixation,1,200,,0.0,NoAct
1624891220.69,stimulus,1,201,,0.0,NoAct
1624891221.4680002,fixation,1,201,0.278,1.0,NoAct
1624891223.106,stimulus,1,202,0.416,1.0,NoAct
1624891223.19,fixation,1,202,,0.0,NoAct
1624891225.083,stimulus,1,203,0.393,1.0,NoAct
1624891225.19,fixation,1,203,,0.0,NoAct
1624891226.69,stimulus,1,204,,0.0,NoAct
1624891227.295,fixation,1,204,0.105,1.0,NoAct
1624891228.69,stimulus,1,205,,0.0,NoAct
1624891229.277,fixation,1,205,0.087,1.0,NoAct
1624891231.142,stimulus,1,206,0.452,1.0,NoAct
1624891231.19,fixation,1,206,,0.0,NoAct
1624891233.168,stimulus,1,207,0.478,1.0,NoAct
1624891233.19,fixation,1,207,,0.0,NoAct
1624891234.69,stimulus,1,208,,0.0,NoAct
1624891235.375,fixation,1,208,0.185,1.0,NoAct
1624891236.69,stimulus,1,209,,0.0,NoAct
1624891237.234,fixation,1,209,0.044,1.0,NoAct
1624891238.69,stimulus,1,210,,0.0,NoAct
1624891239.264,fixation,1,210,0.074,1.0,NoAct
1624891240.69,stimulus,1,211,,0.0,NoAct
1624891241.322,fixation,1,211,0.132,1.0,NoAct
1624891242.69,stimulus,1,212,,0.0,NoAct
1624891243.4060001,fixation,1,212,0.216,1.0,NoAct
1624891244.69,stimulus,1,213,,0.0,NoAct
1624891245.375,fixation,1,213,0.185,1.0,NoAct
1624891246.69,stimulus,1,214,,0.0,NoAct
1624891247.29,fixation,1,214,0.1,1.0,NoAct
1624891248.69,stimulus,1,215,,0.0,NoAct
1624891249.3070002,fixation,1,215,0.117,1.0,NoAct
1624891250.69,stimulus,1,216,,0.0,NoAct
1624891251.2840002,fixation,1,216,0.094,1.0,NoAct
1624891253.167,stimulus,1,217,0.477,0.0,NoAct
1624891253.19,fixation,1,217,,0.0,NoAct
1624891254.69,stimulus,1,218,,0.0,NoAct
1624891255.476,fixation,1,218,0.286,1.0,NoAct
1624891256.69,stimulus,1,219,,0.0,NoAct
1624891257.342,fixation,1,219,0.152,1.0,NoAct
1624891258.69,stimulus,1,220,,0.0,NoAct
1624891259.3040001,fixation,1,220,0.114,1.0,NoAct
1624891260.69,stimulus,1,221,,,NoAct
1624891261.19,fixation,1,221,,,NoAct
1624891262.69,stimulus,1,222,,0.0,NoAct
1624891264.4650002,fixation,1,222,1.275,1.0,NoAct
1624891264.69,stimulus,1,223,,0.0,NoAct
1624891265.868,fixation,1,223,0.678,1.0,NoAct
1624891266.69,stimulus,1,224,,0.0,NoAct
1624891267.464,fixation,1,224,0.274,1.0,NoAct
1624891268.69,stimulus,1,225,,0.0,NoAct
1624891269.5900002,fixation,1,225,0.4,1.0,NoAct
1624891270.69,stimulus,1,226,,0.0,NoAct
1624891271.394,fixation,1,226,0.204,1.0,NoAct
1624891272.69,stimulus,1,227,,0.0,NoAct
1624891273.368,fixation,1,227,0.178,1.0,NoAct
1624891274.69,stimulus,1,228,,0.0,NoAct
1624891275.467,fixation,1,228,0.277,1.0,NoAct
1624891276.69,stimulus,1,229,,0.0,NoAct
1624891278.473,fixation,1,229,1.283,1.0,NoAct
1624891278.69,stimulus,1,230,,0.0,NoAct
1624891280.038,fixation,1,230,0.848,0.0,NoAct
1624891280.69,stimulus,1,231,,0.0,NoAct
1624891281.785,fixation,1,231,0.595,1.0,NoAct
1624891282.69,stimulus,1,232,,0.0,NoAct
1624891283.4290001,fixation,1,232,0.239,1.0,NoAct
1624891284.69,stimulus,1,233,,0.0,NoAct
1624891285.404,fixation,1,233,0.214,0.0,NoAct
1624891286.69,stimulus,1,234,,0.0,NoAct
1624891287.3140001,fixation,1,234,0.124,1.0,NoAct
1624891288.69,stimulus,1,235,,0.0,NoAct
1624891289.302,fixation,1,235,0.112,0.0,NoAct
1624891290.69,stimulus,1,236,,0.0,NoAct
1624891291.2680001,fixation,1,236,0.078,1.0,NoAct
1624891292.69,stimulus,1,237,,0.0,NoAct
1624891293.299,fixation,1,237,0.109,1.0,NoAct
1624891294.69,stimulus,1,238,,0.0,NoAct
1624891295.234,fixation,1,238,0.044,1.0,NoAct
1624891296.69,stimulus,1,239,,0.0,NoAct
1624891297.325,fixation,1,239,0.135,1.0,NoAct
1624891298.69,stimulus,1,240,,0.0,NoAct
1624891299.229,fixation,1,240,0.039,0.0,NoAct
1624891300.69,stimulus,1,241,,0.0,NoAct
1624891301.482,fixation,1,241,0.292,1.0,NoAct
1624891302.69,stimulus,1,242,,0.0,NoAct
1624891303.3200002,fixation,1,242,0.13,1.0,NoAct
1624891304.69,stimulus,1,243,,0.0,NoAct
1624891305.328,fixation,1,243,0.138,1.0,NoAct
1624891306.69,stimulus,1,244,,0.0,NoAct
1624891307.435,fixation,1,244,0.245,1.0,NoAct
1624891308.69,stimulus,1,245,,0.0,NoAct
1624891309.402,fixation,1,245,0.212,1.0,NoAct
1624891310.69,stimulus,1,246,,0.0,NoAct
1624891311.3760002,fixation,1,246,0.186,1.0,NoAct
1624891312.69,stimulus,1,247,,0.0,NoAct
1624891313.54,fixation,1,247,0.35,1.0,NoAct
1624891314.69,stimulus,1,248,,0.0,NoAct
1624891315.273,fixation,1,248,0.083,1.0,NoAct
1624891316.69,stimulus,1,249,,0.0,NoAct
1624891317.3270001,fixation,1,249,0.137,1.0,NoAct
1624891318.69,stimulus,1,250,,0.0,NoAct
1624891319.264,fixation,1,250,0.074,1.0,NoAct
1624891320.69,stimulus,1,251,,0.0,NoAct
1624891321.2610002,fixation,1,251,0.071,1.0,NoAct
1624891322.69,stimulus,1,252,,0.0,NoAct
1624891323.303,fixation,1,252,0.113,1.0,NoAct
1624891324.69,stimulus,1,253,,0.0,NoAct
1624891325.2380002,fixation,1,253,0.048,1.0,NoAct
1624891326.69,stimulus,1,254,,0.0,NoAct
1624891327.243,fixation,1,254,0.053,1.0,NoAct
1624891328.69,stimulus,1,255,,0.0,NoAct
1624891329.273,fixation,1,255,0.083,1.0,NoAct
1624891330.69,stimulus,1,256,,0.0,NoAct
1624891331.4750001,fixation,1,256,0.285,1.0,NoAct
1624891332.69,stimulus,1,257,,0.0,NoAct
1624891333.293,fixation,1,257,0.103,1.0,NoAct
1624891334.69,stimulus,1,258,,0.0,NoAct
1624891335.286,fixation,1,258,0.096,1.0,NoAct
1624891336.69,stimulus,1,259,,0.0,NoAct
1624891337.421,fixation,1,259,0.231,1.0,NoAct
1624891338.69,stimulus,1,260,,0.0,NoAct
1624891339.3660002,fixation,1,260,0.176,1.0,NoAct
1624891340.69,stimulus,1,261,,0.0,NoAct
1624891341.257,fixation,1,261,0.067,1.0,NoAct
1624891342.69,stimulus,1,262,,0.0,NoAct
1624891343.329,fixation,1,262,0.139,1.0,NoAct
1624891344.69,stimulus,1,263,,0.0,NoAct
1624891345.285,fixation,1,263,0.095,1.0,NoAct
1624891346.69,stimulus,1,264,,0.0,NoAct
1624891347.255,fixation,1,264,0.065,0.0,NoAct
1624891348.69,stimulus,1,265,,0.0,NoAct
1624891349.342,fixation,1,265,0.152,1.0,NoAct
1624891350.69,stimulus,1,266,,0.0,NoAct
1624891351.63,fixation,1,266,0.44,1.0,NoAct
1624891352.69,stimulus,1,267,,0.0,NoAct
1624891353.4420002,fixation,1,267,0.252,1.0,NoAct
1624891354.69,stimulus,1,268,,0.0,NoAct
1624891355.545,fixation,1,268,0.355,1.0,NoAct
1624891356.69,stimulus,1,269,,0.0,NoAct
1624891357.3830001,fixation,1,269,0.193,1.0,NoAct
1624891358.69,stimulus,1,270,,0.0,NoAct
1624891359.368,fixation,1,270,0.178,1.0,NoAct
1624891360.69,stimulus,1,271,,0.0,NoAct
1624891361.358,fixation,1,271,0.168,1.0,NoAct
1624891362.69,stimulus,1,272,,0.0,NoAct
1624891363.348,fixation,1,272,0.158,1.0,NoAct
1624891364.69,stimulus,1,273,,0.0,NoAct
1624891365.3,fixation,1,273,0.11,1.0,NoAct
1624891366.69,stimulus,1,274,,0.0,NoAct
1624891367.286,fixation,1,274,0.096,1.0,NoAct
1624891368.69,stimulus,1,275,,0.0,NoAct
1624891369.407,fixation,1,275,0.217,1.0,NoAct
1624891370.69,stimulus,1,276,,0.0,NoAct
1624891371.4060001,fixation,1,276,0.216,1.0,NoAct
1624891372.69,stimulus,1,277,,0.0,NoAct
1624891373.2480001,fixation,1,277,0.058,1.0,NoAct
1624891374.69,stimulus,1,278,,0.0,NoAct
1624891375.4160001,fixation,1,278,0.226,1.0,NoAct
1624891376.69,stimulus,1,279,,0.0,NoAct
1624891377.269,fixation,1,279,0.079,1.0,NoAct
1624891378.69,stimulus,1,280,,0.0,NoAct
1624891379.344,fixation,1,280,0.154,1.0,NoAct
1624891380.69,stimulus,1,281,,0.0,NoAct
1624891381.325,fixation,1,281,0.135,1.0,NoAct
1624891382.69,stimulus,1,282,,0.0,NoAct
1624891383.49,fixation,1,282,0.3,1.0,NoAct
1624891384.69,stimulus,1,283,,0.0,NoAct
1624891385.398,fixation,1,283,0.208,1.0,NoAct
1624891386.69,stimulus,1,284,,0.0,NoAct
1624891387.309,fixation,1,284,0.119,1.0,NoAct
1624891388.69,stimulus,1,285,,0.0,NoAct
1624891389.298,fixation,1,285,0.108,1.0,NoAct
1624891390.69,stimulus,1,286,,0.0,NoAct
1624891391.3370001,fixation,1,286,0.147,1.0,NoAct
1624891392.69,stimulus,1,287,,0.0,NoAct
1624891393.302,fixation,1,287,0.112,1.0,NoAct
1624891394.69,stimulus,1,288,,0.0,NoAct
1624891395.4090002,fixation,1,288,0.219,1.0,NoAct
1624891396.69,stimulus,1,289,,0.0,NoAct
1624891397.276,fixation,1,289,0.086,1.0,NoAct
1624891398.69,stimulus,1,290,,0.0,NoAct
1624891399.5010002,fixation,1,290,0.311,1.0,NoAct
1624891400.69,stimulus,1,291,,0.0,NoAct
1624891401.315,fixation,1,291,0.125,1.0,NoAct
1624891402.69,stimulus,1,292,,0.0,NoAct
1624891403.2120001,fixation,1,292,0.022,1.0,NoAct
1624891404.69,stimulus,1,293,,0.0,NoAct
1624891405.358,fixation,1,293,0.168,1.0,NoAct
1624891407.099,stimulus,1,294,0.409,0.0,NoAct
1624891407.19,fixation,1,294,,0.0,NoAct
1624891409.154,stimulus,1,295,0.464,1.0,NoAct
1624891409.19,fixation,1,295,,0.0,NoAct
1624891411.147,stimulus,1,296,0.457,1.0,NoAct
1624891411.19,fixation,1,296,,0.0,NoAct
1624891412.69,stimulus,1,297,,0.0,NoAct
1624891413.272,fixation,1,297,0.082,1.0,NoAct
1624891414.69,stimulus,1,298,,0.0,NoAct
1624891415.247,fixation,1,298,0.057,1.0,NoAct
1624891416.69,stimulus,1,299,,0.0,NoAct
1624891417.285,fixation,1,299,0.095,1.0,NoAct
1624891418.69,stimulus,1,300,,0.0,NoAct
1624891419.2940001,fixation,1,300,0.104,1.0,NoAct
1624891420.69,stimulus,1,301,,0.0,NoAct
1624891421.372,fixation,1,301,0.182,1.0,NoAct
1624891422.69,stimulus,1,302,,0.0,NoAct
1624891423.289,fixation,1,302,0.099,1.0,NoAct
1624891424.69,stimulus,1,303,,0.0,NoAct
1624891425.2350001,fixation,1,303,0.045,1.0,NoAct
1624891427.186,stimulus,1,304,0.496,1.0,NoAct
1624891427.19,fixation,1,304,,0.0,NoAct
1624891428.69,stimulus,1,305,,0.0,NoAct
1624891429.3500001,fixation,1,305,0.16,1.0,NoAct
1624891431.098,stimulus,1,306,0.408,1.0,NoAct
1624891431.19,fixation,1,306,,0.0,NoAct
1624891433.142,stimulus,1,307,0.452,1.0,NoAct
1624891433.19,fixation,1,307,,0.0,NoAct
1624891435.15,stimulus,1,308,0.46,1.0,NoAct
1624891435.19,fixation,1,308,,0.0,NoAct
1624891436.69,stimulus,1,309,,0.0,NoAct
1624891437.289,fixation,1,309,0.099,1.0,NoAct
1624891438.69,stimulus,1,310,,0.0,NoAct
1624891439.707,fixation,1,310,0.517,1.0,NoAct
1624891441.071,stimulus,1,311,0.381,1.0,NoAct
1624891441.19,fixation,1,311,,0.0,NoAct
1624891443.0110002,stimulus,1,312,0.321,1.0,NoAct
1624891443.19,fixation,1,312,,0.0,NoAct
1624891445.168,stimulus,1,313,0.478,1.0,NoAct
1624891445.19,fixation,1,313,,0.0,NoAct
1624891446.69,stimulus,1,314,,0.0,NoAct
1624891447.21,fixation,1,314,0.02,1.0,NoAct
1624891448.69,stimulus,1,315,,0.0,NoAct
1624891449.23,fixation,1,315,0.04,1.0,NoAct
1624891450.69,stimulus,1,316,,0.0,NoAct
1624891451.289,fixation,1,316,0.099,1.0,NoAct
1624891452.69,stimulus,1,317,,0.0,NoAct
1624891453.2380002,fixation,1,317,0.048,1.0,NoAct
1624891454.69,stimulus,1,318,,0.0,NoAct
1624891455.334,fixation,1,318,0.144,1.0,NoAct
1624891456.69,stimulus,1,319,,0.0,NoAct
1624891457.402,fixation,1,319,0.212,0.0,NoAct
1624891458.69,stimulus,1,320,,0.0,NoAct
1624891459.4190001,fixation,1,320,0.229,1.0,NoAct
1624891460.69,stimulus,1,321,,0.0,NoAct
1624891461.193,fixation,1,321,0.003,1.0,NoAct
1624891462.69,stimulus,1,322,,0.0,NoAct
1624891463.3240001,fixation,1,322,0.134,1.0,NoAct
1624891465.1490002,stimulus,1,323,0.459,1.0,NoAct
1624891465.19,fixation,1,323,,0.0,NoAct
1624891467.151,stimulus,1,324,0.461,1.0,NoAct
1624891467.19,fixation,1,324,,0.0,NoAct
1624891468.69,stimulus,1,325,,0.0,NoAct
1624891469.299,fixation,1,325,0.109,1.0,NoAct
1624891470.69,stimulus,1,326,,0.0,NoAct
1624891471.287,fixation,1,326,0.097,1.0,NoAct
1624891472.69,stimulus,1,327,,0.0,NoAct
1624891473.29,fixation,1,327,0.1,1.0,NoAct
1624891474.69,stimulus,1,328,,0.0,NoAct
1624891475.359,fixation,1,328,0.169,1.0,NoAct
1624891476.69,stimulus,1,329,,0.0,NoAct
1624891477.329,fixation,1,329,0.139,1.0,NoAct
1624891478.69,stimulus,1,330,,0.0,NoAct
1624891479.319,fixation,1,330,0.129,1.0,NoAct
1624891480.69,stimulus,1,331,,0.0,NoAct
1624891481.344,fixation,1,331,0.154,1.0,NoAct
1624891482.69,stimulus,1,332,,0.0,NoAct
1624891483.844,fixation,1,332,0.654,1.0,NoAct
1624891484.69,stimulus,1,333,,0.0,NoAct
1624891485.414,fixation,1,333,0.224,1.0,NoAct
1624891486.69,stimulus,1,334,,0.0,NoAct
1624891487.3530002,fixation,1,334,0.163,1.0,NoAct
1624891488.69,stimulus,1,335,,0.0,NoAct
1624891489.654,fixation,1,335,0.464,1.0,NoAct
1624891490.69,stimulus,1,336,,0.0,NoAct
1624891491.389,fixation,1,336,0.199,1.0,NoAct
1624891492.69,stimulus,1,337,,0.0,NoAct
1624891493.436,fixation,1,337,0.246,1.0,NoAct
1624891494.69,stimulus,1,338,,0.0,NoAct
1624891495.346,fixation,1,338,0.156,1.0,NoAct
1624891496.69,stimulus,1,339,,0.0,NoAct
1624891497.351,fixation,1,339,0.161,0.0,NoAct
1624891498.69,stimulus,1,340,,0.0,NoAct
1624891499.415,fixation,1,340,0.225,1.0,NoAct
1624891500.69,stimulus,1,341,,0.0,NoAct
1624891501.231,fixation,1,341,0.041,1.0,NoAct
1624891502.69,stimulus,1,342,,0.0,NoAct
1624891503.1920002,fixation,1,342,0.002,1.0,NoAct
1624891504.69,stimulus,1,343,,0.0,NoAct
1624891505.242,fixation,1,343,0.052,1.0,NoAct
1624891506.69,stimulus,1,344,,0.0,NoAct
1624891507.2840002,fixation,1,344,0.094,1.0,NoAct
1624891508.69,stimulus,1,345,,0.0,NoAct
1624891509.71,fixation,1,345,0.52,1.0,NoAct
1624891510.69,stimulus,1,346,,0.0,NoAct
1624891511.4880002,fixation,1,346,0.298,1.0,NoAct
1624891512.69,stimulus,1,347,,0.0,NoAct
1624891513.323,fixation,1,347,0.133,1.0,NoAct
1624891514.69,stimulus,1,348,,0.0,NoAct
1624891515.3600001,fixation,1,348,0.17,1.0,NoAct
1624891516.69,stimulus,1,349,,0.0,NoAct
1624891517.326,fixation,1,349,0.136,1.0,NoAct
1624891518.69,stimulus,1,350,,0.0,NoAct
1624891519.726,fixation,1,350,0.536,1.0,NoAct
1624891520.69,stimulus,1,351,,0.0,NoAct
1624891521.55,fixation,1,351,0.36,1.0,NoAct
1624891522.69,stimulus,1,352,,0.0,NoAct
1624891523.404,fixation,1,352,0.214,1.0,NoAct
1624891524.69,stimulus,1,353,,0.0,NoAct
1624891525.397,fixation,1,353,0.207,1.0,NoAct
1624891526.69,stimulus,1,354,,0.0,NoAct
1624891527.997,fixation,1,354,0.807,1.0,NoAct
1624891528.69,stimulus,1,355,,0.0,NoAct
1624891529.2710001,fixation,1,355,0.081,1.0,NoAct
1624891531.165,stimulus,1,356,0.475,1.0,NoAct
1624891531.19,fixation,1,356,,0.0,NoAct
1624891532.69,stimulus,1,357,,0.0,NoAct
1624891533.502,fixation,1,357,0.312,1.0,NoAct
1624891535.186,stimulus,1,358,0.496,1.0,NoAct
1624891535.19,fixation,1,358,,0.0,NoAct
1624891536.69,stimulus,1,359,,0.0,NoAct
1624891537.252,fixation,1,359,0.062,1.0,NoAct
1624891538.69,stimulus,1,360,,0.0,NoAct
1624891539.219,fixation,1,360,0.029,1.0,NoAct
1624891540.69,stimulus,1,361,,0.0,NoAct
1624891541.273,fixation,1,361,0.083,1.0,NoAct
1624891542.69,stimulus,1,362,,0.0,NoAct
1624891543.217,fixation,1,362,0.027,1.0,NoAct
1624891545.094,stimulus,1,363,0.404,1.0,NoAct
1624891545.19,fixation,1,363,,0.0,NoAct
1624891546.69,stimulus,1,364,,0.0,NoAct
1624891547.252,fixation,1,364,0.062,0.0,NoAct
1624891548.69,stimulus,1,365,,0.0,NoAct
1624891549.424,fixation,1,365,0.234,1.0,NoAct
1624891550.69,stimulus,1,366,,0.0,NoAct
1624891551.2580001,fixation,1,366,0.068,1.0,NoAct
1624891552.69,stimulus,1,367,,0.0,NoAct
1624891553.9490001,fixation,1,367,0.759,1.0,NoAct
1624891554.69,stimulus,1,368,,0.0,NoAct
1624891555.466,fixation,1,368,0.276,1.0,NoAct
1624891556.69,stimulus,1,369,,0.0,NoAct
1624891557.359,fixation,1,369,0.169,1.0,NoAct
1624891558.69,stimulus,1,370,,0.0,NoAct
1624891559.42,fixation,1,370,0.23,1.0,NoAct
1624891560.69,stimulus,1,371,,0.0,NoAct
1624891561.295,fixation,1,371,0.105,1.0,NoAct
1624891562.69,stimulus,1,372,,0.0,NoAct
1624891564.05,fixation,1,372,0.86,1.0,NoAct
1624891564.69,stimulus,1,373,,0.0,NoAct
1624891565.392,fixation,1,373,0.202,1.0,NoAct
1624891566.69,stimulus,1,374,,0.0,NoAct
1624891567.2120001,fixation,1,374,0.022,1.0,NoAct
1624891568.69,stimulus,1,375,,0.0,NoAct
1624891569.349,fixation,1,375,0.159,1.0,NoAct
1624891570.69,stimulus,1,376,,0.0,NoAct
1624891571.3070002,fixation,1,376,0.117,1.0,NoAct
1624891572.69,stimulus,1,377,,0.0,NoAct
1624891573.466,fixation,1,377,0.276,1.0,NoAct
1624891574.69,stimulus,1,378,,0.0,NoAct
1624891575.3400002,fixation,1,378,0.15,1.0,NoAct
1624891576.69,stimulus,1,379,,0.0,NoAct
1624891577.374,fixation,1,379,0.184,1.0,NoAct
1624891578.69,stimulus,1,380,,0.0,NoAct
1624891579.503,fixation,1,380,0.313,1.0,NoAct
1624891580.69,stimulus,1,381,,0.0,NoAct
1624891581.5,fixation,1,381,0.31,1.0,NoAct
1624891582.69,stimulus,1,382,,0.0,NoAct
1624891583.344,fixation,1,382,0.154,1.0,NoAct
1624891584.69,stimulus,1,383,,0.0,NoAct
1624891585.289,fixation,1,383,0.099,1.0,NoAct
1624891586.69,stimulus,1,384,,0.0,NoAct
1624891587.3040001,fixation,1,384,0.114,1.0,NoAct
1624891588.69,stimulus,1,385,,0.0,NoAct
1624891589.345,fixation,1,385,0.155,1.0,NoAct
1624891590.69,stimulus,1,386,,0.0,NoAct
1624891591.3830001,fixation,1,386,0.193,1.0,NoAct
1624891592.69,stimulus,1,387,,0.0,NoAct
1624891593.407,fixation,1,387,0.217,1.0,NoAct
1624891594.69,stimulus,1,388,,0.0,NoAct
1624891595.345,fixation,1,388,0.155,1.0,NoAct
1624891596.69,stimulus,1,389,,0.0,NoAct
1624891597.871,fixation,1,389,0.681,1.0,NoAct
1624891598.69,stimulus,1,390,,0.0,NoAct
1624891599.4550002,fixation,1,390,0.265,1.0,NoAct
1624891600.69,stimulus,1,391,,0.0,NoAct
1624891601.219,fixation,1,391,0.029,1.0,NoAct
1624891602.69,stimulus,1,392,,0.0,NoAct
1624891603.206,fixation,1,392,0.016,1.0,NoAct
1624891604.69,stimulus,1,393,,0.0,NoAct
1624891605.296,fixation,1,393,0.106,1.0,NoAct
1624891606.69,stimulus,1,394,,0.0,NoAct
1624891607.209,fixation,1,394,0.019,1.0,NoAct
1624891608.69,stimulus,1,395,,0.0,NoAct
1624891609.303,fixation,1,395,0.113,1.0,NoAct
1624891610.69,stimulus,1,396,,0.0,NoAct
1624891611.355,fixation,1,396,0.165,1.0,NoAct
1624891612.69,stimulus,1,397,,0.0,NoAct
1624891613.265,fixation,1,397,0.075,1.0,NoAct
1624891614.69,stimulus,1,398,,,PerfumeSession
1624891615.19,fixation,1,398,,,PerfumeSession
1624891616.69,stimulus,1,399,,,PerfumeSession
1624891617.19,fixation,1,399,,,PerfumeSession
1624891618.69,stimulus,1,400,,,PerfumeSession
1624891619.19,fixation,1,400,,,PerfumeSession
1624891620.69,stimulus,1,401,,,PerfumeSession
1624891621.19,fixation,1,401,,,PerfumeSession
1624891622.69,stimulus,1,402,,,PerfumeSession
1624891623.19,fixation,1,402,,,PerfumeSession
1624891624.69,stimulus,1,403,,,PerfumeSession
1624891625.19,fixation,1,403,,,PerfumeSession
1624891626.69,stimulus,1,404,,,PerfumeSession
1624891627.19,fixation,1,404,,,PerfumeSession
1624891628.69,stimulus,1,405,,,PerfumeSession
1624891629.19,fixation,1,405,,,PerfumeSession
1624891630.69,stimulus,1,406,,,PerfumeSession
1624891631.19,fixation,1,406,,,PerfumeSession
1624891632.69,stimulus,1,407,,,PerfumeSession
1624891633.19,fixation,1,407,,,PerfumeSession
1624891634.69,stimulus,1,408,,,PerfumeSession
1624891635.19,fixation,1,408,,,PerfumeSession
1624891636.69,stimulus,1,409,,,PerfumeSession
1624891637.19,fixation,1,409,,,PerfumeSession
1624891638.69,stimulus,1,410,,,PerfumeSession
1624891639.19,fixation,1,410,,,PerfumeSession
1624891640.69,stimulus,1,411,,,PerfumeSession
1624891641.19,fixation,1,411,,,PerfumeSession
1624891642.69,stimulus,1,412,,,PerfumeSession
1624891643.19,fixation,1,412,,,PerfumeSession
1624891644.69,stimulus,1,413,,,PerfumeSession
1624891645.19,fixation,1,413,,,PerfumeSession
1624891646.69,stimulus,1,414,,,PerfumeSession
1624891647.19,fixation,1,414,,,PerfumeSession
1624891648.69,stimulus,1,415,,,PerfumeSession
1624891649.19,fixation,1,415,,,PerfumeSession
1624891650.69,stimulus,1,416,,,PerfumeSession
1624891651.19,fixation,1,416,,,PerfumeSession
1624891652.69,stimulus,1,417,,,PerfumeSession
1624891653.19,fixation,1,417,,,PerfumeSession
1624891654.69,stimulus,1,418,,,PerfumeSession
1624891655.19,fixation,1,418,,,PerfumeSession
1624891656.69,stimulus,1,419,,,PerfumeSession
1624891657.19,fixation,1,419,,,PerfumeSession
1624891658.69,stimulus,1,420,,,PerfumeSession
1624891659.19,fixation,1,420,,,PerfumeSession
1624891660.69,stimulus,1,421,,,PerfumeSession
1624891661.19,fixation,1,421,,,PerfumeSession
1624891662.69,stimulus,1,422,,,PerfumeSession
1624891663.19,fixation,1,422,,,PerfumeSession
1624891664.69,stimulus,1,423,,,PerfumeSession
1624891665.19,fixation,1,423,,,PerfumeSession
1624891666.69,stimulus,1,424,,,PerfumeSession
1624891667.19,fixation,1,424,,,PerfumeSession
1624891668.69,stimulus,1,425,,,PerfumeSession
1624891669.19,fixation,1,425,,,PerfumeSession
1624891670.69,stimulus,1,426,,,PerfumeSession
1624891671.19,fixation,1,426,,,PerfumeSession
1624891672.69,stimulus,1,427,,,PerfumeSession
1624891673.19,fixation,1,427,,,PerfumeSession
1624891674.69,stimulus,1,428,,,PerfumeSession
1624891675.19,fixation,1,428,,,PerfumeSession
1624891676.69,stimulus,1,429,,,PerfumeSession
1624891677.19,fixation,1,429,,,PerfumeSession
1624891678.69,stimulus,1,430,,,PerfumeSession
1624891679.19,fixation,1,430,,,PerfumeSession
1624891680.69,stimulus,1,431,,,PerfumeSession
1624891681.19,fixation,1,431,,,PerfumeSession
1624891682.69,stimulus,1,432,,,PerfumeSession
1624891683.19,fixation,1,432,,,PerfumeSession
1624891684.69,stimulus,1,433,,,PerfumeSession
1624891685.19,fixation,1,433,,,PerfumeSession
1624891686.69,stimulus,1,434,,,PerfumeSession
1624891687.19,fixation,1,434,,,PerfumeSession
1624891688.69,stimulus,1,435,,,PerfumeSession
1624891689.19,fixation,1,435,,,PerfumeSession
1624891690.69,stimulus,1,436,,,PerfumeSession
1624891691.19,fixation,1,436,,,PerfumeSession
1624891692.69,stimulus,1,437,,,PerfumeSession
1624891693.19,fixation,1,437,,,PerfumeSession
1624891694.69,stimulus,1,438,,,PerfumeSession
1624891695.19,fixation,1,438,,,PerfumeSession
1624891696.69,stimulus,1,439,,,PerfumeSession
1624891697.19,fixation,1,439,,,PerfumeSession
1624891698.69,stimulus,1,440,,,PerfumeSession
1624891699.19,fixation,1,440,,,PerfumeSession
1624891700.69,stimulus,1,441,,,PerfumeSession
1624891701.19,fixation,1,441,,,PerfumeSession
1624891702.69,stimulus,1,442,,,PerfumeSession
1624891703.19,fixation,1,442,,,PerfumeSession
1624891704.69,stimulus,1,443,,,PerfumeSession
1624891705.19,fixation,1,443,,,PerfumeSession
1624891706.69,stimulus,1,444,,,PerfumeSession
1624891707.19,fixation,1,444,,,PerfumeSession
1624891708.69,stimulus,1,445,,,PerfumeSession
1624891709.19,fixation,1,445,,,PerfumeSession
1624891710.69,stimulus,1,446,,,PerfumeSession
1624891711.19,fixation,1,446,,,PerfumeSession
1624891712.69,stimulus,1,447,,,PerfumeSession
1624891713.19,fixation,1,447,,,PerfumeSession
1624891714.69,stimulus,1,448,,,PerfumeSession
1624891715.19,fixation,1,448,,,PerfumeSession
1624891716.69,stimulus,1,449,,,PerfumeSession
1624891717.19,fixation,1,449,,,PerfumeSession
1624891718.69,stimulus,1,450,,,PerfumeSession
1624891719.19,fixation,1,450,,,PerfumeSession
1624891720.69,stimulus,1,451,,,PerfumeSession
1624891721.19,fixation,1,451,,,PerfumeSession
1624891722.69,stimulus,1,452,,,PerfumeSession
1624891723.19,fixation,1,452,,,PerfumeSession
1624891724.69,stimulus,1,453,,,PerfumeSession
1624891725.19,fixation,1,453,,,PerfumeSession
1624891726.69,stimulus,1,454,,,PerfumeSession
1624891727.19,fixation,1,454,,,PerfumeSession
1624891728.69,stimulus,1,455,,,PerfumeSession
1624891729.19,fixation,1,455,,,PerfumeSession
1624891730.69,stimulus,1,456,,,PerfumeSession
1624891731.19,fixation,1,456,,,PerfumeSession
1624891732.69,stimulus,1,457,,,PerfumeSession
1624891733.19,fixation,1,457,,,PerfumeSession
1624891734.69,stimulus,1,458,,,PerfumeSession
1624891735.19,fixation,1,458,,,PerfumeSession
1624891736.69,stimulus,1,459,,,PerfumeSession
1624891737.19,fixation,1,459,,,PerfumeSession
1624891738.69,stimulus,1,460,,,PerfumeSession
1624891739.19,fixation,1,460,,,PerfumeSession
1624891740.69,stimulus,1,461,,,PerfumeSession
1624891741.19,fixation,1,461,,,PerfumeSession
1624891742.69,stimulus,1,462,,,PerfumeSession
1624891743.19,fixation,1,462,,,PerfumeSession
1624891744.69,stimulus,1,463,,,PerfumeSession
1624891745.19,fixation,1,463,,,PerfumeSession
1624891746.69,stimulus,1,464,,,PerfumeSession
1624891747.19,fixation,1,464,,,PerfumeSession
1624891748.69,stimulus,1,465,,,PerfumeSession
1624891749.19,fixation,1,465,,,PerfumeSession
1624891750.69,stimulus,1,466,,,PerfumeSession
1624891751.19,fixation,1,466,,,PerfumeSession
1624891752.69,stimulus,1,467,,,PerfumeSession
1624891753.19,fixation,1,467,,,PerfumeSession
1624891754.69,stimulus,1,468,,,PerfumeSession
1624891755.19,fixation,1,468,,,PerfumeSession
1624891756.69,stimulus,1,469,,,PerfumeSession
1624891757.19,fixation,1,469,,,PerfumeSession
1624891758.69,stimulus,1,470,,,PerfumeSession
1624891759.19,fixation,1,470,,,PerfumeSession
1624891760.69,stimulus,1,471,,,PerfumeSession
1624891761.19,fixation,1,471,,,PerfumeSession
1624891762.69,stimulus,1,472,,,PerfumeSession
1624891763.19,fixation,1,472,,,PerfumeSession
1624891764.69,stimulus,1,473,,,PerfumeSession
1624891765.19,fixation,1,473,,,PerfumeSession
1624891766.69,stimulus,1,474,,,PerfumeSession
1624891767.19,fixation,1,474,,,PerfumeSession
1624891768.69,stimulus,1,475,,,PerfumeSession
1624891769.19,fixation,1,475,,,PerfumeSession
1624891770.69,stimulus,1,476,,,PerfumeSession
1624891771.19,fixation,1,476,,,PerfumeSession
1624891772.69,stimulus,1,477,,,PerfumeSession
1624891773.19,fixation,1,477,,,PerfumeSession
1624891774.69,stimulus,1,478,,,PerfumeSession
1624891775.19,fixation,1,478,,,PerfumeSession
1624891776.69,stimulus,1,479,,,PerfumeSession
1624891777.19,fixation,1,479,,,PerfumeSession
1624891778.69,stimulus,1,480,,,PerfumeSession
1624891779.19,fixation,1,480,,,PerfumeSession
1624891780.69,stimulus,1,481,,,PerfumeSession
1624891781.19,fixation,1,481,,,PerfumeSession
1624891782.69,stimulus,1,482,,,PerfumeSession
1624891783.19,fixation,1,482,,,PerfumeSession
1624891784.69,stimulus,1,483,,,PerfumeSession
1624891785.19,fixation,1,483,,,PerfumeSession
1624891786.69,stimulus,1,484,,,PerfumeSession
1624891787.19,fixation,1,484,,,PerfumeSession
1624891788.69,stimulus,1,485,,,PerfumeSession
1624891789.19,fixation,1,485,,,PerfumeSession
1624891790.69,stimulus,1,486,,,PerfumeSession
1624891791.19,fixation,1,486,,,PerfumeSession
1624891792.69,stimulus,1,487,,,PerfumeSession
1624891793.19,fixation,1,487,,,PerfumeSession
1624891794.69,stimulus,1,488,,,PerfumeSession
1624891795.19,fixation,1,488,,,PerfumeSession
1624891796.69,stimulus,1,489,,,PerfumeSession
1624891797.19,fixation,1,489,,,PerfumeSession
1624891798.69,stimulus,1,490,,,PerfumeSession
1624891799.19,fixation,1,490,,,PerfumeSession
1624891800.69,stimulus,1,491,,,PerfumeSession
1624891801.19,fixation,1,491,,,PerfumeSession
1624891801.38,stimulus,2,1,,,PracticeSession
1624891801.88,fixation,2,1,,,PracticeSession
1624891802.69,stimulus,1,492,,,PerfumeSession
1624891803.19,fixation,1,492,,,PerfumeSession
1624891803.38,stimulus,2,2,,,PracticeSession
1624891803.88,fixation,2,2,,,PracticeSession
1624891804.69,stimulus,1,493,,,PerfumeSession
1624891805.19,fixation,1,493,,,PerfumeSession
1624891805.38,stimulus,2,3,,,PracticeSession
1624891805.88,fixation,2,3,,,PracticeSession
1624891806.69,stimulus,1,494,,,PerfumeSession
1624891807.19,fixation,1,494,,,PerfumeSession
1624891807.38,stimulus,2,4,,,PracticeSession
1624891807.88,fixation,2,4,,,PracticeSession
1624891808.69,stimulus,1,495,,,PerfumeSession
1624891809.19,fixation,1,495,,,PerfumeSession
1624891809.38,stimulus,2,5,,,PracticeSession
1624891809.88,fixation,2,5,,,PracticeSession
1624891810.69,stimulus,1,496,,,PerfumeSession
1624891811.19,fixation,1,496,,,PerfumeSession
1624891811.38,stimulus,2,6,,,PracticeSession
1624891811.88,fixation,2,6,,,PracticeSession
1624891812.69,stimulus,1,497,,,PerfumeSession
1624891813.19,fixation,1,497,,,PerfumeSession
1624891813.38,stimulus,2,7,,,PracticeSession
1624891813.88,fixation,2,7,,,PracticeSession
1624891814.69,stimulus,1,498,,,PerfumeSession
1624891815.19,fixation,1,498,,,PerfumeSession
1624891815.38,stimulus,2,8,,,PracticeSession
1624891815.88,fixation,2,8,,,PracticeSession
1624891816.69,stimulus,1,499,,,PerfumeSession
1624891817.19,fixation,1,499,,,PerfumeSession
1624891817.38,stimulus,2,9,,,PracticeSession
1624891817.88,fixation,2,9,,,PracticeSession
1624891818.69,stimulus,1,500,,,PerfumeSession
1624891819.19,fixation,1,500,,,PerfumeSession
1624891819.38,stimulus,2,10,,,PracticeSession
1624891819.88,fixation,2,10,,,PracticeSession
1624891820.69,stimulus,1,501,,,PerfumeSession
1624891821.19,fixation,1,501,,,PerfumeSession
1624891821.38,stimulus,2,11,,,PracticeSession
1624891821.88,fixation,2,11,,,PracticeSession
1624891822.69,stimulus,1,502,,,PerfumeSession
1624891823.19,fixation,1,502,,,PerfumeSession
1624891823.38,stimulus,2,12,,,PracticeSession
1624891823.88,fixation,2,12,,,PracticeSession
1624891824.69,stimulus,1,503,,,PerfumeSession
1624891825.19,fixation,1,503,,,PerfumeSession
1624891825.38,stimulus,2,13,,,PracticeSession
1624891825.88,fixation,2,13,,,PracticeSession
1624891826.69,stimulus,1,504,,,PerfumeSession
1624891827.19,fixation,1,504,,,PerfumeSession
1624891827.38,stimulus,2,14,,,PracticeSession
1624891827.88,fixation,2,14,,,PracticeSession
1624891828.69,stimulus,1,505,,,PerfumeSession
1624891829.19,fixation,1,505,,,PerfumeSession
1624891829.38,stimulus,2,15,,,PracticeSession
1624891829.88,fixation,2,15,,,PracticeSession
1624891830.69,stimulus,1,506,,,PerfumeSession
1624891831.19,fixation,1,506,,,PerfumeSession
1624891831.38,stimulus,2,16,,,PracticeSession
1624891831.88,fixation,2,16,,,PracticeSession
1624891832.69,stimulus,1,507,,,PerfumeSession
1624891833.19,fixation,1,507,,,PerfumeSession
1624891833.38,stimulus,2,17,,,PracticeSession
1624891833.88,fixation,2,17,,,PracticeSession
1624891834.69,stimulus,1,508,,,PerfumeSession
1624891835.19,fixation,1,508,,,PerfumeSession
1624891835.38,stimulus,2,18,,,PracticeSession
1624891835.88,fixation,2,18,,,PracticeSession
1624891836.69,stimulus,1,509,,,PerfumeSession
1624891837.19,fixation,1,509,,,PerfumeSession
1624891837.38,stimulus,2,19,,,PracticeSession
1624891837.88,fixation,2,19,,,PracticeSession
1624891838.69,stimulus,1,510,,,PerfumeSession
1624891839.19,fixation,1,510,,,PerfumeSession
1624891839.38,stimulus,2,20,,,PracticeSession
1624891839.88,fixation,2,20,,,PracticeSession
1624891840.69,stimulus,1,511,,,PerfumeSession
1624891841.19,fixation,1,511,,,PerfumeSession
1624891841.38,stimulus,2,21,,,PracticeSession
1624891841.88,fixation,2,21,,,PracticeSession
1624891842.69,stimulus,1,512,,,PerfumeSession
1624891843.19,fixation,1,512,,,PerfumeSession
1624891843.38,stimulus,2,22,,,PracticeSession
1624891843.88,fixation,2,22,,,PracticeSession
1624891844.69,stimulus,1,513,,,PerfumeSession
1624891845.19,fixation,1,513,,,PerfumeSession
1624891845.38,stimulus,2,23,,,PracticeSession
1624891845.88,fixation,2,23,,,PracticeSession
1624891846.69,stimulus,1,514,,,PerfumeSession
1624891847.19,fixation,1,514,,,PerfumeSession
1624891847.38,stimulus,2,24,,,PracticeSession
1624891847.88,fixation,2,24,,,PracticeSession
1624891848.69,stimulus,1,515,,,PerfumeSession
1624891849.19,fixation,1,515,,,PerfumeSession
1624891849.38,stimulus,2,25,,,PracticeSession
1624891849.88,fixation,2,25,,,PracticeSession
1624891850.69,stimulus,1,516,,,PerfumeSession
1624891851.19,fixation,1,516,,,PerfumeSession
1624891851.38,stimulus,2,26,,,PracticeSession
1624891851.88,fixation,2,26,,,PracticeSession
1624891852.69,stimulus,1,517,,,PerfumeSession
1624891853.19,fixation,1,517,,,PerfumeSession
1624891853.38,stimulus,2,27,,,PracticeSession
1624891853.88,fixation,2,27,,,PracticeSession
1624891854.69,stimulus,1,518,,,PerfumeSession
1624891855.19,fixation,1,518,,,PerfumeSession
1624891855.38,stimulus,2,28,,,PracticeSession
1624891855.88,fixation,2,28,,,PracticeSession
1624891856.69,stimulus,1,519,,,PerfumeSession
1624891857.19,fixation,1,519,,,PerfumeSession
1624891857.38,stimulus,2,29,,,PracticeSession
1624891857.88,fixation,2,29,,,PracticeSession
1624891858.69,stimulus,1,520,,,PerfumeSession
1624891859.19,fixation,1,520,,,PerfumeSession
1624891859.38,stimulus,2,30,,,PracticeSession
1624891859.88,fixation,2,30,,,PracticeSession
1624891860.69,stimulus,1,521,,,PerfumeSession
1624891861.19,fixation,1,521,,,PerfumeSession
1624891861.38,stimulus,2,31,,,PracticeSession
1624891861.88,fixation,2,31,,,PracticeSession
1624891862.69,stimulus,1,522,,,PerfumeSession
1624891863.19,fixation,1,522,,,PerfumeSession
1624891863.38,stimulus,2,32,,,PracticeSession
1624891863.88,fixation,2,32,,,PracticeSession
1624891864.69,stimulus,1,523,,,PerfumeSession
1624891865.19,fixation,1,523,,,PerfumeSession
1624891865.38,stimulus,2,33,,,PracticeSession
1624891865.88,fixation,2,33,,,PracticeSession
1624891866.69,stimulus,1,524,,,PerfumeSession
1624891867.19,fixation,1,524,,,PerfumeSession
1624891867.38,stimulus,2,34,,,PracticeSession
1624891867.88,fixation,2,34,,,PracticeSession
1624891868.69,stimulus,1,525,,,PerfumeSession
1624891869.19,fixation,1,525,,,PerfumeSession
1624891869.38,stimulus,2,35,,,PracticeSession
1624891869.88,fixation,2,35,,,PracticeSession
1624891870.69,stimulus,1,526,,,PerfumeSession
1624891871.19,fixation,1,526,,,PerfumeSession
1624891871.38,stimulus,2,36,,,PracticeSession
1624891871.88,fixation,2,36,,,PracticeSession
1624891872.69,stimulus,1,527,,,PerfumeSession
1624891873.19,fixation,1,527,,,PerfumeSession
1624891873.38,stimulus,2,37,,,PracticeSession
1624891873.88,fixation,2,37,,,PracticeSession
1624891874.69,stimulus,1,528,,,PerfumeSession
1624891875.19,fixation,1,528,,,PerfumeSession
1624891875.38,stimulus,2,38,,,PracticeSession
1624891875.88,fixation,2,38,,,PracticeSession
1624891876.69,stimulus,1,529,,,PerfumeSession
1624891877.19,fixation,1,529,,,PerfumeSession
1624891877.38,stimulus,2,39,,,PracticeSession
1624891877.88,fixation,2,39,,,PracticeSession
1624891878.69,stimulus,1,530,,,PerfumeSession
1624891879.19,fixation,1,530,,,PerfumeSession
1624891879.38,stimulus,2,40,,,PracticeSession
1624891879.88,fixation,2,40,,,PracticeSession
1624891880.69,stimulus,1,531,,,PerfumeSession
1624891881.19,fixation,1,531,,,PerfumeSession
1624891881.38,stimulus,2,41,,,PracticeSession
1624891881.88,fixation,2,41,,,PracticeSession
1624891882.69,stimulus,1,532,,,PerfumeSession
1624891883.19,fixation,1,532,,,PerfumeSession
1624891883.38,stimulus,2,42,,,PracticeSession
1624891883.88,fixation,2,42,,,PracticeSession
1624891884.69,stimulus,1,533,,,PerfumeSession
1624891885.19,fixation,1,533,,,PerfumeSession
1624891885.38,stimulus,2,43,,,PracticeSession
1624891885.88,fixation,2,43,,,PracticeSession
1624891886.69,stimulus,1,534,,,PerfumeSession
1624891887.19,fixation,1,534,,,PerfumeSession
1624891887.38,stimulus,2,44,,,PracticeSession
1624891887.88,fixation,2,44,,,PracticeSession
1624891888.69,stimulus,1,535,,,PerfumeSession
1624891889.19,fixation,1,535,,,PerfumeSession
1624891889.38,stimulus,2,45,,,NoAct
1624891889.88,fixation,2,45,,,NoAct
1624891890.69,stimulus,1,536,,,PerfumeSession
1624891891.19,fixation,1,536,,,PerfumeSession
1624891891.38,stimulus,2,46,,,NoAct
1624891891.88,fixation,2,46,,,NoAct
1624891892.69,stimulus,1,537,,,PerfumeSession
1624891893.19,fixation,1,537,,,PerfumeSession
1624891893.38,stimulus,2,47,,,NoAct
1624891893.88,fixation,2,47,,,NoAct
1624891894.69,stimulus,1,538,,,PerfumeSession
1624891895.19,fixation,1,538,,,PerfumeSession
1624891895.38,stimulus,2,48,,,NoAct
1624891895.88,fixation,2,48,,,NoAct
1624891896.69,stimulus,1,539,,,PerfumeSession
1624891897.19,fixation,1,539,,,PerfumeSession
1624891897.38,stimulus,2,49,,,NoAct
1624891897.88,fixation,2,49,,,NoAct
1624891898.69,stimulus,1,540,,,PerfumeSession
1624891899.19,fixation,1,540,,,PerfumeSession
1624891899.38,stimulus,2,50,,,NoAct
1624891899.88,fixation,2,50,,,NoAct
1624891900.69,stimulus,1,541,,,PerfumeSession
1624891901.19,fixation,1,541,,,PerfumeSession
1624891901.38,stimulus,2,51,,,NoAct
1624891901.88,fixation,2,51,,,NoAct
1624891902.69,stimulus,1,542,,,PerfumeSession
1624891903.19,fixation,1,542,,,PerfumeSession
1624891903.38,stimulus,2,52,,,NoAct
1624891903.88,fixation,2,52,,,NoAct
1624891904.69,stimulus,1,543,,,PerfumeSession
1624891905.19,fixation,1,543,,,PerfumeSession
1624891905.38,stimulus,2,53,,,NoAct
1624891905.88,fixation,2,53,,,NoAct
1624891906.69,stimulus,1,544,,,PerfumeSession
1624891907.19,fixation,1,544,,,PerfumeSession
1624891907.38,stimulus,2,54,,,NoAct
1624891907.88,fixation,2,54,,,NoAct
1624891908.69,stimulus,1,545,,,PerfumeSession
1624891909.19,fixation,1,545,,,PerfumeSession
1624891909.38,stimulus,2,55,,,NoAct
1624891909.88,fixation,2,55,,,NoAct
1624891910.69,stimulus,1,546,,,PerfumeSession
1624891911.19,fixation,1,546,,,PerfumeSession
1624891911.38,stimulus,2,56,,,NoAct
1624891911.88,fixation,2,56,,,NoAct
1624891912.69,stimulus,1,547,,,PerfumeSession
1624891913.19,fixation,1,547,,,PerfumeSession
1624891913.38,stimulus,2,57,,,NoAct
1624891913.88,fixation,2,57,,,NoAct
1624891914.69,stimulus,1,548,,,PerfumeSession
1624891915.19,fixation,1,548,,,PerfumeSession
1624891915.38,stimulus,2,58,,,NoAct
1624891915.88,fixation,2,58,,,NoAct
1624891916.69,stimulus,1,549,,,PerfumeSession
1624891917.19,fixation,1,549,,,PerfumeSession
1624891917.38,stimulus,2,59,,,NoAct
1624891917.88,fixation,2,59,,,NoAct
1624891918.69,stimulus,1,550,,,PerfumeSession
1624891919.19,fixation,1,550,,,PerfumeSession
1624891919.38,stimulus,2,60,,,NoAct
1624891919.88,fixation,2,60,,,NoAct
1624891920.69,stimulus,1,551,,,PerfumeSession
1624891921.19,fixation,1,551,,,PerfumeSession
1624891921.38,stimulus,2,61,,,NoAct
1624891921.88,fixation,2,61,,,NoAct
1624891922.69,stimulus,1,552,,,PerfumeSession
1624891923.19,fixation,1,552,,,PerfumeSession
1624891923.38,stimulus,2,62,,,NoAct
1624891923.88,fixation,2,62,,,NoAct
1624891924.69,stimulus,1,553,,,PerfumeSession
1624891925.19,fixation,1,553,,,PerfumeSession
1624891925.38,stimulus,2,63,,,NoAct
1624891925.88,fixation,2,63,,,NoAct
1624891926.69,stimulus,1,554,,,PerfumeSession
1624891927.19,fixation,1,554,,,PerfumeSession
1624891927.38,stimulus,2,64,,,NoAct
1624891927.88,fixation,2,64,,,NoAct
1624891928.69,stimulus,1,555,,,PerfumeSession
1624891929.19,fixation,1,555,,,PerfumeSession
1624891929.38,stimulus,2,65,,,NoAct
1624891929.88,fixation,2,65,,,NoAct
1624891930.69,stimulus,1,556,,,PerfumeSession
1624891931.19,fixation,1,556,,,PerfumeSession
1624891931.38,stimulus,2,66,,,NoAct
1624891931.88,fixation,2,66,,,NoAct
1624891932.69,stimulus,1,557,,,PerfumeSession
1624891933.19,fixation,1,557,,,PerfumeSession
1624891933.38,stimulus,2,67,,,NoAct
1624891933.88,fixation,2,67,,,NoAct
1624891934.69,stimulus,1,558,,,PerfumeSession
1624891935.19,fixation,1,558,,,PerfumeSession
1624891935.38,stimulus,2,68,,,NoAct
1624891935.88,fixation,2,68,,,NoAct
1624891936.69,stimulus,1,559,,,PerfumeSession
1624891937.19,fixation,1,559,,,PerfumeSession
1624891937.38,stimulus,2,69,,,NoAct
1624891937.88,fixation,2,69,,,NoAct
1624891938.69,stimulus,1,560,,,PerfumeSession
1624891939.19,fixation,1,560,,,PerfumeSession
1624891939.38,stimulus,2,70,,,NoAct
1624891939.88,fixation,2,70,,,NoAct
1624891940.69,stimulus,1,561,,,PerfumeSession
1624891941.19,fixation,1,561,,,PerfumeSession
1624891941.38,stimulus,2,71,,,NoAct
1624891941.88,fixation,2,71,,,NoAct
1624891942.69,stimulus,1,562,,,PerfumeSession
1624891943.19,fixation,1,562,,,PerfumeSession
1624891943.38,stimulus,2,72,,,NoAct
1624891943.88,fixation,2,72,,,NoAct
1624891944.69,stimulus,1,563,,,PerfumeSession
1624891945.19,fixation,1,563,,,PerfumeSession
1624891945.38,stimulus,2,73,,,NoAct
1624891945.88,fixation,2,73,,,NoAct
1624891946.69,stimulus,1,564,,,PerfumeSession
1624891947.19,fixation,1,564,,,PerfumeSession
1624891947.38,stimulus,2,74,,,NoAct
1624891947.88,fixation,2,74,,,NoAct
1624891948.69,stimulus,1,565,,,PerfumeSession
1624891949.19,fixation,1,565,,,PerfumeSession
1624891949.38,stimulus,2,75,,,NoAct
1624891949.88,fixation,2,75,,,NoAct
1624891950.69,stimulus,1,566,,,PerfumeSession
1624891951.19,fixation,1,566,,,PerfumeSession
1624891951.38,stimulus,2,76,,,NoAct
1624891951.88,fixation,2,76,,,NoAct
1624891952.69,stimulus,1,567,,,PerfumeSession
1624891953.19,fixation,1,567,,,PerfumeSession
1624891953.38,stimulus,2,77,,,NoAct
1624891953.88,fixation,2,77,,,NoAct
1624891954.69,stimulus,1,568,,,PerfumeSession
1624891955.19,fixation,1,568,,,PerfumeSession
1624891955.38,stimulus,2,78,,,NoAct
1624891955.88,fixation,2,78,,,NoAct
1624891956.69,stimulus,1,569,,,PerfumeSession
1624891957.19,fixation,1,569,,,PerfumeSession
1624891957.38,stimulus,2,79,,,NoAct
1624891957.88,fixation,2,79,,,NoAct
1624891958.69,stimulus,1,570,,,PerfumeSession
1624891959.19,fixation,1,570,,,PerfumeSession
1624891959.38,stimulus,2,80,,,NoAct
1624891959.88,fixation,2,80,,,NoAct
1624891960.69,stimulus,1,571,,,PerfumeSession
1624891961.19,fixation,1,571,,,PerfumeSession
1624891961.38,stimulus,2,81,,,NoAct
1624891961.88,fixation,2,81,,,NoAct
1624891962.69,stimulus,1,572,,,PerfumeSession
1624891963.19,fixation,1,572,,,PerfumeSession
1624891963.38,stimulus,2,82,,,NoAct
1624891963.88,fixation,2,82,,,NoAct
1624891964.69,stimulus,1,573,,,PerfumeSession
1624891965.19,fixation,1,573,,,PerfumeSession
1624891965.38,stimulus,2,83,,,NoAct
1624891965.88,fixation,2,83,,,NoAct
1624891966.69,stimulus,1,574,,,PerfumeSession
1624891967.19,fixation,1,574,,,PerfumeSession
1624891967.38,stimulus,2,84,,,NoAct
1624891967.88,fixation,2,84,,,NoAct
1624891968.69,stimulus,1,575,,,PerfumeSession
1624891969.19,fixation,1,575,,,PerfumeSession
1624891969.38,stimulus,2,85,,,NoAct
1624891969.88,fixation,2,85,,,NoAct
1624891970.69,stimulus,1,576,,,PerfumeSession
1624891971.19,fixation,1,576,,,PerfumeSession
1624891971.38,stimulus,2,86,,,NoAct
1624891971.88,fixation,2,86,,,NoAct
1624891972.69,stimulus,1,577,,,PerfumeSession
1624891973.19,fixation,1,577,,,PerfumeSession
1624891973.38,stimulus,2,87,,,NoAct
1624891973.88,fixation,2,87,,,NoAct
1624891974.69,stimulus,1,578,,,PerfumeSession
1624891975.19,fixation,1,578,,,PerfumeSession
1624891975.38,stimulus,2,88,,,NoAct
1624891975.88,fixation,2,88,,,NoAct
1624891976.69,stimulus,1,579,,,PerfumeSession
1624891977.19,fixation,1,579,,,PerfumeSession
1624891977.38,stimulus,2,89,,,NoAct
1624891977.88,fixation,2,89,,,NoAct
1624891978.69,stimulus,1,580,,,PerfumeSession
1624891979.19,fixation,1,580,,,PerfumeSession
1624891979.38,stimulus,2,90,,,NoAct
1624891979.88,fixation,2,90,,,NoAct
1624891980.69,stimulus,1,581,,,PerfumeSession
1624891981.19,fixation,1,581,,,PerfumeSession
1624891981.38,stimulus,2,91,,,NoAct
1624891981.88,fixation,2,91,,,NoAct
1624891982.69,stimulus,1,582,,,PerfumeSession
1624891983.19,fixation,1,582,,,PerfumeSession
1624891983.38,stimulus,2,92,,,NoAct
1624891983.88,fixation,2,92,,,NoAct
1624891984.69,stimulus,1,583,,,PerfumeSession
1624891985.19,fixation,1,583,,,PerfumeSession
1624891985.38,stimulus,2,93,,,NoAct
1624891985.88,fixation,2,93,,,NoAct
1624891986.69,stimulus,1,584,,,PerfumeSession
1624891987.19,fixation,1,584,,,PerfumeSession
1624891987.38,stimulus,2,94,,,NoAct
1624891987.88,fixation,2,94,,,NoAct
1624891988.69,stimulus,1,585,,,PerfumeSession
1624891989.19,fixation,1,585,,,PerfumeSession
1624891989.38,stimulus,2,95,,,NoAct
1624891989.88,fixation,2,95,,,NoAct
1624891990.69,stimulus,1,586,,,PerfumeSession
1624891991.19,fixation,1,586,,,PerfumeSession
1624891991.38,stimulus,2,96,,,NoAct
1624891991.88,fixation,2,96,,,NoAct
1624891992.69,stimulus,1,587,,,PerfumeSession
1624891993.19,fixation,1,587,,,PerfumeSession
1624891993.38,stimulus,2,97,,,NoAct
1624891993.88,fixation,2,97,,,NoAct
1624891994.69,stimulus,1,588,,,PerfumeSession
1624891995.19,fixation,1,588,,,PerfumeSession
1624891995.38,stimulus,2,98,,,NoAct
1624891995.88,fixation,2,98,,,NoAct
1624891996.69,stimulus,1,589,,,PerfumeSession
1624891997.19,fixation,1,589,,,PerfumeSession
1624891997.38,stimulus,2,99,,,NoAct
1624891997.88,fixation,2,99,,,NoAct
1624891998.69,stimulus,1,590,,,PerfumeSession
1624891999.19,fixation,1,590,,,PerfumeSession
1624891999.38,stimulus,2,100,,,NoAct
1624891999.88,fixation,2,100,,,NoAct
1624892000.69,stimulus,1,591,,,PerfumeSession
1624892001.19,fixation,1,591,,,PerfumeSession
1624892001.38,stimulus,2,101,,,NoAct
1624892001.88,fixation,2,101,,,NoAct
1624892002.69,stimulus,1,592,,,PerfumeSession
1624892003.19,fixation,1,592,,,PerfumeSession
1624892003.38,stimulus,2,102,,,NoAct
1624892003.88,fixation,2,102,,,NoAct
1624892004.69,stimulus,1,593,,,PerfumeSession
1624892005.19,fixation,1,593,,,PerfumeSession
1624892005.38,stimulus,2,103,,,NoAct
1624892005.88,fixation,2,103,,,NoAct
1624892006.69,stimulus,1,594,,,PerfumeSession
1624892007.19,fixation,1,594,,,PerfumeSession
1624892007.38,stimulus,2,104,,,NoAct
1624892007.88,fixation,2,104,,,NoAct
1624892008.69,stimulus,1,595,,,PerfumeSession
1624892009.19,fixation,1,595,,,PerfumeSession
1624892009.38,stimulus,2,105,,,NoAct
1624892009.88,fixation,2,105,,,NoAct
1624892010.69,stimulus,1,596,,,PerfumeSession
1624892011.19,fixation,1,596,,,PerfumeSession
1624892011.38,stimulus,2,106,,,NoAct
1624892011.88,fixation,2,106,,,NoAct
1624892012.69,stimulus,1,597,,,PerfumeSession
1624892013.19,fixation,1,597,,,PerfumeSession
1624892013.38,stimulus,2,107,,,NoAct
1624892013.88,fixation,2,107,,,NoAct
1624892014.69,stimulus,1,598,,,PerfumeSession
1624892015.19,fixation,1,598,,,PerfumeSession
1624892015.38,stimulus,2,108,,,NoAct
1624892015.88,fixation,2,108,,,NoAct
1624892016.69,stimulus,1,599,,,PerfumeSession
1624892017.19,fixation,1,599,,,PerfumeSession
1624892017.38,stimulus,2,109,,,NoAct
1624892017.88,fixation,2,109,,,NoAct
1624892018.69,stimulus,1,600,,,PerfumeSession
1624892019.19,fixation,1,600,,,PerfumeSession
1624892019.38,stimulus,2,110,,,NoAct
1624892019.88,fixation,2,110,,,NoAct
1624892020.69,stimulus,1,601,,,PerfumeSession
1624892021.19,fixation,1,601,,,PerfumeSession
1624892021.38,stimulus,2,111,,,NoAct
1624892021.88,fixation,2,111,,,NoAct
1624892022.69,stimulus,1,602,,,PerfumeSession
1624892023.19,fixation,1,602,,,PerfumeSession
1624892023.38,stimulus,2,112,,,NoAct
1624892023.88,fixation,2,112,,,NoAct
1624892024.69,stimulus,1,603,,,PerfumeSession
1624892025.19,fixation,1,603,,,PerfumeSession
1624892025.38,stimulus,2,113,,,NoAct
1624892025.88,fixation,2,113,,,NoAct
1624892026.69,stimulus,1,604,,,PerfumeSession
1624892027.19,fixation,1,604,,,PerfumeSession
1624892027.38,stimulus,2,114,,,NoAct
1624892027.88,fixation,2,114,,,NoAct
1624892028.69,stimulus,1,605,,,PerfumeSession
1624892029.19,fixation,1,605,,,PerfumeSession
1624892029.38,stimulus,2,115,,,NoAct
1624892029.88,fixation,2,115,,,NoAct
1624892030.69,stimulus,1,606,,,PerfumeSession
1624892031.19,fixation,1,606,,,PerfumeSession
1624892031.38,stimulus,2,116,,,NoAct
1624892031.88,fixation,2,116,,,NoAct
1624892032.69,stimulus,1,607,,,PerfumeSession
1624892033.19,fixation,1,607,,,PerfumeSession
1624892033.38,stimulus,2,117,,,NoAct
1624892033.88,fixation,2,117,,,NoAct
1624892034.69,stimulus,1,608,,,PerfumeSession
1624892035.19,fixation,1,608,,,PerfumeSession
1624892035.38,stimulus,2,118,,,NoAct
1624892035.88,fixation,2,118,,,NoAct
1624892036.69,stimulus,1,609,,,PerfumeSession
1624892037.19,fixation,1,609,,,PerfumeSession
1624892037.38,stimulus,2,119,,,NoAct
1624892037.88,fixation,2,119,,,NoAct
1624892038.69,stimulus,1,610,,,PerfumeSession
1624892039.19,fixation,1,610,,,PerfumeSession
1624892039.38,stimulus,2,120,,,NoAct
1624892039.88,fixation,2,120,,,NoAct
1624892040.69,stimulus,1,611,,,PerfumeSession
1624892041.19,fixation,1,611,,,PerfumeSession
1624892041.38,stimulus,2,121,,,NoAct
1624892041.88,fixation,2,121,,,NoAct
1624892042.69,stimulus,1,612,,,PerfumeSession
1624892043.19,fixation,1,612,,,PerfumeSession
1624892043.38,stimulus,2,122,,,NoAct
1624892043.88,fixation,2,122,,,NoAct
1624892044.69,stimulus,1,613,,,PerfumeSession
1624892045.19,fixation,1,613,,,PerfumeSession
1624892045.38,stimulus,2,123,,,NoAct
1624892045.88,fixation,2,123,,,NoAct
1624892046.69,stimulus,1,614,,,PerfumeSession
1624892047.19,fixation,1,614,,,PerfumeSession
1624892047.38,stimulus,2,124,,,NoAct
1624892047.88,fixation,2,124,,,NoAct
1624892048.69,stimulus,1,615,,,PerfumeSession
1624892049.19,fixation,1,615,,,PerfumeSession
1624892049.38,stimulus,2,125,,,NoAct
1624892049.88,fixation,2,125,,,NoAct
1624892050.69,stimulus,1,616,,,PerfumeSession
1624892051.19,fixation,1,616,,,PerfumeSession
1624892051.38,stimulus,2,126,,,NoAct
1624892051.88,fixation,2,126,,,NoAct
1624892052.69,stimulus,1,617,,,PerfumeSession
1624892053.19,fixation,1,617,,,PerfumeSession
1624892053.38,stimulus,2,127,,,NoAct
1624892053.88,fixation,2,127,,,NoAct
1624892054.69,stimulus,1,618,,,PerfumeSession
1624892055.19,fixation,1,618,,,PerfumeSession
1624892055.38,stimulus,2,128,,,NoAct
1624892055.88,fixation,2,128,,,NoAct
1624892056.69,stimulus,1,619,,,PerfumeSession
1624892057.19,fixation,1,619,,,PerfumeSession
1624892057.38,stimulus,2,129,,,NoAct
1624892057.88,fixation,2,129,,,NoAct
1624892058.69,stimulus,1,620,,,PerfumeSession
1624892059.19,fixation,1,620,,,PerfumeSession
1624892059.38,stimulus,2,130,,,NoAct
1624892059.88,fixation,2,130,,,NoAct
1624892060.69,stimulus,1,621,,,PerfumeSession
1624892061.19,fixation,1,621,,,PerfumeSession
1624892061.38,stimulus,2,131,,,NoAct
1624892061.88,fixation,2,131,,,NoAct
1624892062.69,stimulus,1,622,,,PerfumeSession
1624892063.19,fixation,1,622,,,PerfumeSession
1624892063.38,stimulus,2,132,,,NoAct
1624892063.88,fixation,2,132,,,NoAct
1624892064.69,stimulus,1,623,,,PerfumeSession
1624892065.19,fixation,1,623,,,PerfumeSession
1624892065.38,stimulus,2,133,,,NoAct
1624892065.88,fixation,2,133,,,NoAct
1624892066.69,stimulus,1,624,,,PerfumeSession
1624892067.19,fixation,1,624,,,PerfumeSession
1624892067.38,stimulus,2,134,,,NoAct
1624892067.88,fixation,2,134,,,NoAct
1624892068.69,stimulus,1,625,,,PerfumeSession
1624892069.19,fixation,1,625,,,PerfumeSession
1624892069.38,stimulus,2,135,,,NoAct
1624892069.88,fixation,2,135,,,NoAct
1624892070.69,stimulus,1,626,,,PerfumeSession
1624892071.19,fixation,1,626,,,PerfumeSession
1624892071.38,stimulus,2,136,,,NoAct
1624892071.88,fixation,2,136,,,NoAct
1624892072.69,stimulus,1,627,,,PerfumeSession
1624892073.19,fixation,1,627,,,PerfumeSession
1624892073.38,stimulus,2,137,,,NoAct
1624892073.88,fixation,2,137,,,NoAct
1624892074.69,stimulus,1,628,,,PerfumeSession
1624892075.19,fixation,1,628,,,PerfumeSession
1624892075.38,stimulus,2,138,,,NoAct
1624892075.88,fixation,2,138,,,NoAct
1624892076.69,stimulus,1,629,,,PerfumeSession
1624892077.19,fixation,1,629,,,PerfumeSession
1624892077.38,stimulus,2,139,,,NoAct
1624892077.88,fixation,2,139,,,NoAct
1624892078.69,stimulus,1,630,,,PerfumeSession
1624892079.19,fixation,1,630,,,PerfumeSession
1624892079.38,stimulus,2,140,,,NoAct
1624892079.88,fixation,2,140,,,NoAct
1624892080.69,stimulus,1,631,,,PerfumeSession
1624892081.19,fixation,1,631,,,PerfumeSession
1624892081.38,stimulus,2,141,,,NoAct
1624892081.88,fixation,2,141,,,NoAct
1624892082.69,stimulus,1,632,,,PerfumeSession
1624892083.19,fixation,1,632,,,PerfumeSession
1624892083.38,stimulus,2,142,,,NoAct
1624892083.88,fixation,2,142,,,NoAct
1624892084.69,stimulus,1,633,,,PerfumeSession
1624892085.19,fixation,1,633,,,PerfumeSession
1624892085.38,stimulus,2,143,,,NoAct
1624892085.88,fixation,2,143,,,NoAct
1624892086.69,stimulus,1,634,,,PerfumeSession
1624892087.19,fixation,1,634,,,PerfumeSession
1624892087.38,stimulus,2,144,,,NoAct
1624892087.88,fixation,2,144,,,NoAct
1624892088.69,stimulus,1,635,,,PerfumeSession
1624892089.19,fixation,1,635,,,PerfumeSession
1624892089.38,stimulus,2,145,,,NoAct
1624892089.88,fixation,2,145,,,NoAct
1624892090.69,stimulus,1,636,,,PerfumeSession
1624892091.19,fixation,1,636,,,PerfumeSession
1624892091.38,stimulus,2,146,,,NoAct
1624892091.88,fixation,2,146,,,NoAct
1624892092.69,stimulus,1,637,,,PerfumeSession
1624892093.19,fixation,1,637,,,PerfumeSession
1624892093.38,stimulus,2,147,,,NoAct
1624892093.88,fixation,2,147,,,NoAct
1624892094.69,stimulus,1,638,,,PerfumeSession
1624892095.19,fixation,1,638,,,PerfumeSession
1624892095.38,stimulus,2,148,,,NoAct
1624892095.88,fixation,2,148,,,NoAct
1624892096.69,stimulus,1,639,,,PerfumeSession
1624892097.19,fixation,1,639,,,PerfumeSession
1624892097.38,stimulus,2,149,,,NoAct
1624892097.88,fixation,2,149,,,NoAct
1624892098.69,stimulus,1,640,,,PerfumeSession
1624892099.19,fixation,1,640,,,PerfumeSession
1624892099.38,stimulus,2,150,,,NoAct
1624892099.88,fixation,2,150,,,NoAct
1624892100.69,stimulus,1,641,,,PerfumeSession
1624892101.19,fixation,1,641,,,PerfumeSession
1624892101.38,stimulus,2,151,,,NoAct
1624892101.88,fixation,2,151,,,NoAct
1624892102.69,stimulus,1,642,,,PerfumeSession
1624892103.19,fixation,1,642,,,PerfumeSession
1624892103.38,stimulus,2,152,,,NoAct
1624892103.88,fixation,2,152,,,NoAct
1624892104.69,stimulus,1,643,,,PerfumeSession
1624892105.19,fixation,1,643,,,PerfumeSession
1624892105.38,stimulus,2,153,,,NoAct
1624892105.88,fixation,2,153,,,NoAct
1624892106.69,stimulus,1,644,,,PerfumeSession
1624892107.19,fixation,1,644,,,PerfumeSession
1624892107.38,stimulus,2,154,,,NoAct
1624892107.88,fixation,2,154,,,NoAct
1624892108.69,stimulus,1,645,,,PerfumeSession
1624892109.19,fixation,1,645,,,PerfumeSession
1624892109.38,stimulus,2,155,,,NoAct
1624892109.88,fixation,2,155,,,NoAct
1624892110.69,stimulus,1,646,,,PerfumeSession
1624892111.19,fixation,1,646,,,PerfumeSession
1624892111.38,stimulus,2,156,,,NoAct
1624892111.88,fixation,2,156,,,NoAct
1624892112.69,stimulus,1,647,,,PerfumeSession
1624892113.19,fixation,1,647,,,PerfumeSession
1624892113.38,stimulus,2,157,,,NoAct
1624892113.88,fixation,2,157,,,NoAct
1624892114.69,stimulus,1,648,,,PerfumeSession
1624892115.19,fixation,1,648,,,PerfumeSession
1624892115.38,stimulus,2,158,,,NoAct
1624892115.88,fixation,2,158,,,NoAct
1624892116.69,stimulus,1,649,,,PerfumeSession
1624892117.19,fixation,1,649,,,PerfumeSession
1624892117.38,stimulus,2,159,,,NoAct
1624892117.88,fixation,2,159,,,NoAct
1624892118.69,stimulus,1,650,,,PerfumeSession
1624892119.19,fixation,1,650,,,PerfumeSession
1624892119.38,stimulus,2,160,,,NoAct
1624892119.88,fixation,2,160,,,NoAct
1624892120.69,stimulus,1,651,,,PerfumeSession
1624892121.19,fixation,1,651,,,PerfumeSession
1624892121.38,stimulus,2,161,,,NoAct
1624892121.88,fixation,2,161,,,NoAct
1624892122.69,stimulus,1,652,,,PerfumeSession
1624892123.19,fixation,1,652,,,PerfumeSession
1624892123.38,stimulus,2,162,,,NoAct
1624892123.88,fixation,2,162,,,NoAct
1624892124.69,stimulus,1,653,,,PerfumeSession
1624892125.19,fixation,1,653,,,PerfumeSession
1624892125.38,stimulus,2,163,,,NoAct
1624892125.88,fixation,2,163,,,NoAct
1624892126.69,stimulus,1,654,,,PerfumeSession
1624892127.19,fixation,1,654,,,PerfumeSession
1624892127.38,stimulus,2,164,,,NoAct
1624892127.88,fixation,2,164,,,NoAct
1624892128.69,stimulus,1,655,,,PerfumeSession
1624892129.19,fixation,1,655,,,PerfumeSession
1624892129.38,stimulus,2,165,,,NoAct
1624892129.88,fixation,2,165,,,NoAct
1624892130.69,stimulus,1,656,,,PerfumeSession
1624892131.19,fixation,1,656,,,PerfumeSession
1624892131.38,stimulus,2,166,,,NoAct
1624892131.88,fixation,2,166,,,NoAct
1624892132.69,stimulus,1,657,,,PerfumeSession
1624892133.19,fixation,1,657,,,PerfumeSession
1624892133.38,stimulus,2,167,,,NoAct
1624892133.88,fixation,2,167,,,NoAct
1624892134.69,stimulus,1,658,,,PerfumeSession
1624892135.19,fixation,1,658,,,PerfumeSession
1624892135.38,stimulus,2,168,,,NoAct
1624892135.88,fixation,2,168,,,NoAct
1624892136.69,stimulus,1,659,,,PerfumeSession
1624892137.19,fixation,1,659,,,PerfumeSession
1624892137.38,stimulus,2,169,,,NoAct
1624892137.88,fixation,2,169,,,NoAct
1624892138.69,stimulus,1,660,,,PerfumeSession
1624892139.19,fixation,1,660,,,PerfumeSession
1624892139.38,stimulus,2,170,,,NoAct
1624892139.88,fixation,2,170,,,NoAct
1624892140.69,stimulus,1,661,,,PerfumeSession
1624892141.19,fixation,1,661,,,PerfumeSession
1624892141.38,stimulus,2,171,,,NoAct
1624892141.88,fixation,2,171,,,NoAct
1624892142.69,stimulus,1,662,,,PerfumeSession
1624892143.19,fixation,1,662,,,PerfumeSession
1624892143.38,stimulus,2,172,,,NoAct
1624892143.88,fixation,2,172,,,NoAct
1624892144.69,stimulus,1,663,,,PerfumeSession
1624892145.19,fixation,1,663,,,PerfumeSession
1624892145.38,stimulus,2,173,,,NoAct
1624892145.88,fixation,2,173,,,NoAct
1624892146.69,stimulus,1,664,,,PerfumeSession
1624892147.19,fixation,1,664,,,PerfumeSession
1624892147.38,stimulus,2,174,,,NoAct
1624892147.88,fixation,2,174,,,NoAct
1624892148.69,stimulus,1,665,,,PerfumeSession
1624892149.19,fixation,1,665,,,PerfumeSession
1624892149.38,stimulus,2,175,,,NoAct
1624892149.88,fixation,2,175,,,NoAct
1624892150.69,stimulus,1,666,,,PerfumeSession
1624892151.19,fixation,1,666,,,PerfumeSession
1624892151.38,stimulus,2,176,,,NoAct
1624892151.88,fixation,2,176,,,NoAct
1624892152.69,stimulus,1,667,,,PerfumeSession
1624892153.19,fixation,1,667,,,PerfumeSession
1624892153.38,stimulus,2,177,,,NoAct
1624892153.88,fixation,2,177,,,NoAct
1624892154.69,stimulus,1,668,,,PerfumeSession
1624892155.19,fixation,1,668,,,PerfumeSession
1624892155.38,stimulus,2,178,,,NoAct
1624892155.88,fixation,2,178,,,NoAct
1624892156.69,stimulus,1,669,,,PerfumeSession
1624892157.19,fixation,1,669,,,PerfumeSession
1624892157.38,stimulus,2,179,,,NoAct
1624892157.88,fixation,2,179,,,NoAct
1624892158.69,stimulus,1,670,,,PerfumeSession
1624892159.19,fixation,1,670,,,PerfumeSession
1624892159.38,stimulus,2,180,,,NoAct
1624892159.88,fixation,2,180,,,NoAct
1624892160.69,stimulus,1,671,,,PerfumeSession
1624892161.19,fixation,1,671,,,PerfumeSession
1624892161.38,stimulus,2,181,,,NoAct
1624892161.88,fixation,2,181,,,NoAct
1624892162.69,stimulus,1,672,,,PerfumeSession
1624892163.19,fixation,1,672,,,PerfumeSession
1624892163.38,stimulus,2,182,,,NoAct
1624892163.81,stimulus,3,1,,,PracticeSession
1624892163.88,fixation,2,182,,,NoAct
1624892164.31,fixation,3,1,,,PracticeSession
1624892164.69,stimulus,1,673,,,PerfumeSession
1624892165.19,fixation,1,673,,,PerfumeSession
1624892165.38,stimulus,2,183,,,NoAct
1624892165.81,stimulus,3,2,,,PracticeSession
1624892165.88,fixation,2,183,,,NoAct
1624892166.31,fixation,3,2,,,PracticeSession
1624892166.69,stimulus,1,674,,,PerfumeSession
1624892167.19,fixation,1,674,,,PerfumeSession
1624892167.38,stimulus,2,184,,,NoAct
1624892167.81,stimulus,3,3,,,PracticeSession
1624892167.88,fixation,2,184,,,NoAct
1624892168.31,fixation,3,3,,,PracticeSession
1624892168.69,stimulus,1,675,,,PerfumeSession
1624892169.19,fixation,1,675,,,PerfumeSession
1624892169.38,stimulus,2,185,,,NoAct
1624892169.81,stimulus,3,4,,,PracticeSession
1624892169.88,fixation,2,185,,,NoAct
1624892170.31,fixation,3,4,,,PracticeSession
1624892170.69,stimulus,1,676,,,PerfumeSession
1624892171.19,fixation,1,676,,,PerfumeSession
1624892171.38,stimulus,2,186,,,NoAct
1624892171.81,stimulus,3,5,,,PracticeSession
1624892171.88,fixation,2,186,,,NoAct
1624892172.31,fixation,3,5,,,PracticeSession
1624892172.69,stimulus,1,677,,,PerfumeSession
1624892173.19,fixation,1,677,,,PerfumeSession
1624892173.38,stimulus,2,187,,,NoAct
1624892173.81,stimulus,3,6,,,PracticeSession
1624892173.88,fixation,2,187,,,NoAct
1624892174.31,fixation,3,6,,,PracticeSession
1624892174.69,stimulus,1,678,,,PerfumeSession
1624892175.19,fixation,1,678,,,PerfumeSession
1624892175.38,stimulus,2,188,,,NoAct
1624892175.81,stimulus,3,7,,,PracticeSession
1624892175.88,fixation,2,188,,,NoAct
1624892176.31,fixation,3,7,,,PracticeSession
1624892176.69,stimulus,1,679,,,PerfumeSession
1624892177.19,fixation,1,679,,,PerfumeSession
1624892177.38,stimulus,2,189,,,NoAct
1624892177.81,stimulus,3,8,,,PracticeSession
1624892177.88,fixation,2,189,,,NoAct
1624892178.31,fixation,3,8,,,PracticeSession
1624892178.69,stimulus,1,680,,,PerfumeSession
1624892179.19,fixation,1,680,,,PerfumeSession
1624892179.38,stimulus,2,190,,,NoAct
1624892179.81,stimulus,3,9,,,PracticeSession
1624892179.88,fixation,2,190,,,NoAct
1624892180.31,fixation,3,9,,,PracticeSession
1624892180.69,stimulus,1,681,,,PerfumeSession
1624892181.19,fixation,1,681,,,PerfumeSession
1624892181.38,stimulus,2,191,,,NoAct
1624892181.81,stimulus,3,10,,,PracticeSession
1624892181.88,fixation,2,191,,,NoAct
1624892182.31,fixation,3,10,,,PracticeSession
1624892182.69,stimulus,1,682,,,PerfumeSession
1624892183.19,fixation,1,682,,,PerfumeSession
1624892183.38,stimulus,2,192,,,NoAct
1624892183.81,stimulus,3,11,,,PracticeSession
1624892183.88,fixation,2,192,,,NoAct
1624892184.31,fixation,3,11,,,PracticeSession
1624892184.69,stimulus,1,683,,,PerfumeSession
1624892185.19,fixation,1,683,,,PerfumeSession
1624892185.38,stimulus,2,193,,,NoAct
1624892185.81,stimulus,3,12,,,PracticeSession
1624892185.88,fixation,2,193,,,NoAct
1624892186.31,fixation,3,12,,,PracticeSession
1624892186.69,stimulus,1,684,,,PerfumeSession
1624892187.19,fixation,1,684,,,PerfumeSession
1624892187.38,stimulus,2,194,,,NoAct
1624892187.81,stimulus,3,13,,,PracticeSession
1624892187.88,fixation,2,194,,,NoAct
1624892188.31,fixation,3,13,,,PracticeSession
1624892188.69,stimulus,1,685,,,PerfumeSession
1624892189.19,fixation,1,685,,,PerfumeSession
1624892189.38,stimulus,2,195,,,NoAct
1624892189.81,stimulus,3,14,,,PracticeSession
1624892189.88,fixation,2,195,,,NoAct
1624892190.31,fixation,3,14,,,PracticeSession
1624892190.69,stimulus,1,686,,,PerfumeSession
1624892191.19,fixation,1,686,,,PerfumeSession
1624892191.38,stimulus,2,196,,,NoAct
1624892191.81,stimulus,3,15,,,PracticeSession
1624892191.88,fixation,2,196,,,NoAct
1624892192.31,fixation,3,15,,,PracticeSession
1624892192.69,stimulus,1,687,,,PerfumeSession
1624892193.19,fixation,1,687,,,PerfumeSession
1624892193.38,stimulus,2,197,,,NoAct
1624892193.81,stimulus,3,16,,,PracticeSession
1624892193.88,fixation,2,197,,,NoAct
1624892194.31,fixation,3,16,,,PracticeSession
1624892194.69,stimulus,1,688,,,PerfumeSession
1624892195.19,fixation,1,688,,,PerfumeSession
1624892195.38,stimulus,2,198,,,NoAct
1624892195.81,stimulus,3,17,,,PracticeSession
1624892195.88,fixation,2,198,,,NoAct
1624892196.31,fixation,3,17,,,PracticeSession
1624892196.69,stimulus,1,689,,,PerfumeSession
1624892197.19,fixation,1,689,,,PerfumeSession
1624892197.38,stimulus,2,199,,,NoAct
1624892197.81,stimulus,3,18,,,PracticeSession
1624892197.88,fixation,2,199,,,NoAct
1624892198.31,fixation,3,18,,,PracticeSession
1624892198.69,stimulus,1,690,,,PerfumeSession
1624892199.19,fixation,1,690,,,PerfumeSession
1624892199.38,stimulus,2,200,,,NoAct
1624892199.81,stimulus,3,19,,,PracticeSession
1624892199.88,fixation,2,200,,,NoAct
1624892200.31,fixation,3,19,,,PracticeSession
1624892200.69,stimulus,1,691,,,PerfumeSession
1624892201.19,fixation,1,691,,,PerfumeSession
1624892201.38,stimulus,2,201,,,NoAct
1624892201.81,stimulus,3,20,,,PracticeSession
1624892201.88,fixation,2,201,,,NoAct
1624892202.31,fixation,3,20,,,PracticeSession
1624892202.69,stimulus,1,692,,,PerfumeSession
1624892203.19,fixation,1,692,,,PerfumeSession
1624892203.38,stimulus,2,202,,,NoAct
1624892203.81,stimulus,3,21,,,PracticeSession
1624892203.88,fixation,2,202,,,NoAct
1624892204.31,fixation,3,21,,,PracticeSession
1624892204.69,stimulus,1,693,,,PerfumeSession
1624892205.19,fixation,1,693,,,PerfumeSession
1624892205.38,stimulus,2,203,,,NoAct
1624892205.81,stimulus,3,22,,,PracticeSession
1624892205.88,fixation,2,203,,,NoAct
1624892206.31,fixation,3,22,,,PracticeSession
1624892206.69,stimulus,1,694,,,PerfumeSession
1624892207.19,fixation,1,694,,,PerfumeSession
1624892207.38,stimulus,2,204,,,NoAct
1624892207.81,stimulus,3,23,,,PracticeSession
1624892207.88,fixation,2,204,,,NoAct
1624892208.31,fixation,3,23,,,PracticeSession
1624892208.69,stimulus,1,695,,,PerfumeSession
1624892209.19,fixation,1,695,,,PerfumeSession
1624892209.38,stimulus,2,205,,,NoAct
1624892209.81,stimulus,3,24,,,PracticeSession
1624892209.88,fixation,2,205,,,NoAct
1624892210.31,fixation,3,24,,,PracticeSession
1624892210.69,stimulus,1,696,,,PerfumeSession
1624892211.19,fixation,1,696,,,PerfumeSession
1624892211.38,stimulus,2,206,,,NoAct
1624892211.81,stimulus,3,25,,,PracticeSession
1624892211.88,fixation,2,206,,,NoAct
1624892212.31,fixation,3,25,,,PracticeSession
1624892212.69,stimulus,1,697,,,PerfumeSession
1624892213.19,fixation,1,697,,,PerfumeSession
1624892213.38,stimulus,2,207,,,NoAct
1624892213.81,stimulus,3,26,,,PracticeSession
1624892213.88,fixation,2,207,,,NoAct
1624892214.31,fixation,3,26,,,PracticeSession
1624892214.69,stimulus,1,698,,,PerfumeSession
1624892215.19,fixation,1,698,,,PerfumeSession
1624892215.38,stimulus,2,208,,,NoAct
1624892215.81,stimulus,3,27,,,PracticeSession
1624892215.88,fixation,2,208,,,NoAct
1624892216.31,fixation,3,27,,,PracticeSession
1624892216.69,stimulus,1,699,,,PerfumeSession
1624892217.19,fixation,1,699,,,PerfumeSession
1624892217.38,stimulus,2,209,,,NoAct
1624892217.81,stimulus,3,28,,,PracticeSession
1624892217.88,fixation,2,209,,,NoAct
1624892218.31,fixation,3,28,,,PracticeSession
1624892218.69,stimulus,1,700,,,PerfumeSession
1624892219.19,fixation,1,700,,,PerfumeSession
1624892219.38,stimulus,2,210,,,NoAct
1624892219.81,stimulus,3,29,,,PracticeSession
1624892219.88,fixation,2,210,,,NoAct
1624892220.31,fixation,3,29,,,PracticeSession
1624892220.69,stimulus,1,701,,,PerfumeSession
1624892221.19,fixation,1,701,,,PerfumeSession
1624892221.38,stimulus,2,211,,,NoAct
1624892221.81,stimulus,3,30,,,PracticeSession
1624892221.88,fixation,2,211,,,NoAct
1624892222.31,fixation,3,30,,,PracticeSession
1624892222.69,stimulus,1,702,,,PerfumeSession
1624892223.19,fixation,1,702,,,PerfumeSession
1624892223.38,stimulus,2,212,,,NoAct
1624892223.81,stimulus,3,31,,,PracticeSession
1624892223.88,fixation,2,212,,,NoAct
1624892224.31,fixation,3,31,,,PracticeSession
1624892224.69,stimulus,1,703,,,PerfumeSession
1624892225.19,fixation,1,703,,,PerfumeSession
1624892225.38,stimulus,2,213,,,NoAct
1624892225.81,stimulus,3,32,,,PracticeSession
1624892225.88,fixation,2,213,,,NoAct
1624892226.31,fixation,3,32,,,PracticeSession
1624892226.69,stimulus,1,704,,,PerfumeSession
1624892227.19,fixation,1,704,,,PerfumeSession
1624892227.38,stimulus,2,214,,,NoAct
1624892227.81,stimulus,3,33,,,PracticeSession
1624892227.88,fixation,2,214,,,NoAct
1624892228.31,fixation,3,33,,,PracticeSession
1624892228.69,stimulus,1,705,,,PerfumeSession
1624892229.19,fixation,1,705,,,PerfumeSession
1624892229.38,stimulus,2,215,,,NoAct
1624892229.81,stimulus,3,34,,,PracticeSession
1624892229.88,fixation,2,215,,,NoAct
1624892230.31,fixation,3,34,,,PracticeSession
1624892230.69,stimulus,1,706,,,PerfumeSession
1624892231.19,fixation,1,706,,,PerfumeSession
1624892231.38,stimulus,2,216,,,NoAct
1624892231.81,stimulus,3,35,,,PracticeSession
1624892231.88,fixation,2,216,,,NoAct
1624892232.31,fixation,3,35,,,PracticeSession
1624892232.69,stimulus,1,707,,,PerfumeSession
1624892233.19,fixation,1,707,,,PerfumeSession
1624892233.38,stimulus,2,217,,,NoAct
1624892233.81,stimulus,3,36,,,PracticeSession
1624892233.88,fixation,2,217,,,NoAct
1624892234.31,fixation,3,36,,,PracticeSession
1624892234.69,stimulus,1,708,,,PerfumeSession
1624892235.19,fixation,1,708,,,PerfumeSession
1624892235.38,stimulus,2,218,,,NoAct
1624892235.81,stimulus,3,37,,,PracticeSession
1624892235.88,fixation,2,218,,,NoAct
1624892236.31,fixation,3,37,,,PracticeSession
1624892236.69,stimulus,1,709,,,PerfumeSession
1624892237.19,fixation,1,709,,,PerfumeSession
1624892237.38,stimulus,2,219,,,NoAct
1624892237.81,stimulus,3,38,,,PracticeSession
1624892237.88,fixation,2,219,,,NoAct
1624892238.31,fixation,3,38,,,PracticeSession
1624892238.69,stimulus,1,710,,,PerfumeSession
1624892239.19,fixation,1,710,,,PerfumeSession
1624892239.38,stimulus,2,220,,,NoAct
1624892239.81,stimulus,3,39,,,PracticeSession
1624892239.88,fixation,2,220,,,NoAct
1624892240.31,fixation,3,39,,,PracticeSession
1624892240.69,stimulus,1,711,,,PerfumeSession
1624892241.19,fixation,1,711,,,PerfumeSession
1624892241.38,stimulus,2,221,,,NoAct
1624892241.81,stimulus,3,40,,,PracticeSession
1624892241.88,fixation,2,221,,,NoAct
1624892242.31,fixation,3,40,,,PracticeSession
1624892242.69,stimulus,1,712,,,PerfumeSession
1624892243.19,fixation,1,712,,,PerfumeSession
1624892243.38,stimulus,2,222,,,NoAct
1624892243.81,stimulus,3,41,,,PracticeSession
1624892243.88,fixation,2,222,,,NoAct
1624892244.31,fixation,3,41,,,PracticeSession
1624892244.69,stimulus,1,713,,,PerfumeSession
1624892245.19,fixation,1,713,,,PerfumeSession
1624892245.38,stimulus,2,223,,,NoAct
1624892245.81,stimulus,3,42,,,PracticeSession
1624892245.88,fixation,2,223,,,NoAct
1624892246.31,fixation,3,42,,,PracticeSession
1624892246.69,stimulus,1,714,,,PerfumeSession
1624892247.19,fixation,1,714,,,PerfumeSession
1624892247.38,stimulus,2,224,,,NoAct
1624892247.81,stimulus,3,43,,,PracticeSession
1624892247.88,fixation,2,224,,,NoAct
1624892248.31,fixation,3,43,,,PracticeSession
1624892248.69,stimulus,1,715,,,PerfumeSession
1624892249.19,fixation,1,715,,,PerfumeSession
1624892249.38,stimulus,2,225,,,NoAct
1624892249.81,stimulus,3,44,,,PracticeSession
1624892249.88,fixation,2,225,,,NoAct
1624892250.31,fixation,3,44,,,PracticeSession
1624892250.69,stimulus,1,716,,,PerfumeSession
1624892251.19,fixation,1,716,,,PerfumeSession
1624892251.38,stimulus,2,226,,,NoAct
1624892251.81,stimulus,3,45,,,NoAct
1624892251.88,fixation,2,226,,,NoAct
1624892252.31,fixation,3,45,,,NoAct
1624892252.69,stimulus,1,717,,,PerfumeSession
1624892253.19,fixation,1,717,,,PerfumeSession
1624892253.38,stimulus,2,227,,,NoAct
1624892253.81,stimulus,3,46,,,NoAct
1624892253.88,fixation,2,227,,,NoAct
1624892254.31,fixation,3,46,,,NoAct
1624892254.69,stimulus,1,718,,,PerfumeSession
1624892255.19,fixation,1,718,,,PerfumeSession
1624892255.38,stimulus,2,228,,,NoAct
1624892255.81,stimulus,3,47,,,NoAct
1624892255.88,fixation,2,228,,,NoAct
1624892256.31,fixation,3,47,,,NoAct
1624892256.69,stimulus,1,719,,,PerfumeSession
1624892257.19,fixation,1,719,,,PerfumeSession
1624892257.38,stimulus,2,229,,,NoAct
1624892257.81,stimulus,3,48,,,NoAct
1624892257.88,fixation,2,229,,,NoAct
1624892258.31,fixation,3,48,,,NoAct
1624892258.69,stimulus,1,720,,,PerfumeSession
1624892259.19,fixation,1,720,,,PerfumeSession
1624892259.38,stimulus,2,230,,,NoAct
1624892259.81,stimulus,3,49,,,NoAct
1624892259.88,fixation,2,230,,,NoAct
1624892260.31,fixation,3,49,,,NoAct
1624892260.69,stimulus,1,721,,,PerfumeSession
1624892261.19,fixation,1,721,,,PerfumeSession
1624892261.38,stimulus,2,231,,,NoAct
1624892261.81,stimulus,3,50,,,NoAct
1624892261.88,fixation,2,231,,,NoAct
1624892262.31,fixation,3,50,,,NoAct
1624892262.69,stimulus,1,722,,,PerfumeSession
1624892263.19,fixation,1,722,,,PerfumeSession
1624892263.38,stimulus,2,232,,,NoAct
1624892263.81,stimulus,3,51,,,NoAct
1624892263.88,fixation,2,232,,,NoAct
1624892264.31,fixation,3,51,,,NoAct
1624892264.69,stimulus,1,723,,,PerfumeSession
1624892265.19,fixation,1,723,,,PerfumeSession
1624892265.38,stimulus,2,233,,,NoAct
1624892265.81,stimulus,3,52,,,NoAct
1624892265.88,fixation,2,233,,,NoAct
1624892266.31,fixation,3,52,,,NoAct
1624892266.69,stimulus,1,724,,,PerfumeSession
1624892267.19,fixation,1,724,,,PerfumeSession
1624892267.38,stimulus,2,234,,,NoAct
1624892267.81,stimulus,3,53,,,NoAct
1624892267.88,fixation,2,234,,,NoAct
1624892268.31,fixation,3,53,,,NoAct
1624892268.69,stimulus,1,725,,,PerfumeSession
1624892269.19,fixation,1,725,,,PerfumeSession
1624892269.38,stimulus,2,235,,,NoAct
1624892269.81,stimulus,3,54,,,NoAct
1624892269.88,fixation,2,235,,,NoAct
1624892270.31,fixation,3,54,,,NoAct
1624892270.69,stimulus,1,726,,,PerfumeSession
1624892271.19,fixation,1,726,,,PerfumeSession
1624892271.38,stimulus,2,236,,,NoAct
1624892271.81,stimulus,3,55,,,NoAct
1624892271.88,fixation,2,236,,,NoAct
1624892272.31,fixation,3,55,,,NoAct
1624892272.69,stimulus,1,727,,,PerfumeSession
1624892273.19,fixation,1,727,,,PerfumeSession
1624892273.38,stimulus,2,237,,,NoAct
1624892273.81,stimulus,3,56,,,NoAct
1624892273.88,fixation,2,237,,,NoAct
1624892274.31,fixation,3,56,,,NoAct
1624892274.69,stimulus,1,728,,,PerfumeSession
1624892275.19,fixation,1,728,,,PerfumeSession
1624892275.38,stimulus,2,238,,,NoAct
1624892275.81,stimulus,3,57,,,NoAct
1624892275.88,fixation,2,238,,,NoAct
1624892276.31,fixation,3,57,,,NoAct
1624892276.69,stimulus,1,729,,,PerfumeSession
1624892277.19,fixation,1,729,,,PerfumeSession
1624892277.38,stimulus,2,239,,,NoAct
1624892277.81,stimulus,3,58,,,NoAct
1624892277.88,fixation,2,239,,,NoAct
1624892278.31,fixation,3,58,,,NoAct
1624892278.69,stimulus,1,730,,,PerfumeSession
1624892279.19,fixation,1,730,,,PerfumeSession
1624892279.38,stimulus,2,240,,,NoAct
1624892279.81,stimulus,3,59,,,NoAct
1624892279.88,fixation,2,240,,,NoAct
1624892280.31,fixation,3,59,,,NoAct
1624892280.69,stimulus,1,731,,,PerfumeSession
1624892281.19,fixation,1,731,,,PerfumeSession
1624892281.38,stimulus,2,241,,,NoAct
1624892281.81,stimulus,3,60,,,NoAct
1624892281.88,fixation,2,241,,,NoAct
1624892282.31,fixation,3,60,,,NoAct
1624892282.69,stimulus,1,732,,,PerfumeSession
1624892283.19,fixation,1,732,,,PerfumeSession
1624892283.38,stimulus,2,242,,,NoAct
1624892283.81,stimulus,3,61,,,NoAct
1624892283.88,fixation,2,242,,,NoAct
1624892284.31,fixation,3,61,,,NoAct
1624892284.69,stimulus,1,733,,,PerfumeSession
1624892285.19,fixation,1,733,,,PerfumeSession
1624892285.38,stimulus,2,243,,,NoAct
1624892285.81,stimulus,3,62,,,NoAct
1624892285.88,fixation,2,243,,,NoAct
1624892286.31,fixation,3,62,,,NoAct
1624892286.69,stimulus,1,734,,,PerfumeSession
1624892287.19,fixation,1,734,,,PerfumeSession
1624892287.38,stimulus,2,244,,,NoAct
1624892287.81,stimulus,3,63,,,NoAct
1624892287.88,fixation,2,244,,,NoAct
1624892288.31,fixation,3,63,,,NoAct
1624892288.69,stimulus,1,735,,,PerfumeSession
1624892289.19,fixation,1,735,,,PerfumeSession
1624892289.38,stimulus,2,245,,,NoAct
1624892289.81,stimulus,3,64,,,NoAct
1624892289.88,fixation,2,245,,,NoAct
1624892290.31,fixation,3,64,,,NoAct
1624892290.69,stimulus,1,736,,,PerfumeSession
1624892291.19,fixation,1,736,,,PerfumeSession
1624892291.38,stimulus,2,246,,,NoAct
1624892291.81,stimulus,3,65,,,NoAct
1624892291.88,fixation,2,246,,,NoAct
1624892292.31,fixation,3,65,,,NoAct
1624892292.69,stimulus,1,737,,,PerfumeSession
1624892293.19,fixation,1,737,,,PerfumeSession
1624892293.38,stimulus,2,247,,,NoAct
1624892293.81,stimulus,3,66,,,NoAct
1624892293.88,fixation,2,247,,,NoAct
1624892294.31,fixation,3,66,,,NoAct
1624892294.69,stimulus,1,738,,,PerfumeSession
1624892295.19,fixation,1,738,,,PerfumeSession
1624892295.38,stimulus,2,248,,,NoAct
1624892295.81,stimulus,3,67,,,NoAct
1624892295.88,fixation,2,248,,,NoAct
1624892296.31,fixation,3,67,,,NoAct
1624892296.69,stimulus,1,739,,,PerfumeSession
1624892297.19,fixation,1,739,,,PerfumeSession
1624892297.38,stimulus,2,249,,,NoAct
1624892297.81,stimulus,3,68,,,NoAct
1624892297.88,fixation,2,249,,,NoAct
1624892298.31,fixation,3,68,,,NoAct
1624892298.69,stimulus,1,740,,,PerfumeSession
1624892299.19,fixation,1,740,,,PerfumeSession
1624892299.38,stimulus,2,250,,,NoAct
1624892299.81,stimulus,3,69,,,NoAct
1624892299.88,fixation,2,250,,,NoAct
1624892300.31,fixation,3,69,,,NoAct
1624892300.69,stimulus,1,741,,,PerfumeSession
1624892301.19,fixation,1,741,,,PerfumeSession
1624892301.38,stimulus,2,251,,,NoAct
1624892301.81,stimulus,3,70,,,NoAct
1624892301.88,fixation,2,251,,,NoAct
1624892302.31,fixation,3,70,,,NoAct
1624892302.69,stimulus,1,742,,,PerfumeSession
1624892303.19,fixation,1,742,,,PerfumeSession
1624892303.38,stimulus,2,252,,,NoAct
1624892303.81,stimulus,3,71,,,NoAct
1624892303.88,fixation,2,252,,,NoAct
1624892304.31,fixation,3,71,,,NoAct
1624892304.69,stimulus,1,743,,,PerfumeSession
1624892305.19,fixation,1,743,,,PerfumeSession
1624892305.38,stimulus,2,253,,,NoAct
1624892305.81,stimulus,3,72,,,NoAct
1624892305.88,fixation,2,253,,,NoAct
1624892306.31,fixation,3,72,,,NoAct
1624892306.69,stimulus,1,744,,,PerfumeSession
1624892307.19,fixation,1,744,,,PerfumeSession
1624892307.38,stimulus,2,254,,,NoAct
1624892307.81,stimulus,3,73,,,NoAct
1624892307.88,fixation,2,254,,,NoAct
1624892308.31,fixation,3,73,,,NoAct
1624892308.69,stimulus,1,745,,,PerfumeSession
1624892309.19,fixation,1,745,,,PerfumeSession
1624892309.38,stimulus,2,255,,,NoAct
1624892309.81,stimulus,3,74,,,NoAct
1624892309.88,fixation,2,255,,,NoAct
1624892310.31,fixation,3,74,,,NoAct
1624892310.69,stimulus,1,746,,,PerfumeSession
1624892311.19,fixation,1,746,,,PerfumeSession
1624892311.38,stimulus,2,256,,,NoAct
1624892311.81,stimulus,3,75,,,NoAct
1624892311.88,fixation,2,256,,,NoAct
1624892312.31,fixation,3,75,,,NoAct
1624892312.69,stimulus,1,747,,,PerfumeSession
1624892313.19,fixation,1,747,,,PerfumeSession
1624892313.38,stimulus,2,257,,,NoAct
1624892313.81,stimulus,3,76,,,NoAct
1624892313.88,fixation,2,257,,,NoAct
1624892314.31,fixation,3,76,,,NoAct
1624892314.69,stimulus,1,748,,,PerfumeSession
1624892315.19,fixation,1,748,,,PerfumeSession
1624892315.38,stimulus,2,258,,,NoAct
1624892315.81,stimulus,3,77,,,NoAct
1624892315.88,fixation,2,258,,,NoAct
1624892316.31,fixation,3,77,,,NoAct
1624892316.69,stimulus,1,749,,,PerfumeSession
1624892317.19,fixation,1,749,,,PerfumeSession
1624892317.38,stimulus,2,259,,,NoAct
1624892317.81,stimulus,3,78,,,NoAct
1624892317.88,fixation,2,259,,,NoAct
1624892318.31,fixation,3,78,,,NoAct
1624892318.69,stimulus,1,750,,,PerfumeSession
1624892319.19,fixation,1,750,,,PerfumeSession
1624892319.38,stimulus,2,260,,,NoAct
1624892319.81,stimulus,3,79,,,NoAct
1624892319.88,fixation,2,260,,,NoAct
1624892320.31,fixation,3,79,,,NoAct
1624892320.69,stimulus,1,751,,,CoffeeSession
1624892321.19,fixation,1,751,,,CoffeeSession
1624892321.38,stimulus,2,261,,,NoAct
1624892321.81,stimulus,3,80,,,NoAct
1624892321.88,fixation,2,261,,,NoAct
1624892322.31,fixation,3,80,,,NoAct
1624892322.69,stimulus,1,752,,,CoffeeSession
1624892323.19,fixation,1,752,,,CoffeeSession
1624892323.38,stimulus,2,262,,,NoAct
1624892323.81,stimulus,3,81,,,NoAct
1624892323.88,fixation,2,262,,,NoAct
1624892324.31,fixation,3,81,,,NoAct
1624892324.69,stimulus,1,753,,,CoffeeSession
1624892325.19,fixation,1,753,,,CoffeeSession
1624892325.38,stimulus,2,263,,,NoAct
1624892325.81,stimulus,3,82,,,NoAct
1624892325.88,fixation,2,263,,,NoAct
1624892326.31,fixation,3,82,,,NoAct
1624892326.69,stimulus,1,754,,,CoffeeSession
1624892327.19,fixation,1,754,,,CoffeeSession
1624892327.38,stimulus,2,264,,,NoAct
1624892327.81,stimulus,3,83,,,NoAct
1624892327.88,fixation,2,264,,,NoAct
1624892328.31,fixation,3,83,,,NoAct
1624892328.69,stimulus,1,755,,,CoffeeSession
1624892329.19,fixation,1,755,,,CoffeeSession
1624892329.38,stimulus,2,265,,,NoAct
1624892329.81,stimulus,3,84,,,NoAct
1624892329.88,fixation,2,265,,,NoAct
1624892330.31,fixation,3,84,,,NoAct
1624892330.69,stimulus,1,756,,,CoffeeSession
1624892331.19,fixation,1,756,,,CoffeeSession
1624892331.38,stimulus,2,266,,,NoAct
1624892331.81,stimulus,3,85,,,NoAct
1624892331.88,fixation,2,266,,,NoAct
1624892332.31,fixation,3,85,,,NoAct
1624892332.69,stimulus,1,757,,,CoffeeSession
1624892333.19,fixation,1,757,,,CoffeeSession
1624892333.38,stimulus,2,267,,,NoAct
1624892333.81,stimulus,3,86,,,NoAct
1624892333.88,fixation,2,267,,,NoAct
1624892334.31,fixation,3,86,,,NoAct
1624892334.69,stimulus,1,758,,,CoffeeSession
1624892335.19,fixation,1,758,,,CoffeeSession
1624892335.38,stimulus,2,268,,,NoAct
1624892335.81,stimulus,3,87,,,NoAct
1624892335.88,fixation,2,268,,,NoAct
1624892336.31,fixation,3,87,,,NoAct
1624892336.69,stimulus,1,759,,,CoffeeSession
1624892337.19,fixation,1,759,,,CoffeeSession
1624892337.38,stimulus,2,269,,,NoAct
1624892337.81,stimulus,3,88,,,NoAct
1624892337.88,fixation,2,269,,,NoAct
1624892338.31,fixation,3,88,,,NoAct
1624892338.69,stimulus,1,760,,,CoffeeSession
1624892339.19,fixation,1,760,,,CoffeeSession
1624892339.38,stimulus,2,270,,,NoAct
1624892339.81,stimulus,3,89,,,NoAct
1624892339.88,fixation,2,270,,,NoAct
1624892340.31,fixation,3,89,,,NoAct
1624892340.69,stimulus,1,761,,,CoffeeSession
1624892341.19,fixation,1,761,,,CoffeeSession
1624892341.38,stimulus,2,271,,,NoAct
1624892341.81,stimulus,3,90,,,NoAct
1624892341.88,fixation,2,271,,,NoAct
1624892342.31,fixation,3,90,,,NoAct
1624892342.69,stimulus,1,762,,,CoffeeSession
1624892343.19,fixation,1,762,,,CoffeeSession
1624892343.38,stimulus,2,272,,,NoAct
1624892343.81,stimulus,3,91,,,NoAct
1624892343.88,fixation,2,272,,,NoAct
1624892344.31,fixation,3,91,,,NoAct
1624892344.69,stimulus,1,763,,,CoffeeSession
1624892345.19,fixation,1,763,,,CoffeeSession
1624892345.38,stimulus,2,273,,,NoAct
1624892345.81,stimulus,3,92,,,NoAct
1624892345.88,fixation,2,273,,,NoAct
1624892346.31,fixation,3,92,,,NoAct
1624892346.69,stimulus,1,764,,,CoffeeSession
1624892347.19,fixation,1,764,,,CoffeeSession
1624892347.38,stimulus,2,274,,,NoAct
1624892347.81,stimulus,3,93,,,NoAct
1624892347.88,fixation,2,274,,,NoAct
1624892348.31,fixation,3,93,,,NoAct
1624892348.69,stimulus,1,765,,,CoffeeSession
1624892349.19,fixation,1,765,,,CoffeeSession
1624892349.38,stimulus,2,275,,,NoAct
1624892349.81,stimulus,3,94,,,NoAct
1624892349.88,fixation,2,275,,,NoAct
1624892350.31,fixation,3,94,,,NoAct
1624892350.69,stimulus,1,766,,,CoffeeSession
1624892351.19,fixation,1,766,,,CoffeeSession
1624892351.38,stimulus,2,276,,,NoAct
1624892351.81,stimulus,3,95,,,NoAct
1624892351.88,fixation,2,276,,,NoAct
1624892352.31,fixation,3,95,,,NoAct
1624892352.69,stimulus,1,767,,,CoffeeSession
1624892353.19,fixation,1,767,,,CoffeeSession
1624892353.38,stimulus,2,277,,,NoAct
1624892353.81,stimulus,3,96,,,NoAct
1624892353.88,fixation,2,277,,,NoAct
1624892354.31,fixation,3,96,,,NoAct
1624892354.69,stimulus,1,768,,,CoffeeSession
1624892355.19,fixation,1,768,,,CoffeeSession
1624892355.38,stimulus,2,278,,,NoAct
1624892355.81,stimulus,3,97,,,NoAct
1624892355.88,fixation,2,278,,,NoAct
1624892356.31,fixation,3,97,,,NoAct
1624892356.69,stimulus,1,769,,,CoffeeSession
1624892357.19,fixation,1,769,,,CoffeeSession
1624892357.38,stimulus,2,279,,,NoAct
1624892357.81,stimulus,3,98,,,NoAct
1624892357.88,fixation,2,279,,,NoAct
1624892358.31,fixation,3,98,,,NoAct
1624892358.69,stimulus,1,770,,,CoffeeSession
1624892359.19,fixation,1,770,,,CoffeeSession
1624892359.38,stimulus,2,280,,,NoAct
1624892359.81,stimulus,3,99,,,NoAct
1624892359.88,fixation,2,280,,,NoAct
1624892360.31,fixation,3,99,,,NoAct
1624892360.69,stimulus,1,771,,,CoffeeSession
1624892361.19,fixation,1,771,,,CoffeeSession
1624892361.38,stimulus,2,281,,,NoAct
1624892361.81,stimulus,3,100,,,NoAct
1624892361.88,fixation,2,281,,,NoAct
1624892362.31,fixation,3,100,,,NoAct
1624892362.69,stimulus,1,772,,,CoffeeSession
1624892363.19,fixation,1,772,,,CoffeeSession
1624892363.38,stimulus,2,282,,,NoAct
1624892363.81,stimulus,3,101,,,NoAct
1624892363.88,fixation,2,282,,,NoAct
1624892364.31,fixation,3,101,,,NoAct
1624892364.69,stimulus,1,773,,,CoffeeSession
1624892365.19,fixation,1,773,,,CoffeeSession
1624892365.38,stimulus,2,283,,,NoAct
1624892365.81,stimulus,3,102,,,NoAct
1624892365.88,fixation,2,283,,,NoAct
1624892366.31,fixation,3,102,,,NoAct
1624892366.69,stimulus,1,774,,,CoffeeSession
1624892367.19,fixation,1,774,,,CoffeeSession
1624892367.38,stimulus,2,284,,,NoAct
1624892367.81,stimulus,3,103,,,NoAct
1624892367.88,fixation,2,284,,,NoAct
1624892368.31,fixation,3,103,,,NoAct
1624892368.69,stimulus,1,775,,,CoffeeSession
1624892369.19,fixation,1,775,,,CoffeeSession
1624892369.38,stimulus,2,285,,,NoAct
1624892369.81,stimulus,3,104,,,NoAct
1624892369.88,fixation,2,285,,,NoAct
1624892370.31,fixation,3,104,,,NoAct
1624892370.69,stimulus,1,776,,,CoffeeSession
1624892371.19,fixation,1,776,,,CoffeeSession
1624892371.38,stimulus,2,286,,,NoAct
1624892371.81,stimulus,3,105,,,NoAct
1624892371.88,fixation,2,286,,,NoAct
1624892372.31,fixation,3,105,,,NoAct
1624892372.69,stimulus,1,777,,,CoffeeSession
1624892373.19,fixation,1,777,,,CoffeeSession
1624892373.38,stimulus,2,287,,,NoAct
1624892373.81,stimulus,3,106,,,NoAct
1624892373.88,fixation,2,287,,,NoAct
1624892374.31,fixation,3,106,,,NoAct
1624892374.69,stimulus,1,778,,,CoffeeSession
