event_time_s,trial_type,session_idx,trial_idx,RT_s,ACC,session_type
1625193537.75,stimulus,1,1,,,PracticeSession
1625193538.25,fixation,1,1,,,PracticeSession
1625193539.75,stimulus,1,2,,,PracticeSession
1625193540.25,fixation,1,2,,,PracticeSession
1625193541.75,stimulus,1,3,,,PracticeSession
1625193542.25,fixation,1,3,,,PracticeSession
1625193543.75,stimulus,1,4,,,PracticeSession
1625193544.25,fixation,1,4,,,PracticeSession
1625193545.75,stimulus,1,5,,,PracticeSession
1625193546.25,fixation,1,5,,,PracticeSession
1625193547.75,stimulus,1,6,,,PracticeSession
1625193548.25,fixation,1,6,,,PracticeSession
1625193549.75,stimulus,1,7,,,PracticeSession
1625193550.25,fixation,1,7,,,PracticeSession
1625193551.75,stimulus,1,8,,,PracticeSession
1625193552.25,fixation,1,8,,,PracticeSession
1625193553.75,stimulus,1,9,,,PracticeSession
1625193554.25,fixation,1,9,,,PracticeSession
1625193555.75,stimulus,1,10,,,PracticeSession
1625193556.25,fixation,1,10,,,PracticeSession
1625193557.75,stimulus,1,11,,,PracticeSession
1625193558.25,fixation,1,11,,,PracticeSession
1625193559.75,stimulus,1,12,,,PracticeSession
1625193560.25,fixation,1,12,,,PracticeSession
1625193561.75,stimulus,1,13,,,PracticeSession
1625193562.25,fixation,1,13,,,PracticeSession
1625193563.75,stimulus,1,14,,,PracticeSession
1625193564.25,fixation,1,14,,,PracticeSession
1625193565.75,stimulus,1,15,,,PracticeSession
1625193566.25,fixation,1,15,,,PracticeSession
1625193567.75,stimulus,1,16,,,PracticeSession
1625193568.25,fixation,1,16,,,PracticeSession
1625193569.75,stimulus,1,17,,,PracticeSession
1625193570.25,fixation,1,17,,,PracticeSession
1625193571.75,stimulus,1,18,,,PracticeSession
1625193572.25,fixation,1,18,,,PracticeSession
1625193573.75,stimulus,1,19,,,PracticeSession
1625193574.25,fixation,1,19,,,PracticeSession
1625193575.75,stimulus,1,20,,,PracticeSession
1625193576.25,fixation,1,20,,,PracticeSession
1625193577.75,stimulus,1,21,,,PracticeSession
1625193578.25,fixation,1,21,,,PracticeSession
1625193579.75,stimulus,1,22,,,PracticeSession
1625193580.25,fixation,1,22,,,PracticeSession
1625193581.75,stimulus,1,23,,,PracticeSession
1625193582.25,fixation,1,23,,,PracticeSession
1625193583.75,stimulus,1,24,,,PracticeSession
1625193584.25,fixation,1,24,,,PracticeSession
1625193585.75,stimulus,1,25,,,PracticeSession
1625193586.25,fixation,1,25,,,PracticeSession
1625193587.75,stimulus,1,26,,,PracticeSession
1625193588.25,fixation,1,26,,,PracticeSession
1625193589.75,stimulus,1,27,,,PracticeSession
1625193590.25,fixation,1,27,,,PracticeSession
1625193591.75,stimulus,1,28,,,PracticeSession
1625193592.25,fixation,1,28,,,PracticeSession
1625193593.75,stimulus,1,29,,,PracticeSession
1625193594.25,fixation,1,29,,,PracticeSession
1625193595.75,stimulus,1,30,,,PracticeSession
1625193596.25,fixation,1,30,,,PracticeSession
1625193597.75,stimulus,1,31,,,PracticeSession
1625193598.25,fixation,1,31,,,PracticeSession
1625193599.75,stimulus,1,32,,,PracticeSession
1625193600.25,fixation,1,32,,,PracticeSession
1625193601.75,stimulus,1,33,,,PracticeSession
1625193602.25,fixation,1,33,,,PracticeSession
1625193603.75,stimulus,1,34,,,PracticeSession
1625193604.25,fixation,1,34,,,PracticeSession
1625193605.75,stimulus,1,35,,,PracticeSession
1625193606.25,fixation,1,35,,,PracticeSession
1625193607.75,stimulus,1,36,,,PracticeSession
1625193608.25,fixation,1,36,,,PracticeSession
1625193609.75,stimulus,1,37,,,PracticeSession
1625193610.25,fixation,1,37,,,PracticeSession
1625193611.75,stimulus,1,38,,,PracticeSession
1625193612.25,fixation,1,38,,,PracticeSession
1625193613.75,stimulus,1,39,,,PracticeSession
1625193614.25,fixation,1,39,,,PracticeSession
1625193615.75,stimulus,1,40,,,PracticeSession
1625193616.25,fixation,1,40,,,PracticeSession
1625193617.75,stimulus,1,41,,,PracticeSession
1625193618.25,fixation,1,41,,,PracticeSession
1625193619.75,stimulus,1,42,,,PracticeSession
1625193620.25,fixation,1,42,,,PracticeSession
1625193621.75,stimulus,1,43,,,PracticeSession
1625193622.25,fixation,1,43,,,PracticeSession
1625193623.75,stimulus,1,44,,,PracticeSession
1625193624.25,fixation,1,44,,,PracticeSession
1625193625.75,stimulus,1,45,,0.0,NoAct
1625193627.004,fixation,1,45,0.754,1.0,NoAct
1625193627.75,stimulus,1,46,,0.0,NoAct
1625193628.589,fixation,1,46,0.339,1.0,NoAct
1625193629.75,stimulus,1,47,,0.0,NoAct
1625193630.563,fixation,1,47,0.313,1.0,NoAct
1625193631.75,stimulus,1,48,,0.0,NoAct
1625193632.448,fixation,1,48,0.198,1.0,NoAct
1625193633.75,stimulus,1,49,,0.0,NoAct
1625193634.468,fixation,1,49,0.218,1.0,NoAct
1625193635.75,stimulus,1,50,,0.0,NoAct
1625193636.481,fixation,1,50,0.231,1.0,NoAct
1625193637.75,stimulus,1,51,,0.0,NoAct
1625193638.493,fixation,1,51,0.243,0.0,NoAct
1625193639.75,stimulus,1,52,,0.0,NoAct
1625193640.398,fixation,1,52,0.148,1.0,NoAct
1625193641.75,stimulus,1,53,,0.0,NoAct
1625193642.597,fixation,1,53,0.347,1.0,NoAct
1625193643.75,stimulus,1,54,,0.0,NoAct
1625193644.539,fixation,1,54,0.289,1.0,NoAct
1625193645.75,stimulus,1,55,,0.0,NoAct
1625193646.45,fixation,1,55,0.2,1.0,NoAct
1625193647.75,stimulus,1,56,,0.0,NoAct
1625193648.341,fixation,1,56,0.091,1.0,NoAct
1625193649.75,stimulus,1,57,,0.0,NoAct
1625193650.531,fixation,1,57,0.281,1.0,NoAct
1625193651.75,stimulus,1,58,,0.0,NoAct
1625193652.395,fixation,1,58,0.145,1.0,NoAct
1625193654.237,stimulus,1,59,0.487,1.0,NoAct
1625193654.25,fixation,1,59,,0.0,NoAct
1625193655.75,stimulus,1,60,,0.0,NoAct
1625193656.36,fixation,1,60,0.11,1.0,NoAct
1625193657.75,stimulus,1,61,,0.0,NoAct
1625193658.873,fixation,1,61,0.623,1.0,NoAct
1625193659.75,stimulus,1,62,,0.0,NoAct
1625193660.76,fixation,1,62,0.51,1.0,NoAct
1625193661.75,stimulus,1,63,,0.0,NoAct
1625193662.408,fixation,1,63,0.158,1.0,NoAct
1625193663.75,stimulus,1,64,,0.0,NoAct
1625193664.442,fixation,1,64,0.192,1.0,NoAct
1625193665.75,stimulus,1,65,,0.0,NoAct
1625193666.6,fixation,1,65,0.35,1.0,NoAct
1625193667.75,stimulus,1,66,,0.0,NoAct
1625193668.272,fixation,1,66,0.022,1.0,NoAct
1625193669.75,stimulus,1,67,,0.0,NoAct
1625193670.473,fixation,1,67,0.223,1.0,NoAct
1625193671.75,stimulus,1,68,,0.0,NoAct
1625193672.682,fixation,1,68,0.432,1.0,NoAct
1625193673.75,stimulus,1,69,,0.0,NoAct
1625193674.599,fixation,1,69,0.349,1.0,NoAct
1625193675.75,stimulus,1,70,,0.0,NoAct
1625193677.338,fixation,1,70,1.088,1.0,NoAct
1625193677.75,stimulus,1,71,,0.0,NoAct
1625193678.25,fixation,1,71,,0.0,NoAct
1625193679.988,stimulus,1,72,0.238,1.0,NoAct
1625193681.26,fixation,1,72,1.01,1.0,NoAct
1625193681.75,stimulus,1,73,,0.0,NoAct
1625193683.085,fixation,1,73,0.835,0.0,NoAct
1625193683.75,stimulus,1,74,,0.0,NoAct
1625193684.963,fixation,1,74,0.713,1.0,NoAct
1625193685.75,stimulus,1,75,,0.0,NoAct
1625193686.679,fixation,1,75,0.429,0.0,NoAct
1625193687.75,stimulus,1,76,,0.0,NoAct
1625193688.9,fixation,1,76,0.65,0.0,NoAct
1625193689.75,stimulus,1,77,,0.0,NoAct
1625193690.335,fixation,1,77,0.085,1.0,NoAct
1625193691.75,stimulus,1,78,,0.0,NoAct
1625193692.822,fixation,1,78,0.572,1.0,NoAct
1625193693.75,stimulus,1,79,,0.0,NoAct
1625193695.036,fixation,1,79,0.786,1.0,NoAct
1625193695.75,stimulus,1,80,,0.0,NoAct
1625193696.706,fixation,1,80,0.456,1.0,NoAct
1625193697.75,stimulus,1,81,,0.0,NoAct
1625193698.717,fixation,1,81,0.467,1.0,NoAct
1625193699.75,stimulus,1,82,,0.0,NoAct
1625193700.25,fixation,1,82,,0.0,NoAct
1625193702.111,stimulus,1,83,0.361,0.0,NoAct
1625193702.545,fixation,1,83,0.295,1.0,NoAct
1625193703.75,stimulus,1,84,,0.0,NoAct
1625193704.972,fixation,1,84,0.722,1.0,NoAct
1625193705.75,stimulus,1,85,,0.0,NoAct
1625193706.644,fixation,1,85,0.394,1.0,NoAct
1625193707.75,stimulus,1,86,,0.0,NoAct
1625193708.552,fixation,1,86,0.302,1.0,NoAct
1625193709.75,stimulus,1,87,,0.0,NoAct
1625193710.437,fixation,1,87,0.187,1.0,NoAct
1625193711.75,stimulus,1,88,,0.0,NoAct
1625193712.543,fixation,1,88,0.293,1.0,NoAct
1625193713.75,stimulus,1,89,,0.0,NoAct
1625193714.511,fixation,1,89,0.261,1.0,NoAct
1625193715.75,stimulus,1,90,,0.0,NoAct
1625193716.37,fixation,1,90,0.12,1.0,NoAct
1625193717.75,stimulus,1,91,,0.0,NoAct
1625193718.351,fixation,1,91,0.101,1.0,NoAct
1625193719.75,stimulus,1,92,,0.0,NoAct
1625193720.387,fixation,1,92,0.137,1.0,NoAct
1625193721.75,stimulus,1,93,,0.0,NoAct
1625193723.071,fixation,1,93,0.821,0.0,NoAct
1625193723.75,stimulus,1,94,,0.0,NoAct
1625193725.011,fixation,1,94,0.761,1.0,NoAct
1625193725.75,stimulus,1,95,,0.0,NoAct
1625193727.094,fixation,1,95,0.844,1.0,NoAct
1625193727.75,stimulus,1,96,,0.0,NoAct
1625193728.79,fixation,1,96,0.54,1.0,NoAct
1625193729.75,stimulus,1,97,,0.0,NoAct
1625193730.604,fixation,1,97,0.354,1.0,NoAct
1625193731.75,stimulus,1,98,,0.0,NoAct
1625193732.76,fixation,1,98,0.51,1.0,NoAct
1625193733.75,stimulus,1,99,,0.0,NoAct
1625193734.488,fixation,1,99,0.238,1.0,NoAct
1625193735.75,stimulus,1,100,,0.0,NoAct
1625193736.499,fixation,1,100,0.249,1.0,NoAct
1625193737.75,stimulus,1,101,,0.0,NoAct
1625193739.456,fixation,1,101,1.206,0.0,NoAct
1625193739.75,stimulus,1,102,,0.0,NoAct
1625193740.936,fixation,1,102,0.686,0.0,NoAct
1625193741.75,stimulus,1,103,,0.0,NoAct
1625193743.096,fixation,1,103,0.846,1.0,NoAct
1625193743.75,stimulus,1,104,,0.0,NoAct
1625193744.486,fixation,1,104,0.236,1.0,NoAct
1625193745.75,stimulus,1,105,,0.0,NoAct
1625193746.644,fixation,1,105,0.394,1.0,NoAct
1625193747.75,stimulus,1,106,,0.0,NoAct
1625193749.615,fixation,1,106,1.365,0.0,NoAct
1625193749.75,stimulus,1,107,,0.0,NoAct
1625193751.221,fixation,1,107,0.971,0.0,NoAct
1625193751.75,stimulus,1,108,,0.0,NoAct
1625193753.053,fixation,1,108,0.803,1.0,NoAct
1625193753.75,stimulus,1,109,,0.0,NoAct
1625193754.975,fixation,1,109,0.725,1.0,NoAct
1625193755.75,stimulus,1,110,,0.0,NoAct
1625193756.834,fixation,1,110,0.584,1.0,NoAct
1625193757.75,stimulus,1,111,,0.0,NoAct
1625193758.574,fixation,1,111,0.324,1.0,NoAct
1625193759.75,stimulus,1,112,,0.0,NoAct
1625193760.455,fixation,1,112,0.205,1.0,NoAct
1625193761.75,stimulus,1,113,,0.0,NoAct
1625193762.812,fixation,1,113,0.562,1.0,NoAct
1625193763.75,stimulus,1,114,,0.0,NoAct
1625193764.781,fixation,1,114,0.531,1.0,NoAct
1625193765.75,stimulus,1,115,,0.0,NoAct
1625193766.677,fixation,1,115,0.427,1.0,NoAct
1625193767.75,stimulus,1,116,,0.0,NoAct
1625193768.43,fixation,1,116,0.18,1.0,NoAct
1625193770.206,stimulus,1,117,0.456,1.0,NoAct
1625193770.25,fixation,1,117,,0.0,NoAct
1625193772.219,stimulus,1,118,0.469,1.0,NoAct
1625193772.25,fixation,1,118,,0.0,NoAct
1625193773.75,stimulus,1,119,,0.0,NoAct
1625193774.361,fixation,1,119,0.111,1.0,NoAct
1625193776.2,stimulus,1,120,0.45,1.0,NoAct
1625193776.25,fixation,1,120,,0.0,NoAct
1625193777.75,stimulus,1,121,,0.0,NoAct
1625193778.541,fixation,1,121,0.291,1.0,NoAct
1625193780.235,stimulus,1,122,0.485,1.0,NoAct
1625193780.25,fixation,1,122,,0.0,NoAct
1625193781.75,stimulus,1,123,,0.0,NoAct
1625193783.563,fixation,1,123,1.313,1.0,NoAct
1625193783.75,stimulus,1,124,,0.0,NoAct
1625193784.986,fixation,1,124,0.736,1.0,NoAct
1625193785.75,stimulus,1,125,,0.0,NoAct
1625193786.788,fixation,1,125,0.538,1.0,NoAct
1625193787.75,stimulus,1,126,,0.0,NoAct
1625193788.44,fixation,1,126,0.19,1.0,NoAct
1625193789.75,stimulus,1,127,,0.0,NoAct
1625193790.52,fixation,1,127,0.27,1.0,NoAct
1625193791.75,stimulus,1,128,,0.0,NoAct
1625193792.911,fixation,1,128,0.661,1.0,NoAct
1625193793.75,stimulus,1,129,,0.0,NoAct
1625193794.474,fixation,1,129,0.224,1.0,NoAct
1625193795.75,stimulus,1,130,,0.0,NoAct
1625193796.372,fixation,1,130,0.122,1.0,NoAct
1625193798.198,stimulus,1,131,0.448,1.0,NoAct
1625193798.25,fixation,1,131,,0.0,NoAct
1625193800.242,stimulus,1,132,0.492,1.0,NoAct
1625193800.25,fixation,1,132,,0.0,NoAct
1625193801.75,stimulus,1,133,,0.0,NoAct
1625193802.56,fixation,1,133,0.31,1.0,NoAct
1625193803.75,stimulus,1,134,,0.0,NoAct
1625193804.253,fixation,1,134,0.003,1.0,NoAct
1625193806.092,stimulus,1,135,0.342,1.0,NoAct
1625193806.25,fixation,1,135,,0.0,NoAct
1625193807.75,stimulus,1,136,,0.0,NoAct
1625193808.456,fixation,1,136,0.206,1.0,NoAct
1625193809.75,stimulus,1,137,,0.0,NoAct
1625193810.386,fixation,1,137,0.136,1.0,NoAct
1625193811.75,stimulus,1,138,,0.0,NoAct
1625193812.252,fixation,1,138,0.002,1.0,NoAct
1625193813.75,stimulus,1,139,,0.0,NoAct
1625193814.773,fixation,1,139,0.523,1.0,NoAct
1625193815.75,stimulus,1,140,,0.0,NoAct
1625193816.842,fixation,1,140,0.592,1.0,NoAct
1625193817.75,stimulus,1,141,,0.0,NoAct
1625193819.018,fixation,1,141,0.768,1.0,NoAct
1625193819.75,stimulus,1,142,,0.0,NoAct
1625193820.731,fixation,1,142,0.481,1.0,NoAct
1625193821.75,stimulus,1,143,,0.0,NoAct
1625193822.939,fixation,1,143,0.689,1.0,NoAct
1625193823.75,stimulus,1,144,,0.0,NoAct
1625193825.04,fixation,1,144,0.79,1.0,NoAct
1625193825.75,stimulus,1,145,,0.0,NoAct
1625193827.105,fixation,1,145,0.855,0.0,NoAct
1625193827.75,stimulus,1,146,,0.0,NoAct
1625193828.25,fixation,1,146,,0.0,NoAct
1625193829.85,stimulus,1,147,0.1,0.0,NoAct
1625193831.131,fixation,1,147,0.881,0.0,NoAct
1625193831.75,stimulus,1,148,,0.0,NoAct
1625193832.302,fixation,1,148,0.052,0.0,NoAct
1625193833.75,stimulus,1,149,,0.0,NoAct
1625193834.835,fixation,1,149,0.585,1.0,NoAct
1625193835.75,stimulus,1,150,,0.0,NoAct
1625193836.834,fixation,1,150,0.584,0.0,NoAct
1625193837.75,stimulus,1,151,,0.0,NoAct
1625193838.624,fixation,1,151,0.374,1.0,NoAct
1625193839.75,stimulus,1,152,,0.0,NoAct
1625193840.755,fixation,1,152,0.505,1.0,NoAct
1625193841.75,stimulus,1,153,,0.0,NoAct
1625193842.821,fixation,1,153,0.571,1.0,NoAct
1625193843.75,stimulus,1,154,,0.0,NoAct
1625193844.827,fixation,1,154,0.577,1.0,NoAct
1625193845.75,stimulus,1,155,,0.0,NoAct
1625193846.45,fixation,1,155,0.2,1.0,NoAct
1625193847.75,stimulus,1,156,,0.0,NoAct
1625193848.388,fixation,1,156,0.138,1.0,NoAct
1625193850.101,stimulus,1,157,0.351,1.0,NoAct
1625193850.25,fixation,1,157,,0.0,NoAct
1625193852.13,stimulus,1,158,0.38,1.0,NoAct
1625193852.25,fixation,1,158,,0.0,NoAct
1625193853.75,stimulus,1,159,,0.0,NoAct
1625193854.601,fixation,1,159,0.351,1.0,NoAct
1625193856.187,stimulus,1,160,0.437,1.0,NoAct
1625193856.25,fixation,1,160,,0.0,NoAct
1625193857.75,stimulus,1,161,,0.0,NoAct
1625193858.376,fixation,1,161,0.126,1.0,NoAct
1625193860.224,stimulus,1,162,0.474,1.0,NoAct
1625193860.25,fixation,1,162,,0.0,NoAct
1625193862.089,stimulus,1,163,0.339,1.0,NoAct
1625193862.25,fixation,1,163,,0.0,NoAct
1625193864.205,stimulus,1,164,0.455,1.0,NoAct
1625193864.25,fixation,1,164,,0.0,NoAct
1625193865.75,stimulus,1,165,,0.0,NoAct
1625193866.457,fixation,1,165,0.207,1.0,NoAct
1625193868.188,stimulus,1,166,0.438,1.0,NoAct
1625193868.25,fixation,1,166,,0.0,NoAct
1625193870.212,stimulus,1,167,0.462,1.0,NoAct
1625193870.25,fixation,1,167,,0.0,NoAct
1625193872.221,stimulus,1,168,0.471,1.0,NoAct
1625193872.25,fixation,1,168,,0.0,NoAct
1625193874.212,stimulus,1,169,0.462,1.0,NoAct
1625193874.25,fixation,1,169,,0.0,NoAct
1625193875.75,stimulus,1,170,,0.0,NoAct
1625193876.36,fixation,1,170,0.11,1.0,NoAct
1625193878.087,stimulus,1,171,0.337,1.0,NoAct
1625193878.25,fixation,1,171,,0.0,NoAct
1625193879.75,stimulus,1,172,,0.0,NoAct
1625193880.355,fixation,1,172,0.105,1.0,NoAct
1625193881.75,stimulus,1,173,,0.0,NoAct
1625193882.265,fixation,1,173,0.015,1.0,NoAct
1625193883.75,stimulus,1,174,,0.0,NoAct
1625193884.435,fixation,1,174,0.185,1.0,NoAct
1625193886.171,stimulus,1,175,0.421,0.0,NoAct
1625193886.25,fixation,1,175,,0.0,NoAct
1625193888.153,stimulus,1,176,0.403,1.0,NoAct
1625193888.25,fixation,1,176,,0.0,NoAct
1625193889.75,stimulus,1,177,,0.0,NoAct
1625193890.462,fixation,1,177,0.212,1.0,NoAct
1625193892.1,stimulus,1,178,0.35,1.0,NoAct
1625193892.25,fixation,1,178,,0.0,NoAct
1625193893.75,stimulus,1,179,,0.0,NoAct
1625193894.357,fixation,1,179,0.107,1.0,NoAct
1625193896.13,stimulus,1,180,0.38,0.0,NoAct
1625193896.25,fixation,1,180,,0.0,NoAct
1625193897.75,stimulus,1,181,,0.0,NoAct
1625193898.378,fixation,1,181,0.128,1.0,NoAct
1625193899.75,stimulus,1,182,,0.0,NoAct
1625193900.412,fixation,1,182,0.162,1.0,NoAct
1625193901.75,stimulus,1,183,,0.0,NoAct
1625193902.34,fixation,1,183,0.09,1.0,NoAct
1625193903.75,stimulus,1,184,,0.0,NoAct
1625193904.374,fixation,1,184,0.124,1.0,NoAct
1625193906.204,stimulus,1,185,0.454,1.0,NoAct
1625193906.25,fixation,1,185,,0.0,NoAct
1625193907.75,stimulus,1,186,,0.0,NoAct
1625193908.454,fixation,1,186,0.204,1.0,NoAct
1625193910.152,stimulus,1,187,0.402,1.0,NoAct
1625193910.25,fixation,1,187,,0.0,NoAct
1625193911.75,stimulus,1,188,,0.0,NoAct
1625193912.782,fixation,1,188,0.532,1.0,NoAct
1625193913.75,stimulus,1,189,,0.0,NoAct
1625193914.836,fixation,1,189,0.586,1.0,NoAct
1625193915.75,stimulus,1,190,,0.0,NoAct
1625193916.786,fixation,1,190,0.536,1.0,NoAct
1625193917.75,stimulus,1,191,,0.0,NoAct
1625193918.682,fixation,1,191,0.432,1.0,NoAct
1625193919.75,stimulus,1,192,,0.0,NoAct
1625193920.65,fixation,1,192,0.4,1.0,NoAct
1625193921.75,stimulus,1,193,,0.0,NoAct
1625193922.505,fixation,1,193,0.255,1.0,NoAct
1625193923.75,stimulus,1,194,,0.0,NoAct
1625193924.729,fixation,1,194,0.479,1.0,NoAct
1625193925.75,stimulus,1,195,,0.0,NoAct
1625193926.485,fixation,1,195,0.235,1.0,NoAct
1625193927.75,stimulus,1,196,,0.0,NoAct
1625193928.498,fixation,1,196,0.248,1.0,NoAct
1625193929.75,stimulus,1,197,,0.0,NoAct
1625193930.563,fixation,1,197,0.313,1.0,NoAct
1625193931.75,stimulus,1,198,,0.0,NoAct
1625193932.397,fixation,1,198,0.147,1.0,NoAct
1625193933.75,stimulus,1,199,,0.0,NoAct
1625193934.423,fixation,1,199,0.173,1.0,NoAct
1625193935.75,stimulus,1,200,,0.0,NoAct
1625193936.952,fixation,1,200,0.702,1.0,NoAct
1625193937.75,stimulus,1,201,,0.0,NoAct
1625193938.984,fixation,1,201,0.734,1.0,NoAct
1625193939.75,stimulus,1,202,,0.0,NoAct
1625193940.655,fixation,1,202,0.405,1.0,NoAct
1625193941.75,stimulus,1,203,,0.0,NoAct
1625193943.029,fixation,1,203,0.779,0.0,NoAct
1625193943.75,stimulus,1,204,,0.0,NoAct
1625193945.683,fixation,1,204,1.433,1.0,NoAct
1625193945.75,stimulus,1,205,,0.0,NoAct
1625193947.721,fixation,1,205,1.471,1.0,NoAct
1625193947.75,stimulus,1,206,,0.0,NoAct
1625193948.25,fixation,1,206,,0.0,NoAct
1625193949.75,stimulus,1,207,,0.0,NoAct
1625193950.521,fixation,1,207,0.271,1.0,NoAct
1625193951.781,stimulus,1,208,0.031,0.0,NoAct
1625193952.25,fixation,1,208,,0.0,NoAct
1625193953.75,stimulus,1,209,,0.0,NoAct
1625193955.063,fixation,1,209,0.813,1.0,NoAct
1625193955.75,stimulus,1,210,,0.0,NoAct
1625193957.111,fixation,1,210,0.861,1.0,NoAct
1625193957.75,stimulus,1,211,,0.0,NoAct
1625193959.068,fixation,1,211,0.818,0.0,NoAct
1625193959.75,stimulus,1,212,,0.0,NoAct
1625193960.621,fixation,1,212,0.371,1.0,NoAct
1625193961.75,stimulus,1,213,,0.0,NoAct
1625193962.543,fixation,1,213,0.293,1.0,NoAct
1625193963.75,stimulus,1,214,,0.0,NoAct
1625193964.486,fixation,1,214,0.236,1.0,NoAct
1625193965.75,stimulus,1,215,,0.0,NoAct
1625193967.508,fixation,1,215,1.258,1.0,NoAct
1625193967.75,stimulus,1,216,,0.0,NoAct
1625193969.125,fixation,1,216,0.875,1.0,NoAct
1625193969.75,stimulus,1,217,,0.0,NoAct
1625193970.847,fixation,1,217,0.597,1.0,NoAct
1625193971.75,stimulus,1,218,,0.0,NoAct
1625193973.102,fixation,1,218,0.852,1.0,NoAct
1625193973.75,stimulus,1,219,,0.0,NoAct
1625193974.684,fixation,1,219,0.434,1.0,NoAct
1625193975.75,stimulus,1,220,,0.0,NoAct
1625193976.3,fixation,1,220,0.05,1.0,NoAct
1625193977.75,stimulus,1,221,,,NoAct
1625193978.25,fixation,1,221,,,NoAct
1625193979.75,stimulus,1,222,,0.0,NoAct
1625193980.551,fixation,1,222,0.301,1.0,NoAct
1625193981.75,stimulus,1,223,,0.0,NoAct
1625193982.451,fixation,1,223,0.201,1.0,NoAct
1625193983.75,stimulus,1,224,,0.0,NoAct
1625193984.63,fixation,1,224,0.38,1.0,NoAct
1625193985.75,stimulus,1,225,,0.0,NoAct
1625193986.782,fixation,1,225,0.532,1.0,NoAct
1625193987.75,stimulus,1,226,,0.0,NoAct
1625193989.348,fixation,1,226,1.098,1.0,NoAct
1625193989.75,stimulus,1,227,,0.0,NoAct
1625193991.54,fixation,1,227,1.29,1.0,NoAct
1625193991.75,stimulus,1,228,,0.0,NoAct
1625193993.241,fixation,1,228,0.991,1.0,NoAct
1625193993.75,stimulus,1,229,,0.0,NoAct
1625193994.25,fixation,1,229,,0.0,NoAct
1625193995.784,stimulus,1,230,0.034,1.0,NoAct
1625193997.186,fixation,1,230,0.936,0.0,NoAct
1625193997.75,stimulus,1,231,,0.0,NoAct
1625193999.312,fixation,1,231,1.062,1.0,NoAct
1625193999.75,stimulus,1,232,,0.0,NoAct
1625194000.958,fixation,1,232,0.708,1.0,NoAct
1625194001.75,stimulus,1,233,,0.0,NoAct
1625194002.25,fixation,1,233,,0.0,NoAct
1625194003.913,stimulus,1,234,0.163,0.0,NoAct
1625194005.232,fixation,1,234,0.982,0.0,NoAct
1625194005.75,stimulus,1,235,,0.0,NoAct
1625194006.738,fixation,1,235,0.488,0.0,NoAct
1625194007.75,stimulus,1,236,,0.0,NoAct
1625194008.916,fixation,1,236,0.666,0.0,NoAct
1625194009.75,stimulus,1,237,,0.0,NoAct
1625194011.027,fixation,1,237,0.777,1.0,NoAct
1625194011.75,stimulus,1,238,,0.0,NoAct
1625194012.432,fixation,1,238,0.182,1.0,NoAct
1625194013.75,stimulus,1,239,,0.0,NoAct
1625194015.14,fixation,1,239,0.89,0.0,NoAct
1625194015.75,stimulus,1,240,,0.0,NoAct
1625194016.87,fixation,1,240,0.62,1.0,NoAct
1625194017.75,stimulus,1,241,,0.0,NoAct
1625194019.005,fixation,1,241,0.755,1.0,NoAct
1625194019.75,stimulus,1,242,,0.0,NoAct
1625194021.126,fixation,1,242,0.876,1.0,NoAct
1625194021.75,stimulus,1,243,,0.0,NoAct
1625194022.343,fixation,1,243,0.093,1.0,NoAct
1625194023.75,stimulus,1,244,,0.0,NoAct
1625194024.547,fixation,1,244,0.297,1.0,NoAct
1625194025.75,stimulus,1,245,,0.0,NoAct
1625194026.397,fixation,1,245,0.147,1.0,NoAct
1625194027.75,stimulus,1,246,,0.0,NoAct
1625194028.902,fixation,1,246,0.652,1.0,NoAct
1625194029.75,stimulus,1,247,,0.0,NoAct
1625194030.937,fixation,1,247,0.687,1.0,NoAct
1625194031.75,stimulus,1,248,,0.0,NoAct
1625194032.717,fixation,1,248,0.467,1.0,NoAct
1625194033.75,stimulus,1,249,,0.0,NoAct
1625194034.642,fixation,1,249,0.392,1.0,NoAct
1625194035.75,stimulus,1,250,,0.0,NoAct
1625194036.651,fixation,1,250,0.401,1.0,NoAct
1625194037.75,stimulus,1,251,,0.0,NoAct
1625194038.778,fixation,1,251,0.528,1.0,NoAct
1625194039.75,stimulus,1,252,,0.0,NoAct
1625194040.709,fixation,1,252,0.459,1.0,NoAct
1625194041.75,stimulus,1,253,,0.0,NoAct
1625194042.675,fixation,1,253,0.425,1.0,NoAct
1625194043.75,stimulus,1,254,,0.0,NoAct
1625194044.84,fixation,1,254,0.59,1.0,NoAct
1625194045.75,stimulus,1,255,,0.0,NoAct
1625194046.747,fixation,1,255,0.497,1.0,NoAct
1625194047.75,stimulus,1,256,,0.0,NoAct
1625194048.701,fixation,1,256,0.451,1.0,NoAct
1625194049.75,stimulus,1,257,,0.0,NoAct
1625194050.585,fixation,1,257,0.335,1.0,NoAct
1625194051.75,stimulus,1,258,,0.0,NoAct
1625194052.557,fixation,1,258,0.307,1.0,NoAct
1625194053.75,stimulus,1,259,,0.0,NoAct
1625194054.602,fixation,1,259,0.352,1.0,NoAct
1625194056.246,stimulus,1,260,0.496,1.0,NoAct
1625194056.25,fixation,1,260,,0.0,NoAct
1625194057.75,stimulus,1,261,,0.0,NoAct
1625194058.37,fixation,1,261,0.12,1.0,NoAct
1625194059.75,stimulus,1,262,,0.0,NoAct
1625194060.369,fixation,1,262,0.119,1.0,NoAct
1625194061.75,stimulus,1,263,,0.0,NoAct
1625194062.365,fixation,1,263,0.115,1.0,NoAct
1625194063.75,stimulus,1,264,,0.0,NoAct
1625194065.387,fixation,1,264,1.137,0.0,NoAct
1625194065.75,stimulus,1,265,,0.0,NoAct
1625194066.656,fixation,1,265,0.406,1.0,NoAct
1625194067.75,stimulus,1,266,,0.0,NoAct
1625194068.451,fixation,1,266,0.201,1.0,NoAct
1625194069.75,stimulus,1,267,,0.0,NoAct
1625194070.25,fixation,1,267,,0.0,NoAct
1625194072.188,stimulus,1,268,0.438,1.0,NoAct
1625194072.25,fixation,1,268,,0.0,NoAct
1625194073.75,stimulus,1,269,,0.0,NoAct
1625194074.36,fixation,1,269,0.11,1.0,NoAct
1625194075.75,stimulus,1,270,,0.0,NoAct
1625194076.259,fixation,1,270,0.009,1.0,NoAct
1625194077.75,stimulus,1,271,,0.0,NoAct
1625194078.372,fixation,1,271,0.122,1.0,NoAct
1625194079.75,stimulus,1,272,,0.0,NoAct
1625194080.317,fixation,1,272,0.067,1.0,NoAct
1625194081.75,stimulus,1,273,,0.0,NoAct
1625194082.264,fixation,1,273,0.014,1.0,NoAct
1625194084.197,stimulus,1,274,0.447,1.0,NoAct
1625194084.25,fixation,1,274,,0.0,NoAct
1625194085.75,stimulus,1,275,,0.0,NoAct
1625194086.36,fixation,1,275,0.11,1.0,NoAct
1625194087.75,stimulus,1,276,,0.0,NoAct
1625194088.566,fixation,1,276,0.316,1.0,NoAct
1625194089.75,stimulus,1,277,,0.0,NoAct
1625194090.392,fixation,1,277,0.142,1.0,NoAct
1625194091.75,stimulus,1,278,,0.0,NoAct
1625194092.267,fixation,1,278,0.017,1.0,NoAct
1625194094.154,stimulus,1,279,0.404,1.0,NoAct
1625194094.25,fixation,1,279,,0.0,NoAct
1625194095.75,stimulus,1,280,,0.0,NoAct
1625194096.25,fixation,1,280,,0.0,NoAct
1625194098.212,stimulus,1,281,0.462,1.0,NoAct
1625194098.25,fixation,1,281,,0.0,NoAct
1625194100.237,stimulus,1,282,0.487,1.0,NoAct
1625194100.25,fixation,1,282,,0.0,NoAct
1625194101.75,stimulus,1,283,,0.0,NoAct
1625194102.276,fixation,1,283,0.026,1.0,NoAct
1625194103.75,stimulus,1,284,,0.0,NoAct
1625194104.281,fixation,1,284,0.031,1.0,NoAct
1625194105.75,stimulus,1,285,,0.0,NoAct
1625194106.481,fixation,1,285,0.231,1.0,NoAct
1625194107.75,stimulus,1,286,,0.0,NoAct
1625194108.413,fixation,1,286,0.163,1.0,NoAct
1625194109.75,stimulus,1,287,,0.0,NoAct
1625194110.472,fixation,1,287,0.222,1.0,NoAct
1625194111.75,stimulus,1,288,,0.0,NoAct
1625194112.544,fixation,1,288,0.294,1.0,NoAct
1625194113.75,stimulus,1,289,,0.0,NoAct
1625194114.533,fixation,1,289,0.283,1.0,NoAct
1625194115.75,stimulus,1,290,,0.0,NoAct
1625194116.498,fixation,1,290,0.248,1.0,NoAct
1625194117.75,stimulus,1,291,,0.0,NoAct
1625194118.702,fixation,1,291,0.452,1.0,NoAct
1625194119.75,stimulus,1,292,,0.0,NoAct
1625194120.882,fixation,1,292,0.632,1.0,NoAct
1625194121.75,stimulus,1,293,,0.0,NoAct
1625194122.571,fixation,1,293,0.321,1.0,NoAct
1625194123.75,stimulus,1,294,,0.0,NoAct
1625194124.25,fixation,1,294,,0.0,NoAct
1625194125.821,stimulus,1,295,0.071,1.0,NoAct
1625194127.365,fixation,1,295,1.115,0.0,NoAct
1625194127.76,stimulus,1,296,0.01,1.0,NoAct
1625194129.198,fixation,1,296,0.948,1.0,NoAct
1625194129.75,stimulus,1,297,,0.0,NoAct
1625194131.412,fixation,1,297,1.162,0.0,NoAct
1625194131.75,stimulus,1,298,,0.0,NoAct
1625194132.25,fixation,1,298,,0.0,NoAct
1625194133.75,stimulus,1,299,,0.0,NoAct
1625194134.797,fixation,1,299,0.547,1.0,NoAct
1625194135.75,stimulus,1,300,,0.0,NoAct
1625194136.908,fixation,1,300,0.658,1.0,NoAct
1625194137.75,stimulus,1,301,,0.0,NoAct
1625194138.89,fixation,1,301,0.64,1.0,NoAct
1625194139.75,stimulus,1,302,,0.0,NoAct
1625194141.645,fixation,1,302,1.395,1.0,NoAct
1625194141.75,stimulus,1,303,,0.0,NoAct
1625194143.536,fixation,1,303,1.286,1.0,NoAct
1625194143.75,stimulus,1,304,,0.0,NoAct
1625194144.25,fixation,1,304,,0.0,NoAct
1625194145.836,stimulus,1,305,0.086,0.0,NoAct
1625194147.38,fixation,1,305,1.13,1.0,NoAct
1625194147.75,stimulus,1,306,,0.0,NoAct
1625194148.25,fixation,1,306,,0.0,NoAct
1625194149.98,stimulus,1,307,0.23,0.0,NoAct
1625194150.25,fixation,1,307,,0.0,NoAct
1625194151.826,stimulus,1,308,0.076,1.0,NoAct
1625194153.641,fixation,1,308,1.391,1.0,NoAct
1625194153.75,stimulus,1,309,,0.0,NoAct
1625194155.152,fixation,1,309,0.902,1.0,NoAct
1625194155.75,stimulus,1,310,,0.0,NoAct
1625194156.255,fixation,1,310,0.005,1.0,NoAct
1625194158.039,stimulus,1,311,0.289,1.0,NoAct
1625194158.25,fixation,1,311,,0.0,NoAct
1625194160.227,stimulus,1,312,0.477,1.0,NoAct
1625194160.25,fixation,1,312,,0.0,NoAct
1625194161.75,stimulus,1,313,,0.0,NoAct
1625194162.649,fixation,1,313,0.399,1.0,NoAct
1625194163.75,stimulus,1,314,,0.0,NoAct
1625194164.732,fixation,1,314,0.482,0.0,NoAct
1625194165.75,stimulus,1,315,,0.0,NoAct
1625194166.724,fixation,1,315,0.474,1.0,NoAct
1625194167.75,stimulus,1,316,,0.0,NoAct
1625194168.535,fixation,1,316,0.285,1.0,NoAct
1625194169.75,stimulus,1,317,,0.0,NoAct
1625194170.497,fixation,1,317,0.247,1.0,NoAct
1625194171.75,stimulus,1,318,,0.0,NoAct
1625194173.112,fixation,1,318,0.862,1.0,NoAct
1625194173.75,stimulus,1,319,,0.0,NoAct
1625194174.871,fixation,1,319,0.621,0.0,NoAct
1625194175.75,stimulus,1,320,,0.0,NoAct
1625194177.253,fixation,1,320,1.003,1.0,NoAct
1625194177.75,stimulus,1,321,,0.0,NoAct
1625194178.802,fixation,1,321,0.552,1.0,NoAct
1625194179.75,stimulus,1,322,,0.0,NoAct
1625194180.481,fixation,1,322,0.231,1.0,NoAct
1625194181.75,stimulus,1,323,,0.0,NoAct
1625194183.162,fixation,1,323,0.912,0.0,NoAct
1625194183.75,stimulus,1,324,,0.0,NoAct
1625194184.697,fixation,1,324,0.447,1.0,NoAct
1625194185.75,stimulus,1,325,,0.0,NoAct
1625194186.856,fixation,1,325,0.606,1.0,NoAct
1625194187.75,stimulus,1,326,,0.0,NoAct
1625194188.601,fixation,1,326,0.351,1.0,NoAct
1625194189.75,stimulus,1,327,,0.0,NoAct
1625194190.834,fixation,1,327,0.584,1.0,NoAct
1625194191.75,stimulus,1,328,,0.0,NoAct
1625194192.557,fixation,1,328,0.307,0.0,NoAct
1625194193.75,stimulus,1,329,,0.0,NoAct
1625194194.778,fixation,1,329,0.528,1.0,NoAct
1625194195.75,stimulus,1,330,,0.0,NoAct
1625194196.583,fixation,1,330,0.333,1.0,NoAct
1625194197.75,stimulus,1,331,,0.0,NoAct
1625194198.537,fixation,1,331,0.287,1.0,NoAct
1625194199.75,stimulus,1,332,,0.0,NoAct
1625194200.454,fixation,1,332,0.204,1.0,NoAct
1625194201.75,stimulus,1,333,,0.0,NoAct
1625194202.414,fixation,1,333,0.164,1.0,NoAct
1625194203.75,stimulus,1,334,,0.0,NoAct
1625194204.367,fixation,1,334,0.117,1.0,NoAct
1625194205.75,stimulus,1,335,,0.0,NoAct
1625194206.712,fixation,1,335,0.462,1.0,NoAct
1625194207.75,stimulus,1,336,,0.0,NoAct
1625194208.325,fixation,1,336,0.075,1.0,NoAct
1625194209.75,stimulus,1,337,,0.0,NoAct
1625194210.251,fixation,1,337,0.001,1.0,NoAct
1625194211.75,stimulus,1,338,,0.0,NoAct
1625194212.302,fixation,1,338,0.052,1.0,NoAct
1625194213.75,stimulus,1,339,,0.0,NoAct
1625194214.316,fixation,1,339,0.066,0.0,NoAct
1625194215.75,stimulus,1,340,,0.0,NoAct
1625194216.367,fixation,1,340,0.117,1.0,NoAct
1625194217.75,stimulus,1,341,,0.0,NoAct
1625194218.343,fixation,1,341,0.093,1.0,NoAct
1625194219.75,stimulus,1,342,,0.0,NoAct
1625194220.351,fixation,1,342,0.101,1.0,NoAct
1625194221.75,stimulus,1,343,,0.0,NoAct
1625194222.359,fixation,1,343,0.109,1.0,NoAct
1625194223.75,stimulus,1,344,,0.0,NoAct
1625194224.325,fixation,1,344,0.075,1.0,NoAct
1625194225.75,stimulus,1,345,,0.0,NoAct
1625194226.505,fixation,1,345,0.255,1.0,NoAct
1625194227.75,stimulus,1,346,,0.0,NoAct
1625194228.362,fixation,1,346,0.112,1.0,NoAct
1625194230.201,stimulus,1,347,0.451,1.0,NoAct
1625194230.25,fixation,1,347,,0.0,NoAct
1625194232.234,stimulus,1,348,0.484,0.0,NoAct
1625194232.25,fixation,1,348,,0.0,NoAct
1625194233.75,stimulus,1,349,,0.0,NoAct
1625194234.537,fixation,1,349,0.287,1.0,NoAct
1625194235.75,stimulus,1,350,,0.0,NoAct
1625194236.608,fixation,1,350,0.358,1.0,NoAct
1625194237.75,stimulus,1,351,,0.0,NoAct
1625194238.624,fixation,1,351,0.374,1.0,NoAct
1625194239.75,stimulus,1,352,,0.0,NoAct
1625194240.535,fixation,1,352,0.285,1.0,NoAct
1625194241.75,stimulus,1,353,,0.0,NoAct
1625194242.625,fixation,1,353,0.375,1.0,NoAct
1625194243.75,stimulus,1,354,,0.0,NoAct
1625194244.302,fixation,1,354,0.052,1.0,NoAct
1625194245.75,stimulus,1,355,,0.0,NoAct
1625194246.258,fixation,1,355,0.008,1.0,NoAct
1625194247.75,stimulus,1,356,,0.0,NoAct
1625194248.382,fixation,1,356,0.132,1.0,NoAct
1625194249.75,stimulus,1,357,,0.0,NoAct
1625194250.513,fixation,1,357,0.263,1.0,NoAct
1625194252.249,stimulus,1,358,0.499,1.0,NoAct
1625194252.25,fixation,1,358,,0.0,NoAct
1625194253.75,stimulus,1,359,,0.0,NoAct
1625194254.875,fixation,1,359,0.625,1.0,NoAct
1625194255.75,stimulus,1,360,,0.0,NoAct
1625194256.572,fixation,1,360,0.322,1.0,NoAct
1625194257.75,stimulus,1,361,,0.0,NoAct
1625194258.457,fixation,1,361,0.207,1.0,NoAct
1625194259.75,stimulus,1,362,,0.0,NoAct
1625194260.504,fixation,1,362,0.254,1.0,NoAct
1625194261.75,stimulus,1,363,,0.0,NoAct
1625194262.741,fixation,1,363,0.491,1.0,NoAct
1625194263.75,stimulus,1,364,,0.0,NoAct
1625194265.061,fixation,1,364,0.811,0.0,NoAct
1625194265.75,stimulus,1,365,,0.0,NoAct
1625194267.448,fixation,1,365,1.198,1.0,NoAct
1625194267.75,stimulus,1,366,,0.0,NoAct
1625194269.096,fixation,1,366,0.846,1.0,NoAct
1625194269.75,stimulus,1,367,,0.0,NoAct
1625194270.93,fixation,1,367,0.68,0.0,NoAct
1625194271.75,stimulus,1,368,,0.0,NoAct
1625194272.729,fixation,1,368,0.479,1.0,NoAct
1625194273.75,stimulus,1,369,,0.0,NoAct
1625194274.812,fixation,1,369,0.562,0.0,NoAct
1625194275.75,stimulus,1,370,,0.0,NoAct
1625194277.151,fixation,1,370,0.901,0.0,NoAct
1625194277.75,stimulus,1,371,,0.0,NoAct
1625194279.174,fixation,1,371,0.924,1.0,NoAct
1625194279.75,stimulus,1,372,,0.0,NoAct
1625194281.052,fixation,1,372,0.802,1.0,NoAct
1625194281.75,stimulus,1,373,,0.0,NoAct
1625194282.592,fixation,1,373,0.342,1.0,NoAct
1625194283.75,stimulus,1,374,,0.0,NoAct
1625194284.457,fixation,1,374,0.207,1.0,NoAct
1625194285.75,stimulus,1,375,,0.0,NoAct
1625194286.503,fixation,1,375,0.253,1.0,NoAct
1625194287.75,stimulus,1,376,,0.0,NoAct
1625194288.503,fixation,1,376,0.253,1.0,NoAct
1625194289.75,stimulus,1,377,,0.0,NoAct
1625194290.439,fixation,1,377,0.189,1.0,NoAct
1625194291.75,stimulus,1,378,,0.0,NoAct
1625194292.531,fixation,1,378,0.281,1.0,NoAct
1625194293.75,stimulus,1,379,,0.0,NoAct
1625194294.394,fixation,1,379,0.144,1.0,NoAct
1625194295.75,stimulus,1,380,,0.0,NoAct
1625194296.496,fixation,1,380,0.246,1.0,NoAct
1625194297.75,stimulus,1,381,,0.0,NoAct
1625194298.941,fixation,1,381,0.691,1.0,NoAct
1625194299.75,stimulus,1,382,,0.0,NoAct
1625194300.335,fixation,1,382,0.085,1.0,NoAct
1625194301.75,stimulus,1,383,,0.0,NoAct
1625194302.386,fixation,1,383,0.136,1.0,NoAct
1625194303.75,stimulus,1,384,,0.0,NoAct
1625194304.381,fixation,1,384,0.131,1.0,NoAct
1625194305.75,stimulus,1,385,,0.0,NoAct
1625194306.301,fixation,1,385,0.051,1.0,NoAct
1625194308.13,stimulus,1,386,0.38,0.0,NoAct
1625194308.25,fixation,1,386,,0.0,NoAct
1625194309.75,stimulus,1,387,,0.0,NoAct
1625194310.294,fixation,1,387,0.044,1.0,NoAct
1625194311.75,stimulus,1,388,,0.0,NoAct
1625194312.35,fixation,1,388,0.1,1.0,NoAct
1625194313.75,stimulus,1,389,,0.0,NoAct
1625194314.799,fixation,1,389,0.549,1.0,NoAct
1625194315.75,stimulus,1,390,,0.0,NoAct
1625194316.354,fixation,1,390,0.104,1.0,NoAct
1625194317.75,stimulus,1,391,,0.0,NoAct
1625194318.363,fixation,1,391,0.113,1.0,NoAct
1625194320.212,stimulus,1,392,0.462,1.0,NoAct
1625194320.25,fixation,1,392,,0.0,NoAct
1625194321.75,stimulus,1,393,,0.0,NoAct
1625194322.325,fixation,1,393,0.075,1.0,NoAct
1625194323.75,stimulus,1,394,,0.0,NoAct
1625194324.25,fixation,1,394,,0.0,NoAct
1625194326.18,stimulus,1,395,0.43,1.0,NoAct
1625194326.25,fixation,1,395,,0.0,NoAct
1625194327.75,stimulus,1,396,,0.0,NoAct
1625194328.354,fixation,1,396,0.104,1.0,NoAct
1625194329.75,stimulus,1,397,,0.0,NoAct
1625194330.306,fixation,1,397,0.056,1.0,NoAct
1625194331.75,stimulus,1,398,,,PerfumeSession
1625194332.25,fixation,1,398,,,PerfumeSession
1625194333.75,stimulus,1,399,,,PerfumeSession
1625194334.25,fixation,1,399,,,PerfumeSession
1625194335.75,stimulus,1,400,,,PerfumeSession
1625194336.25,fixation,1,400,,,PerfumeSession
1625194337.75,stimulus,1,401,,,PerfumeSession
1625194338.25,fixation,1,401,,,PerfumeSession
1625194339.75,stimulus,1,402,,,PerfumeSession
1625194340.25,fixation,1,402,,,PerfumeSession
1625194341.75,stimulus,1,403,,,PerfumeSession
1625194342.25,fixation,1,403,,,PerfumeSession
1625194343.75,stimulus,1,404,,,PerfumeSession
1625194344.25,fixation,1,404,,,PerfumeSession
1625194345.75,stimulus,1,405,,,PerfumeSession
1625194346.25,fixation,1,405,,,PerfumeSession
1625194347.75,stimulus,1,406,,,PerfumeSession
1625194348.25,fixation,1,406,,,PerfumeSession
1625194349.75,stimulus,1,407,,,PerfumeSession
1625194350.25,fixation,1,407,,,PerfumeSession
1625194351.75,stimulus,1,408,,,PerfumeSession
1625194352.25,fixation,1,408,,,PerfumeSession
1625194353.75,stimulus,1,409,,,PerfumeSession
1625194354.25,fixation,1,409,,,PerfumeSession
1625194355.75,stimulus,1,410,,,PerfumeSession
1625194356.25,fixation,1,410,,,PerfumeSession
1625194357.75,stimulus,1,411,,,PerfumeSession
1625194358.25,fixation,1,411,,,PerfumeSession
1625194359.75,stimulus,1,412,,,PerfumeSession
1625194360.25,fixation,1,412,,,PerfumeSession
1625194361.75,stimulus,1,413,,,PerfumeSession
1625194362.25,fixation,1,413,,,PerfumeSession
1625194363.75,stimulus,1,414,,,PerfumeSession
1625194364.25,fixation,1,414,,,PerfumeSession
1625194365.75,stimulus,1,415,,,PerfumeSession
1625194366.25,fixation,1,415,,,PerfumeSession
1625194367.75,stimulus,1,416,,,PerfumeSession
1625194368.25,fixation,1,416,,,PerfumeSession
1625194369.75,stimulus,1,417,,,PerfumeSession
1625194370.25,fixation,1,417,,,PerfumeSession
1625194371.75,stimulus,1,418,,,PerfumeSession
1625194372.25,fixation,1,418,,,PerfumeSession
1625194373.75,stimulus,1,419,,,PerfumeSession
1625194374.25,fixation,1,419,,,PerfumeSession
1625194375.75,stimulus,1,420,,,PerfumeSession
1625194376.25,fixation,1,420,,,PerfumeSession
1625194377.75,stimulus,1,421,,,PerfumeSession
1625194378.25,fixation,1,421,,,PerfumeSession
1625194379.75,stimulus,1,422,,,PerfumeSession
1625194380.25,fixation,1,422,,,PerfumeSession
1625194381.75,stimulus,1,423,,,PerfumeSession
1625194382.25,fixation,1,423,,,PerfumeSession
1625194383.75,stimulus,1,424,,,PerfumeSession
1625194384.25,fixation,1,424,,,PerfumeSession
1625194385.75,stimulus,1,425,,,PerfumeSession
1625194386.25,fixation,1,425,,,PerfumeSession
1625194387.75,stimulus,1,426,,,PerfumeSession
1625194388.25,fixation,1,426,,,PerfumeSession
1625194389.75,stimulus,1,427,,,PerfumeSession
1625194390.25,fixation,1,427,,,PerfumeSession
1625194391.75,stimulus,1,428,,,PerfumeSession
1625194392.25,fixation,1,428,,,PerfumeSession
1625194393.75,stimulus,1,429,,,PerfumeSession
1625194394.25,fixation,1,429,,,PerfumeSession
1625194395.75,stimulus,1,430,,,PerfumeSession
1625194396.25,fixation,1,430,,,PerfumeSession
1625194397.75,stimulus,1,431,,,PerfumeSession
1625194398.25,fixation,1,431,,,PerfumeSession
1625194399.75,stimulus,1,432,,,PerfumeSession
1625194400.25,fixation,1,432,,,PerfumeSession
1625194401.75,stimulus,1,433,,,PerfumeSession
1625194402.25,fixation,1,433,,,PerfumeSession
1625194403.75,stimulus,1,434,,,PerfumeSession
1625194404.25,fixation,1,434,,,PerfumeSession
1625194405.75,stimulus,1,435,,,PerfumeSession
1625194406.25,fixation,1,435,,,PerfumeSession
1625194407.75,stimulus,1,436,,,PerfumeSession
1625194408.25,fixation,1,436,,,PerfumeSession
1625194409.75,stimulus,1,437,,,PerfumeSession
1625194410.25,fixation,1,437,,,PerfumeSession
1625194411.75,stimulus,1,438,,,PerfumeSession
1625194412.25,fixation,1,438,,,PerfumeSession
1625194413.75,stimulus,1,439,,,PerfumeSession
1625194414.25,fixation,1,439,,,PerfumeSession
1625194415.75,stimulus,1,440,,,PerfumeSession
1625194416.25,fixation,1,440,,,PerfumeSession
1625194417.75,stimulus,1,441,,,PerfumeSession
1625194418.25,fixation,1,441,,,PerfumeSession
1625194419.75,stimulus,1,442,,,PerfumeSession
1625194420.25,fixation,1,442,,,PerfumeSession
1625194421.75,stimulus,1,443,,,PerfumeSession
1625194422.25,fixation,1,443,,,PerfumeSession
1625194423.75,stimulus,1,444,,,PerfumeSession
1625194424.25,fixation,1,444,,,PerfumeSession
1625194425.75,stimulus,1,445,,,PerfumeSession
1625194426.25,fixation,1,445,,,PerfumeSession
1625194427.75,stimulus,1,446,,,PerfumeSession
1625194428.25,fixation,1,446,,,PerfumeSession
1625194429.75,stimulus,1,447,,,PerfumeSession
1625194430.25,fixation,1,447,,,PerfumeSession
1625194431.75,stimulus,1,448,,,PerfumeSession
1625194432.25,fixation,1,448,,,PerfumeSession
1625194433.75,stimulus,1,449,,,PerfumeSession
1625194434.25,fixation,1,449,,,PerfumeSession
1625194435.75,stimulus,1,450,,,PerfumeSession
1625194436.25,fixation,1,450,,,PerfumeSession
1625194437.75,stimulus,1,451,,,PerfumeSession
1625194438.25,fixation,1,451,,,PerfumeSession
1625194439.75,stimulus,1,452,,,PerfumeSession
1625194440.25,fixation,1,452,,,PerfumeSession
1625194441.75,stimulus,1,453,,,PerfumeSession
1625194442.25,fixation,1,453,,,PerfumeSession
1625194443.75,stimulus,1,454,,,PerfumeSession
1625194444.25,fixation,1,454,,,PerfumeSession
1625194445.75,stimulus,1,455,,,PerfumeSession
1625194446.25,fixation,1,455,,,PerfumeSession
1625194447.75,stimulus,1,456,,,PerfumeSession
1625194448.25,fixation,1,456,,,PerfumeSession
1625194449.75,stimulus,1,457,,,PerfumeSession
1625194450.25,fixation,1,457,,,PerfumeSession
1625194451.75,stimulus,1,458,,,PerfumeSession
1625194452.25,fixation,1,458,,,PerfumeSession
1625194453.75,stimulus,1,459,,,PerfumeSession
1625194454.25,fixation,1,459,,,PerfumeSession
1625194455.75,stimulus,1,460,,,PerfumeSession
1625194456.25,fixation,1,460,,,PerfumeSession
1625194457.75,stimulus,1,461,,,PerfumeSession
1625194458.25,fixation,1,461,,,PerfumeSession
1625194459.75,stimulus,1,462,,,PerfumeSession
1625194460.25,fixation,1,462,,,PerfumeSession
1625194461.75,stimulus,1,463,,,PerfumeSession
1625194462.25,fixation,1,463,,,PerfumeSession
1625194463.75,stimulus,1,464,,,PerfumeSession
1625194464.25,fixation,1,464,,,PerfumeSession
1625194465.75,stimulus,1,465,,,PerfumeSession
1625194466.25,fixation,1,465,,,PerfumeSession
1625194467.75,stimulus,1,466,,,PerfumeSession
1625194468.25,fixation,1,466,,,PerfumeSession
1625194469.75,stimulus,1,467,,,PerfumeSession
1625194470.25,fixation,1,467,,,PerfumeSession
1625194471.75,stimulus,1,468,,,PerfumeSession
1625194472.25,fixation,1,468,,,PerfumeSession
1625194473.75,stimulus,1,469,,,PerfumeSession
1625194474.25,fixation,1,469,,,PerfumeSession
1625194475.75,stimulus,1,470,,,PerfumeSession
1625194476.25,fixation,1,470,,,PerfumeSession
1625194477.75,stimulus,1,471,,,PerfumeSession
1625194478.25,fixation,1,471,,,PerfumeSession
1625194479.75,stimulus,1,472,,,PerfumeSession
1625194480.25,fixation,1,472,,,PerfumeSession
1625194481.75,stimulus,1,473,,,PerfumeSession
1625194482.25,fixation,1,473,,,PerfumeSession
1625194483.75,stimulus,1,474,,,PerfumeSession
1625194484.25,fixation,1,474,,,PerfumeSession
1625194485.75,stimulus,1,475,,,PerfumeSession
1625194486.25,fixation,1,475,,,PerfumeSession
1625194487.75,stimulus,1,476,,,PerfumeSession
1625194488.25,fixation,1,476,,,PerfumeSession
1625194489.75,stimulus,1,477,,,PerfumeSession
1625194490.25,fixation,1,477,,,PerfumeSession
1625194491.75,stimulus,1,478,,,PerfumeSession
1625194492.25,fixation,1,478,,,PerfumeSession
1625194493.75,stimulus,1,479,,,PerfumeSession
1625194494.25,fixation,1,479,,,PerfumeSession
1625194495.75,stimulus,1,480,,,PerfumeSession
1625194496.25,fixation,1,480,,,PerfumeSession
1625194497.75,stimulus,1,481,,,PerfumeSession
1625194498.25,fixation,1,481,,,PerfumeSession
1625194499.75,stimulus,1,482,,,PerfumeSession
1625194500.25,fixation,1,482,,,PerfumeSession
1625194501.75,stimulus,1,483,,,PerfumeSession
1625194502.25,fixation,1,483,,,PerfumeSession
1625194503.75,stimulus,1,484,,,PerfumeSession
1625194504.25,fixation,1,484,,,PerfumeSession
1625194505.75,stimulus,1,485,,,PerfumeSession
1625194506.25,fixation,1,485,,,PerfumeSession
1625194507.75,stimulus,1,486,,,PerfumeSession
1625194508.25,fixation,1,486,,,PerfumeSession
1625194509.75,stimulus,1,487,,,PerfumeSession
1625194509.83,stimulus,2,1,,,PracticeSession
1625194510.25,fixation,1,487,,,PerfumeSession
1625194510.33,fixation,2,1,,,PracticeSession
1625194511.75,stimulus,1,488,,,PerfumeSession
1625194511.83,stimulus,2,2,,,PracticeSession
1625194512.25,fixation,1,488,,,PerfumeSession
1625194512.33,fixation,2,2,,,PracticeSession
1625194513.75,stimulus,1,489,,,PerfumeSession
1625194513.83,stimulus,2,3,,,PracticeSession
1625194514.25,fixation,1,489,,,PerfumeSession
1625194514.33,fixation,2,3,,,PracticeSession
1625194515.75,stimulus,1,490,,,PerfumeSession
1625194515.83,stimulus,2,4,,,PracticeSession
1625194516.25,fixation,1,490,,,PerfumeSession
1625194516.33,fixation,2,4,,,PracticeSession
1625194517.75,stimulus,1,491,,,PerfumeSession
1625194517.83,stimulus,2,5,,,PracticeSession
1625194518.25,fixation,1,491,,,PerfumeSession
1625194518.33,fixation,2,5,,,PracticeSession
1625194519.75,stimulus,1,492,,,PerfumeSession
1625194519.83,stimulus,2,6,,,PracticeSession
1625194520.25,fixation,1,492,,,PerfumeSession
1625194520.33,fixation,2,6,,,PracticeSession
1625194521.75,stimulus,1,493,,,PerfumeSession
1625194521.83,stimulus,2,7,,,PracticeSession
1625194522.25,fixation,1,493,,,PerfumeSession
1625194522.33,fixation,2,7,,,PracticeSession
1625194523.75,stimulus,1,494,,,PerfumeSession
1625194523.83,stimulus,2,8,,,PracticeSession
1625194524.25,fixation,1,494,,,PerfumeSession
1625194524.33,fixation,2,8,,,PracticeSession
1625194525.75,stimulus,1,495,,,PerfumeSession
1625194525.83,stimulus,2,9,,,PracticeSession
1625194526.25,fixation,1,495,,,PerfumeSession
1625194526.33,fixation,2,9,,,PracticeSession
1625194527.75,stimulus,1,496,,,PerfumeSession
1625194527.83,stimulus,2,10,,,PracticeSession
1625194528.25,fixation,1,496,,,PerfumeSession
1625194528.33,fixation,2,10,,,PracticeSession
1625194529.75,stimulus,1,497,,,PerfumeSession
1625194529.83,stimulus,2,11,,,PracticeSession
1625194530.25,fixation,1,497,,,PerfumeSession
1625194530.33,fixation,2,11,,,PracticeSession
1625194531.75,stimulus,1,498,,,PerfumeSession
1625194531.83,stimulus,2,12,,,PracticeSession
1625194532.25,fixation,1,498,,,PerfumeSession
1625194532.33,fixation,2,12,,,PracticeSession
1625194533.75,stimulus,1,499,,,PerfumeSession
1625194533.83,stimulus,2,13,,,PracticeSession
1625194534.25,fixation,1,499,,,PerfumeSession
1625194534.33,fixation,2,13,,,PracticeSession
1625194535.75,stimulus,1,500,,,PerfumeSession
1625194535.83,stimulus,2,14,,,PracticeSession
1625194536.25,fixation,1,500,,,PerfumeSession
1625194536.33,fixation,2,14,,,PracticeSession
1625194537.75,stimulus,1,501,,,PerfumeSession
1625194537.83,stimulus,2,15,,,PracticeSession
1625194538.25,fixation,1,501,,,PerfumeSession
1625194538.33,fixation,2,15,,,PracticeSession
1625194539.75,stimulus,1,502,,,PerfumeSession
1625194539.83,stimulus,2,16,,,PracticeSession
1625194540.25,fixation,1,502,,,PerfumeSession
1625194540.33,fixation,2,16,,,PracticeSession
1625194541.75,stimulus,1,503,,,PerfumeSession
1625194541.83,stimulus,2,17,,,PracticeSession
1625194542.25,fixation,1,503,,,PerfumeSession
1625194542.33,fixation,2,17,,,PracticeSession
1625194543.75,stimulus,1,504,,,PerfumeSession
1625194543.83,stimulus,2,18,,,PracticeSession
1625194544.25,fixation,1,504,,,PerfumeSession
1625194544.33,fixation,2,18,,,PracticeSession
1625194545.75,stimulus,1,505,,,PerfumeSession
1625194545.83,stimulus,2,19,,,PracticeSession
1625194546.25,fixation,1,505,,,PerfumeSession
1625194546.33,fixation,2,19,,,PracticeSession
1625194547.75,stimulus,1,506,,,PerfumeSession
1625194547.83,stimulus,2,20,,,PracticeSession
1625194548.25,fixation,1,506,,,PerfumeSession
1625194548.33,fixation,2,20,,,PracticeSession
1625194549.75,stimulus,1,507,,,PerfumeSession
1625194549.83,stimulus,2,21,,,PracticeSession
1625194550.25,fixation,1,507,,,PerfumeSession
1625194550.33,fixation,2,21,,,PracticeSession
1625194551.75,stimulus,1,508,,,PerfumeSession
1625194551.83,stimulus,2,22,,,PracticeSession
1625194552.25,fixation,1,508,,,PerfumeSession
1625194552.33,fixation,2,22,,,PracticeSession
1625194553.75,stimulus,1,509,,,PerfumeSession
1625194553.83,stimulus,2,23,,,PracticeSession
1625194554.25,fixation,1,509,,,PerfumeSession
1625194554.33,fixation,2,23,,,PracticeSession
1625194555.75,stimulus,1,510,,,PerfumeSession
1625194555.83,stimulus,2,24,,,PracticeSession
1625194556.25,fixation,1,510,,,PerfumeSession
1625194556.33,fixation,2,24,,,PracticeSession
1625194557.75,stimulus,1,511,,,PerfumeSession
1625194557.83,stimulus,2,25,,,PracticeSession
1625194558.25,fixation,1,511,,,PerfumeSession
1625194558.33,fixation,2,25,,,PracticeSession
1625194559.75,stimulus,1,512,,,PerfumeSession
1625194559.83,stimulus,2,26,,,PracticeSession
1625194560.25,fixation,1,512,,,PerfumeSession
1625194560.33,fixation,2,26,,,PracticeSession
1625194561.75,stimulus,1,513,,,PerfumeSession
1625194561.83,stimulus,2,27,,,PracticeSession
1625194562.25,fixation,1,513,,,PerfumeSession
1625194562.33,fixation,2,27,,,PracticeSession
1625194563.75,stimulus,1,514,,,PerfumeSession
1625194563.83,stimulus,2,28,,,PracticeSession
1625194564.25,fixation,1,514,,,PerfumeSession
1625194564.33,fixation,2,28,,,PracticeSession
1625194565.75,stimulus,1,515,,,PerfumeSession
1625194565.83,stimulus,2,29,,,PracticeSession
1625194566.25,fixation,1,515,,,PerfumeSession
1625194566.33,fixation,2,29,,,PracticeSession
1625194567.75,stimulus,1,516,,,PerfumeSession
1625194567.83,stimulus,2,30,,,PracticeSession
1625194568.25,fixation,1,516,,,PerfumeSession
1625194568.33,fixation,2,30,,,PracticeSession
1625194569.75,stimulus,1,517,,,PerfumeSession
1625194569.83,stimulus,2,31,,,PracticeSession
1625194570.25,fixation,1,517,,,PerfumeSession
1625194570.33,fixation,2,31,,,PracticeSession
1625194571.75,stimulus,1,518,,,PerfumeSession
1625194571.83,stimulus,2,32,,,PracticeSession
1625194572.25,fixation,1,518,,,PerfumeSession
1625194572.33,fixation,2,32,,,PracticeSession
1625194573.75,stimulus,1,519,,,PerfumeSession
1625194573.83,stimulus,2,33,,,PracticeSession
1625194574.25,fixation,1,519,,,PerfumeSession
1625194574.33,fixation,2,33,,,PracticeSession
1625194575.75,stimulus,1,520,,,PerfumeSession
1625194575.83,stimulus,2,34,,,PracticeSession
1625194576.25,fixation,1,520,,,PerfumeSession
1625194576.33,fixation,2,34,,,PracticeSession
1625194577.75,stimulus,1,521,,,PerfumeSession
1625194577.83,stimulus,2,35,,,PracticeSession
1625194578.25,fixation,1,521,,,PerfumeSession
1625194578.33,fixation,2,35,,,PracticeSession
1625194579.75,stimulus,1,522,,,PerfumeSession
1625194579.83,stimulus,2,36,,,PracticeSession
1625194580.25,fixation,1,522,,,PerfumeSession
1625194580.33,fixation,2,36,,,PracticeSession
1625194581.75,stimulus,1,523,,,PerfumeSession
1625194581.83,stimulus,2,37,,,PracticeSession
1625194582.25,fixation,1,523,,,PerfumeSession
1625194582.33,fixation,2,37,,,PracticeSession
1625194583.75,stimulus,1,524,,,PerfumeSession
1625194583.83,stimulus,2,38,,,PracticeSession
1625194584.25,fixation,1,524,,,PerfumeSession
1625194584.33,fixation,2,38,,,PracticeSession
1625194585.75,stimulus,1,525,,,PerfumeSession
1625194585.83,stimulus,2,39,,,PracticeSession
1625194586.25,fixation,1,525,,,PerfumeSession
1625194586.33,fixation,2,39,,,PracticeSession
1625194587.75,stimulus,1,526,,,PerfumeSession
1625194587.83,stimulus,2,40,,,PracticeSession
1625194588.25,fixation,1,526,,,PerfumeSession
1625194588.33,fixation,2,40,,,PracticeSession
1625194589.75,stimulus,1,527,,,PerfumeSession
1625194589.83,stimulus,2,41,,,PracticeSession
1625194590.25,fixation,1,527,,,PerfumeSession
1625194590.33,fixation,2,41,,,PracticeSession
1625194591.75,stimulus,1,528,,,PerfumeSession
1625194591.83,stimulus,2,42,,,PracticeSession
1625194592.25,fixation,1,528,,,PerfumeSession
1625194592.33,fixation,2,42,,,PracticeSession
1625194593.75,stimulus,1,529,,,PerfumeSession
1625194593.83,stimulus,2,43,,,PracticeSession
1625194594.25,fixation,1,529,,,PerfumeSession
1625194594.33,fixation,2,43,,,PracticeSession
1625194595.75,stimulus,1,530,,,PerfumeSession
1625194595.83,stimulus,2,44,,,PracticeSession
1625194596.25,fixation,1,530,,,PerfumeSession
1625194596.33,fixation,2,44,,,PracticeSession
1625194597.75,stimulus,1,531,,,PerfumeSession
1625194597.83,stimulus,2,45,,,NoAct
1625194598.25,fixation,1,531,,,PerfumeSession
1625194598.33,fixation,2,45,,,NoAct
1625194599.75,stimulus,1,532,,,PerfumeSession
1625194599.83,stimulus,2,46,,,NoAct
1625194600.25,fixation,1,532,,,PerfumeSession
1625194600.33,fixation,2,46,,,NoAct
1625194601.75,stimulus,1,533,,,PerfumeSession
1625194601.83,stimulus,2,47,,,NoAct
1625194602.25,fixation,1,533,,,PerfumeSession
1625194602.33,fixation,2,47,,,NoAct
1625194603.75,stimulus,1,534,,,PerfumeSession
1625194603.83,stimulus,2,48,,,NoAct
1625194604.25,fixation,1,534,,,PerfumeSession
1625194604.33,fixation,2,48,,,NoAct
1625194605.75,stimulus,1,535,,,PerfumeSession
1625194605.83,stimulus,2,49,,,NoAct
1625194606.25,fixation,1,535,,,PerfumeSession
1625194606.33,fixation,2,49,,,NoAct
1625194607.75,stimulus,1,536,,,PerfumeSession
1625194607.83,stimulus,2,50,,,NoAct
1625194608.25,fixation,1,536,,,PerfumeSession
1625194608.33,fixation,2,50,,,NoAct
1625194609.75,stimulus,1,537,,,PerfumeSession
1625194609.83,stimulus,2,51,,,NoAct
1625194610.25,fixation,1,537,,,PerfumeSession
1625194610.33,fixation,2,51,,,NoAct
1625194611.75,stimulus,1,538,,,PerfumeSession
1625194611.83,stimulus,2,52,,,NoAct
1625194612.25,fixation,1,538,,,PerfumeSession
1625194612.33,fixation,2,52,,,NoAct
1625194613.75,stimulus,1,539,,,PerfumeSession
1625194613.83,stimulus,2,53,,,NoAct
1625194614.25,fixation,1,539,,,PerfumeSession
1625194614.33,fixation,2,53,,,NoAct
1625194615.75,stimulus,1,540,,,PerfumeSession
1625194615.83,stimulus,2,54,,,NoAct
1625194616.25,fixation,1,540,,,PerfumeSession
1625194616.33,fixation,2,54,,,NoAct
1625194617.75,stimulus,1,541,,,PerfumeSession
1625194617.83,stimulus,2,55,,,NoAct
1625194618.25,fixation,1,541,,,PerfumeSession
1625194618.33,fixation,2,55,,,NoAct
1625194619.75,stimulus,1,542,,,PerfumeSession
1625194619.83,stimulus,2,56,,,NoAct
1625194620.25,fixation,1,542,,,PerfumeSession
1625194620.33,fixation,2,56,,,NoAct
1625194621.75,stimulus,1,543,,,PerfumeSession
1625194621.83,stimulus,2,57,,,NoAct
1625194622.25,fixation,1,543,,,PerfumeSession
1625194622.33,fixation,2,57,,,NoAct
1625194623.75,stimulus,1,544,,,PerfumeSession
1625194623.83,stimulus,2,58,,,NoAct
1625194624.25,fixation,1,544,,,PerfumeSession
1625194624.33,fixation,2,58,,,NoAct
1625194625.75,stimulus,1,545,,,PerfumeSession
1625194625.83,stimulus,2,59,,,NoAct
1625194626.25,fixation,1,545,,,PerfumeSession
1625194626.33,fixation,2,59,,,NoAct
1625194627.75,stimulus,1,546,,,PerfumeSession
1625194627.83,stimulus,2,60,,,NoAct
1625194628.25,fixation,1,546,,,PerfumeSession
1625194628.33,fixation,2,60,,,NoAct
1625194629.75,stimulus,1,547,,,PerfumeSession
1625194629.83,stimulus,2,61,,,NoAct
1625194630.25,fixation,1,547,,,PerfumeSession
1625194630.33,fixation,2,61,,,NoAct
1625194631.75,stimulus,1,548,,,PerfumeSession
1625194631.83,stimulus,2,62,,,NoAct
1625194632.25,fixation,1,548,,,PerfumeSession
1625194632.33,fixation,2,62,,,NoAct
1625194633.75,stimulus,1,549,,,PerfumeSession
1625194633.83,stimulus,2,63,,,NoAct
1625194634.25,fixation,1,549,,,PerfumeSession
1625194634.33,fixation,2,63,,,NoAct
1625194635.75,stimulus,1,550,,,PerfumeSession
1625194635.83,stimulus,2,64,,,NoAct
1625194636.25,fixation,1,550,,,PerfumeSession
1625194636.33,fixation,2,64,,,NoAct
1625194637.75,stimulus,1,551,,,PerfumeSession
1625194637.83,stimulus,2,65,,,NoAct
1625194638.25,fixation,1,551,,,PerfumeSession
1625194638.33,fixation,2,65,,,NoAct
1625194639.75,stimulus,1,552,,,PerfumeSession
1625194639.83,stimulus,2,66,,,NoAct
1625194640.25,fixation,1,552,,,PerfumeSession
1625194640.33,fixation,2,66,,,NoAct
1625194641.75,stimulus,1,553,,,PerfumeSession
1625194641.83,stimulus,2,67,,,NoAct
1625194642.25,fixation,1,553,,,PerfumeSession
1625194642.33,fixation,2,67,,,NoAct
1625194643.75,stimulus,1,554,,,PerfumeSession
1625194643.83,stimulus,2,68,,,NoAct
1625194644.25,fixation,1,554,,,PerfumeSession
1625194644.33,fixation,2,68,,,NoAct
1625194645.75,stimulus,1,555,,,PerfumeSession
1625194645.83,stimulus,2,69,,,NoAct
1625194646.25,fixation,1,555,,,PerfumeSession
1625194646.33,fixation,2,69,,,NoAct
1625194647.75,stimulus,1,556,,,PerfumeSession
1625194647.83,stimulus,2,70,,,NoAct
1625194648.25,fixation,1,556,,,PerfumeSession
1625194648.33,fixation,2,70,,,NoAct
1625194649.75,stimulus,1,557,,,PerfumeSession
1625194649.83,stimulus,2,71,,,NoAct
1625194650.25,fixation,1,557,,,PerfumeSession
1625194650.33,fixation,2,71,,,NoAct
1625194651.75,stimulus,1,558,,,PerfumeSession
1625194651.83,stimulus,2,72,,,NoAct
1625194652.25,fixation,1,558,,,PerfumeSession
1625194652.33,fixation,2,72,,,NoAct
1625194653.75,stimulus,1,559,,,PerfumeSession
1625194653.83,stimulus,2,73,,,NoAct
1625194654.25,fixation,1,559,,,PerfumeSession
1625194654.33,fixation,2,73,,,NoAct
1625194655.75,stimulus,1,560,,,PerfumeSession
1625194655.83,stimulus,2,74,,,NoAct
1625194656.25,fixation,1,560,,,PerfumeSession
1625194656.33,fixation,2,74,,,NoAct
1625194657.75,stimulus,1,561,,,PerfumeSession
1625194657.83,stimulus,2,75,,,NoAct
1625194658.25,fixation,1,561,,,PerfumeSession
1625194658.33,fixation,2,75,,,NoAct
1625194659.75,stimulus,1,562,,,PerfumeSession
1625194659.83,stimulus,2,76,,,NoAct
1625194660.25,fixation,1,562,,,PerfumeSession
1625194660.33,fixation,2,76,,,NoAct
1625194661.75,stimulus,1,563,,,PerfumeSession
1625194661.83,stimulus,2,77,,,NoAct
1625194662.25,fixation,1,563,,,PerfumeSession
1625194662.33,fixation,2,77,,,NoAct
1625194663.75,stimulus,1,564,,,PerfumeSession
1625194663.83,stimulus,2,78,,,NoAct
1625194664.25,fixation,1,564,,,PerfumeSession
1625194664.33,fixation,2,78,,,NoAct
1625194665.75,stimulus,1,565,,,PerfumeSession
1625194665.83,stimulus,2,79,,,NoAct
1625194666.25,fixation,1,565,,,PerfumeSession
1625194666.33,fixation,2,79,,,NoAct
1625194667.75,stimulus,1,566,,,PerfumeSession
1625194667.83,stimulus,2,80,,,NoAct
1625194668.25,fixation,1,566,,,PerfumeSession
1625194668.33,fixation,2,80,,,NoAct
1625194669.75,stimulus,1,567,,,PerfumeSession
1625194669.83,stimulus,2,81,,,NoAct
1625194670.25,fixation,1,567,,,PerfumeSession
1625194670.33,fixation,2,81,,,NoAct
1625194671.75,stimulus,1,568,,,PerfumeSession
1625194671.83,stimulus,2,82,,,NoAct
1625194672.25,fixation,1,568,,,PerfumeSession
1625194672.33,fixation,2,82,,,NoAct
1625194673.75,stimulus,1,569,,,PerfumeSession
1625194673.83,stimulus,2,83,,,NoAct
1625194674.25,fixation,1,569,,,PerfumeSession
1625194674.33,fixation,2,83,,,NoAct
1625194675.75,stimulus,1,570,,,PerfumeSession
1625194675.83,stimulus,2,84,,,NoAct
1625194676.25,fixation,1,570,,,PerfumeSession
1625194676.33,fixation,2,84,,,NoAct
1625194677.75,stimulus,1,571,,,PerfumeSession
1625194677.83,stimulus,2,85,,,NoAct
1625194678.25,fixation,1,571,,,PerfumeSession
1625194678.33,fixation,2,85,,,NoAct
1625194679.75,stimulus,1,572,,,PerfumeSession
1625194679.83,stimulus,2,86,,,NoAct
1625194680.25,fixation,1,572,,,PerfumeSession
1625194680.33,fixation,2,86,,,NoAct
1625194681.75,stimulus,1,573,,,PerfumeSession
1625194681.83,stimulus,2,87,,,NoAct
1625194682.25,fixation,1,573,,,PerfumeSession
1625194682.33,fixation,2,87,,,NoAct
1625194683.75,stimulus,1,574,,,PerfumeSession
1625194683.83,stimulus,2,88,,,NoAct
1625194684.25,fixation,1,574,,,PerfumeSession
1625194684.33,fixation,2,88,,,NoAct
1625194685.75,stimulus,1,575,,,PerfumeSession
1625194685.83,stimulus,2,89,,,NoAct
1625194686.25,fixation,1,575,,,PerfumeSession
1625194686.33,fixation,2,89,,,NoAct
1625194687.75,stimulus,1,576,,,PerfumeSession
1625194687.83,stimulus,2,90,,,NoAct
1625194688.25,fixation,1,576,,,PerfumeSession
1625194688.33,fixation,2,90,,,NoAct
1625194689.75,stimulus,1,577,,,PerfumeSession
1625194689.83,stimulus,2,91,,,NoAct
1625194690.25,fixation,1,577,,,PerfumeSession
1625194690.33,fixation,2,91,,,NoAct
1625194691.75,stimulus,1,578,,,PerfumeSession
1625194691.83,stimulus,2,92,,,NoAct
1625194692.25,fixation,1,578,,,PerfumeSession
1625194692.33,fixation,2,92,,,NoAct
1625194693.75,stimulus,1,579,,,PerfumeSession
1625194693.83,stimulus,2,93,,,NoAct
1625194694.25,fixation,1,579,,,PerfumeSession
1625194694.33,fixation,2,93,,,NoAct
1625194695.75,stimulus,1,580,,,PerfumeSession
1625194695.83,stimulus,2,94,,,NoAct
1625194696.25,fixation,1,580,,,PerfumeSession
1625194696.33,fixation,2,94,,,NoAct
1625194697.75,stimulus,1,581,,,PerfumeSession
1625194697.83,stimulus,2,95,,,NoAct
1625194698.25,fixation,1,581,,,PerfumeSession
1625194698.33,fixation,2,95,,,NoAct
1625194699.75,stimulus,1,582,,,PerfumeSession
1625194699.83,stimulus,2,96,,,NoAct
1625194700.25,fixation,1,582,,,PerfumeSession
1625194700.33,fixation,2,96,,,NoAct
1625194701.75,stimulus,1,583,,,PerfumeSession
1625194701.83,stimulus,2,97,,,NoAct
1625194702.25,fixation,1,583,,,PerfumeSession
1625194702.33,fixation,2,97,,,NoAct
1625194703.75,stimulus,1,584,,,PerfumeSession
1625194703.83,stimulus,2,98,,,NoAct
1625194704.25,fixation,1,584,,,PerfumeSession
1625194704.33,fixation,2,98,,,NoAct
1625194705.75,stimulus,1,585,,,PerfumeSession
1625194705.83,stimulus,2,99,,,NoAct
1625194706.25,fixation,1,585,,,PerfumeSession
1625194706.33,fixation,2,99,,,NoAct
1625194707.75,stimulus,1,586,,,PerfumeSession
1625194707.83,stimulus,2,100,,,NoAct
1625194708.25,fixation,1,586,,,PerfumeSession
1625194708.33,fixation,2,100,,,NoAct
1625194709.75,stimulus,1,587,,,PerfumeSession
1625194709.83,stimulus,2,101,,,NoAct
1625194710.25,fixation,1,587,,,PerfumeSession
1625194710.33,fixation,2,101,,,NoAct
1625194711.75,stimulus,1,588,,,PerfumeSession
1625194711.83,stimulus,2,102,,,NoAct
1625194712.25,fixation,1,588,,,PerfumeSession
1625194712.33,fixation,2,102,,,NoAct
1625194713.75,stimulus,1,589,,,PerfumeSession
1625194713.83,stimulus,2,103,,,NoAct
1625194714.25,fixation,1,589,,,PerfumeSession
1625194714.33,fixation,2,103,,,NoAct
1625194715.75,stimulus,1,590,,,PerfumeSession
1625194715.83,stimulus,2,104,,,NoAct
1625194716.25,fixation,1,590,,,PerfumeSession
1625194716.33,fixation,2,104,,,NoAct
1625194717.75,stimulus,1,591,,,PerfumeSession
1625194717.83,stimulus,2,105,,,NoAct
1625194718.25,fixation,1,591,,,PerfumeSession
1625194718.33,fixation,2,105,,,NoAct
1625194719.75,stimulus,1,592,,,PerfumeSession
1625194719.83,stimulus,2,106,,,NoAct
1625194720.25,fixation,1,592,,,PerfumeSession
1625194720.33,fixation,2,106,,,NoAct
1625194721.75,stimulus,1,593,,,PerfumeSession
1625194721.83,stimulus,2,107,,,NoAct
1625194722.25,fixation,1,593,,,PerfumeSession
1625194722.33,fixation,2,107,,,NoAct
1625194723.75,stimulus,1,594,,,PerfumeSession
1625194723.83,stimulus,2,108,,,NoAct
1625194724.25,fixation,1,594,,,PerfumeSession
1625194724.33,fixation,2,108,,,NoAct
1625194725.75,stimulus,1,595,,,PerfumeSession
1625194725.83,stimulus,2,109,,,NoAct
1625194726.25,fixation,1,595,,,PerfumeSession
1625194726.33,fixation,2,109,,,NoAct
1625194727.75,stimulus,1,596,,,PerfumeSession
1625194727.83,stimulus,2,110,,,NoAct
1625194728.25,fixation,1,596,,,PerfumeSession
1625194728.33,fixation,2,110,,,NoAct
1625194729.75,stimulus,1,597,,,PerfumeSession
1625194729.83,stimulus,2,111,,,NoAct
1625194730.25,fixation,1,597,,,PerfumeSession
1625194730.33,fixation,2,111,,,NoAct
1625194731.75,stimulus,1,598,,,PerfumeSession
1625194731.83,stimulus,2,112,,,NoAct
1625194732.25,fixation,1,598,,,PerfumeSession
1625194732.33,fixation,2,112,,,NoAct
1625194733.75,stimulus,1,599,,,PerfumeSession
1625194733.83,stimulus,2,113,,,NoAct
1625194734.25,fixation,1,599,,,PerfumeSession
1625194734.33,fixation,2,113,,,NoAct
1625194735.75,stimulus,1,600,,,PerfumeSession
1625194735.83,stimulus,2,114,,,NoAct
1625194736.25,fixation,1,600,,,PerfumeSession
1625194736.33,fixation,2,114,,,NoAct
1625194737.75,stimulus,1,601,,,PerfumeSession
1625194737.83,stimulus,2,115,,,NoAct
1625194738.25,fixation,1,601,,,PerfumeSession
1625194738.33,fixation,2,115,,,NoAct
1625194739.75,stimulus,1,602,,,PerfumeSession
1625194739.83,stimulus,2,116,,,NoAct
1625194740.25,fixation,1,602,,,PerfumeSession
1625194740.33,fixation,2,116,,,NoAct
1625194741.75,stimulus,1,603,,,PerfumeSession
1625194741.83,stimulus,2,117,,,NoAct
1625194742.25,fixation,1,603,,,PerfumeSession
1625194742.33,fixation,2,117,,,NoAct
1625194743.75,stimulus,1,604,,,PerfumeSession
1625194743.83,stimulus,2,118,,,NoAct
1625194744.25,fixation,1,604,,,PerfumeSession
1625194744.33,fixation,2,118,,,NoAct
1625194745.75,stimulus,1,605,,,PerfumeSession
1625194745.83,stimulus,2,119,,,NoAct
1625194746.25,fixation,1,605,,,PerfumeSession
1625194746.33,fixation,2,119,,,NoAct
1625194747.75,stimulus,1,606,,,PerfumeSession
1625194747.83,stimulus,2,120,,,NoAct
1625194748.25,fixation,1,606,,,PerfumeSession
1625194748.33,fixation,2,120,,,NoAct
1625194749.75,stimulus,1,607,,,PerfumeSession
1625194749.83,stimulus,2,121,,,NoAct
1625194750.25,fixation,1,607,,,PerfumeSession
1625194750.33,fixation,2,121,,,NoAct
1625194751.75,stimulus,1,608,,,PerfumeSession
1625194751.83,stimulus,2,122,,,NoAct
1625194752.25,fixation,1,608,,,PerfumeSession
1625194752.33,fixation,2,122,,,NoAct
1625194753.75,stimulus,1,609,,,PerfumeSession
1625194753.83,stimulus,2,123,,,NoAct
1625194754.25,fixation,1,609,,,PerfumeSession
1625194754.33,fixation,2,123,,,NoAct
1625194755.75,stimulus,1,610,,,PerfumeSession
1625194755.83,stimulus,2,124,,,NoAct
1625194756.25,fixation,1,610,,,PerfumeSession
1625194756.33,fixation,2,124,,,NoAct
1625194757.75,stimulus,1,611,,,PerfumeSession
1625194757.83,stimulus,2,125,,,NoAct
1625194758.25,fixation,1,611,,,PerfumeSession
1625194758.33,fixation,2,125,,,NoAct
1625194759.75,stimulus,1,612,,,PerfumeSession
1625194759.83,stimulus,2,126,,,NoAct
1625194760.25,fixation,1,612,,,PerfumeSession
1625194760.33,fixation,2,126,,,NoAct
1625194761.75,stimulus,1,613,,,PerfumeSession
1625194761.83,stimulus,2,127,,,NoAct
1625194762.25,fixation,1,613,,,PerfumeSession
1625194762.33,fixation,2,127,,,NoAct
1625194763.75,stimulus,1,614,,,PerfumeSession
1625194763.83,stimulus,2,128,,,NoAct
1625194764.25,fixation,1,614,,,PerfumeSession
1625194764.33,fixation,2,128,,,NoAct
1625194765.75,stimulus,1,615,,,PerfumeSession
1625194765.83,stimulus,2,129,,,NoAct
1625194766.25,fixation,1,615,,,PerfumeSession
1625194766.33,fixation,2,129,,,NoAct
1625194767.75,stimulus,1,616,,,PerfumeSession
1625194767.83,stimulus,2,130,,,NoAct
1625194768.25,fixation,1,616,,,PerfumeSession
1625194768.33,fixation,2,130,,,NoAct
1625194769.75,stimulus,1,617,,,PerfumeSession
1625194769.83,stimulus,2,131,,,NoAct
1625194770.25,fixation,1,617,,,PerfumeSession
1625194770.33,fixation,2,131,,,NoAct
1625194771.75,stimulus,1,618,,,PerfumeSession
1625194771.83,stimulus,2,132,,,NoAct
1625194772.25,fixation,1,618,,,PerfumeSession
1625194772.33,fixation,2,132,,,NoAct
1625194773.75,stimulus,1,619,,,PerfumeSession
1625194773.83,stimulus,2,133,,,NoAct
1625194774.25,fixation,1,619,,,PerfumeSession
1625194774.33,fixation,2,133,,,NoAct
1625194775.75,stimulus,1,620,,,PerfumeSession
1625194775.83,stimulus,2,134,,,NoAct
1625194776.25,fixation,1,620,,,PerfumeSession
1625194776.33,fixation,2,134,,,NoAct
1625194777.75,stimulus,1,621,,,PerfumeSession
1625194777.83,stimulus,2,135,,,NoAct
1625194778.25,fixation,1,621,,,PerfumeSession
1625194778.33,fixation,2,135,,,NoAct
1625194779.75,stimulus,1,622,,,PerfumeSession
1625194779.83,stimulus,2,136,,,NoAct
1625194780.25,fixation,1,622,,,PerfumeSession
1625194780.33,fixation,2,136,,,NoAct
1625194781.75,stimulus,1,623,,,PerfumeSession
1625194781.83,stimulus,2,137,,,NoAct
1625194782.25,fixation,1,623,,,PerfumeSession
1625194782.33,fixation,2,137,,,NoAct
1625194783.75,stimulus,1,624,,,PerfumeSession
1625194783.83,stimulus,2,138,,,NoAct
1625194784.25,fixation,1,624,,,PerfumeSession
1625194784.33,fixation,2,138,,,NoAct
1625194785.75,stimulus,1,625,,,PerfumeSession
1625194785.83,stimulus,2,139,,,NoAct
1625194786.25,fixation,1,625,,,PerfumeSession
1625194786.33,fixation,2,139,,,NoAct
1625194787.75,stimulus,1,626,,,PerfumeSession
1625194787.83,stimulus,2,140,,,NoAct
1625194788.25,fixation,1,626,,,PerfumeSession
1625194788.33,fixation,2,140,,,NoAct
1625194789.75,stimulus,1,627,,,PerfumeSession
1625194789.83,stimulus,2,141,,,NoAct
1625194790.25,fixation,1,627,,,PerfumeSession
1625194790.33,fixation,2,141,,,NoAct
1625194791.75,stimulus,1,628,,,PerfumeSession
1625194791.83,stimulus,2,142,,,NoAct
1625194792.25,fixation,1,628,,,PerfumeSession
1625194792.33,fixation,2,142,,,NoAct
1625194793.75,stimulus,1,629,,,PerfumeSession
1625194793.83,stimulus,2,143,,,NoAct
1625194794.25,fixation,1,629,,,PerfumeSession
1625194794.33,fixation,2,143,,,NoAct
1625194795.75,stimulus,1,630,,,PerfumeSession
1625194795.83,stimulus,2,144,,,NoAct
1625194796.25,fixation,1,630,,,PerfumeSession
1625194796.33,fixation,2,144,,,NoAct
1625194797.75,stimulus,1,631,,,PerfumeSession
1625194797.83,stimulus,2,145,,,NoAct
1625194798.25,fixation,1,631,,,PerfumeSession
1625194798.33,fixation,2,145,,,NoAct
1625194799.75,stimulus,1,632,,,PerfumeSession
1625194799.83,stimulus,2,146,,,NoAct
1625194800.25,fixation,1,632,,,PerfumeSession
1625194800.33,fixation,2,146,,,NoAct
1625194801.75,stimulus,1,633,,,PerfumeSession
1625194801.83,stimulus,2,147,,,NoAct
1625194802.25,fixation,1,633,,,PerfumeSession
1625194802.33,fixation,2,147,,,NoAct
1625194803.75,stimulus,1,634,,,PerfumeSession
1625194803.83,stimulus,2,148,,,NoAct
1625194804.25,fixation,1,634,,,PerfumeSession
1625194804.33,fixation,2,148,,,NoAct
1625194805.75,stimulus,1,635,,,PerfumeSession
1625194805.83,stimulus,2,149,,,NoAct
1625194806.25,fixation,1,635,,,PerfumeSession
1625194806.33,fixation,2,149,,,NoAct
1625194807.75,stimulus,1,636,,,PerfumeSession
1625194807.83,stimulus,2,150,,,NoAct
1625194808.25,fixation,1,636,,,PerfumeSession
1625194808.33,fixation,2,150,,,NoAct
1625194809.75,stimulus,1,637,,,PerfumeSession
1625194809.83,stimulus,2,151,,,NoAct
1625194810.25,fixation,1,637,,,PerfumeSession
1625194810.33,fixation,2,151,,,NoAct
1625194811.75,stimulus,1,638,,,PerfumeSession
1625194811.83,stimulus,2,152,,,NoAct
1625194812.25,fixation,1,638,,,PerfumeSession
1625194812.33,fixation,2,152,,,NoAct
1625194813.75,stimulus,1,639,,,PerfumeSession
1625194813.83,stimulus,2,153,,,NoAct
1625194814.25,fixation,1,639,,,PerfumeSession
1625194814.33,fixation,2,153,,,NoAct
1625194815.75,stimulus,1,640,,,PerfumeSession
1625194815.83,stimulus,2,154,,,NoAct
1625194816.25,fixation,1,640,,,PerfumeSession
1625194816.33,fixation,2,154,,,NoAct
1625194817.75,stimulus,1,641,,,PerfumeSession
1625194817.83,stimulus,2,155,,,NoAct
1625194818.25,fixation,1,641,,,PerfumeSession
1625194818.33,fixation,2,155,,,NoAct
1625194819.75,stimulus,1,642,,,PerfumeSession
1625194819.83,stimulus,2,156,,,NoAct
1625194820.25,fixation,1,642,,,PerfumeSession
1625194820.33,fixation,2,156,,,NoAct
1625194821.75,stimulus,1,643,,,PerfumeSession
1625194821.83,stimulus,2,157,,,NoAct
1625194822.25,fixation,1,643,,,PerfumeSession
1625194822.33,fixation,2,157,,,NoAct
1625194823.75,stimulus,1,644,,,PerfumeSession
1625194823.83,stimulus,2,158,,,NoAct
1625194824.25,fixation,1,644,,,PerfumeSession
1625194824.33,fixation,2,158,,,NoAct
1625194825.75,stimulus,1,645,,,PerfumeSession
1625194825.83,stimulus,2,159,,,NoAct
1625194826.25,fixation,1,645,,,PerfumeSession
1625194826.33,fixation,2,159,,,NoAct
1625194827.75,stimulus,1,646,,,PerfumeSession
1625194827.83,stimulus,2,160,,,NoAct
1625194828.25,fixation,1,646,,,PerfumeSession
1625194828.33,fixation,2,160,,,NoAct
1625194829.75,stimulus,1,647,,,PerfumeSession
1625194829.83,stimulus,2,161,,,NoAct
1625194830.25,fixation,1,647,,,PerfumeSession
1625194830.33,fixation,2,161,,,NoAct
1625194831.75,stimulus,1,648,,,PerfumeSession
1625194831.83,stimulus,2,162,,,NoAct
1625194832.25,fixation,1,648,,,PerfumeSession
1625194832.33,fixation,2,162,,,NoAct
1625194833.75,stimulus,1,649,,,PerfumeSession
1625194833.83,stimulus,2,163,,,NoAct
1625194834.25,fixation,1,649,,,PerfumeSession
1625194834.33,fixation,2,163,,,NoAct
1625194835.75,stimulus,1,650,,,PerfumeSession
1625194835.83,stimulus,2,164,,,NoAct
1625194836.25,fixation,1,650,,,PerfumeSession
1625194836.33,fixation,2,164,,,NoAct
1625194837.75,stimulus,1,651,,,PerfumeSession
1625194837.83,stimulus,2,165,,,NoAct
1625194838.25,fixation,1,651,,,PerfumeSession
1625194838.33,fixation,2,165,,,NoAct
1625194839.75,stimulus,1,652,,,PerfumeSession
1625194839.83,stimulus,2,166,,,NoAct
1625194840.25,fixation,1,652,,,PerfumeSession
1625194840.33,fixation,2,166,,,NoAct
1625194841.75,stimulus,1,653,,,PerfumeSession
1625194841.83,stimulus,2,167,,,NoAct
1625194842.25,fixation,1,653,,,PerfumeSession
1625194842.33,fixation,2,167,,,NoAct
1625194843.75,stimulus,1,654,,,PerfumeSession
1625194843.83,stimulus,2,168,,,NoAct
1625194844.25,fixation,1,654,,,PerfumeSession
1625194844.33,fixation,2,168,,,NoAct
1625194845.75,stimulus,1,655,,,PerfumeSession
1625194845.83,stimulus,2,169,,,NoAct
1625194846.25,fixation,1,655,,,PerfumeSession
1625194846.33,fixation,2,169,,,NoAct
1625194847.75,stimulus,1,656,,,PerfumeSession
1625194847.83,stimulus,2,170,,,NoAct
1625194848.25,fixation,1,656,,,PerfumeSession
1625194848.33,fixation,2,170,,,NoAct
1625194849.75,stimulus,1,657,,,PerfumeSession
1625194849.83,stimulus,2,171,,,NoAct
1625194850.25,fixation,1,657,,,PerfumeSession
1625194850.33,fixation,2,171,,,NoAct
1625194851.75,stimulus,1,658,,,PerfumeSession
1625194851.83,stimulus,2,172,,,NoAct
1625194852.25,fixation,1,658,,,PerfumeSession
1625194852.33,fixation,2,172,,,NoAct
1625194853.75,stimulus,1,659,,,PerfumeSession
1625194853.83,stimulus,2,173,,,NoAct
1625194854.25,fixation,1,659,,,PerfumeSession
1625194854.33,fixation,2,173,,,NoAct
1625194855.75,stimulus,1,660,,,PerfumeSession
1625194855.83,stimulus,2,174,,,NoAct
1625194856.25,fixation,1,660,,,PerfumeSession
1625194856.33,fixation,2,174,,,NoAct
1625194857.75,stimulus,1,661,,,PerfumeSession
1625194857.83,stimulus,2,175,,,NoAct
1625194858.25,fixation,1,661,,,PerfumeSession
1625194858.33,fixation,2,175,,,NoAct
1625194859.75,stimulus,1,662,,,PerfumeSession
1625194859.83,stimulus,2,176,,,NoAct
1625194860.25,fixation,1,662,,,PerfumeSession
1625194860.33,fixation,2,176,,,NoAct
1625194861.75,stimulus,1,663,,,PerfumeSession
1625194861.83,stimulus,2,177,,,NoAct
1625194862.25,fixation,1,663,,,PerfumeSession
1625194862.33,fixation,2,177,,,NoAct
1625194863.75,stimulus,1,664,,,PerfumeSession
1625194863.83,stimulus,2,178,,,NoAct
1625194864.25,fixation,1,664,,,PerfumeSession
1625194864.33,fixation,2,178,,,NoAct
1625194865.75,stimulus,1,665,,,PerfumeSession
1625194865.83,stimulus,2,179,,,NoAct
1625194866.25,fixation,1,665,,,PerfumeSession
1625194866.33,fixation,2,179,,,NoAct
1625194867.75,stimulus,1,666,,,PerfumeSession
1625194867.83,stimulus,2,180,,,NoAct
1625194868.25,fixation,1,666,,,PerfumeSession
1625194868.33,fixation,2,180,,,NoAct
1625194869.75,stimulus,1,667,,,PerfumeSession
1625194869.83,stimulus,2,181,,,NoAct
1625194870.25,fixation,1,667,,,PerfumeSession
1625194870.33,fixation,2,181,,,NoAct
1625194871.75,stimulus,1,668,,,PerfumeSession
1625194871.83,stimulus,2,182,,,NoAct
1625194872.25,fixation,1,668,,,PerfumeSession
1625194872.33,fixation,2,182,,,NoAct
1625194873.75,stimulus,1,669,,,PerfumeSession
1625194873.83,stimulus,2,183,,,NoAct
1625194874.25,fixation,1,669,,,PerfumeSession
1625194874.33,fixation,2,183,,,NoAct
1625194875.75,stimulus,1,670,,,PerfumeSession
1625194875.83,stimulus,2,184,,,NoAct
1625194876.25,fixation,1,670,,,PerfumeSession
1625194876.33,fixation,2,184,,,NoAct
1625194877.75,stimulus,1,671,,,PerfumeSession
1625194877.83,stimulus,2,185,,,NoAct
1625194878.25,fixation,1,671,,,PerfumeSession
1625194878.33,fixation,2,185,,,NoAct
1625194879.75,stimulus,1,672,,,PerfumeSession
1625194879.83,stimulus,2,186,,,NoAct
1625194880.25,fixation,1,672,,,PerfumeSession
1625194880.33,fixation,2,186,,,NoAct
1625194881.75,stimulus,1,673,,,PerfumeSession
1625194881.83,stimulus,2,187,,,NoAct
1625194882.25,fixation,1,673,,,PerfumeSession
1625194882.33,fixation,2,187,,,NoAct
1625194883.75,stimulus,1,674,,,PerfumeSession
1625194883.83,stimulus,2,188,,,NoAct
1625194884.25,fixation,1,674,,,PerfumeSession
1625194884.33,fixation,2,188,,,NoAct
1625194885.75,stimulus,1,675,,,PerfumeSession
1625194885.83,stimulus,2,189,,,NoAct
1625194886.25,fixation,1,675,,,PerfumeSession
1625194886.33,fixation,2,189,,,NoAct
1625194887.75,stimulus,1,676,,,PerfumeSession
1625194887.83,stimulus,2,190,,,NoAct
1625194888.25,fixation,1,676,,,PerfumeSession
1625194888.33,fixation,2,190,,,NoAct
1625194889.75,stimulus,1,677,,,PerfumeSession
1625194889.83,stimulus,2,191,,,NoAct
1625194890.25,fixation,1,677,,,PerfumeSession
1625194890.33,fixation,2,191,,,NoAct
1625194891.75,stimulus,1,678,,,PerfumeSession
1625194891.83,stimulus,2,192,,,NoAct
1625194892.25,fixation,1,678,,,PerfumeSession
1625194892.33,fixation,2,192,,,NoAct
1625194892.33,stimulus,3,1,,,PracticeSession
1625194892.83,fixation,3,1,,,PracticeSession
1625194893.75,stimulus,1,679,,,PerfumeSession
1625194893.83,stimulus,2,193,,,NoAct
1625194894.25,fixation,1,679,,,PerfumeSession
1625194894.33,fixation,2,193,,,NoAct
1625194894.33,stimulus,3,2,,,PracticeSession
1625194894.83,fixation,3,2,,,PracticeSession
1625194895.75,stimulus,1,680,,,PerfumeSession
1625194895.83,stimulus,2,194,,,NoAct
1625194896.25,fixation,1,680,,,PerfumeSession
1625194896.33,stimulus,3,3,,,PracticeSession
1625194896.33,fixation,2,194,,,NoAct
1625194896.83,fixation,3,3,,,PracticeSession
1625194897.75,stimulus,1,681,,,PerfumeSession
1625194897.83,stimulus,2,195,,,NoAct
1625194898.25,fixation,1,681,,,PerfumeSession
1625194898.33,stimulus,3,4,,,PracticeSession
1625194898.33,fixation,2,195,,,NoAct
1625194898.83,fixation,3,4,,,PracticeSession
1625194899.75,stimulus,1,682,,,PerfumeSession
1625194899.83,stimulus,2,196,,,NoAct
1625194900.25,fixation,1,682,,,PerfumeSession
1625194900.33,fixation,2,196,,,NoAct
1625194900.33,stimulus,3,5,,,PracticeSession
1625194900.83,fixation,3,5,,,PracticeSession
1625194901.75,stimulus,1,683,,,PerfumeSession
1625194901.83,stimulus,2,197,,,NoAct
1625194902.25,fixation,1,683,,,PerfumeSession
1625194902.33,stimulus,3,6,,,PracticeSession
1625194902.33,fixation,2,197,,,NoAct
1625194902.83,fixation,3,6,,,PracticeSession
1625194903.75,stimulus,1,684,,,PerfumeSession
1625194903.83,stimulus,2,198,,,NoAct
1625194904.25,fixation,1,684,,,PerfumeSession
1625194904.33,fixation,2,198,,,NoAct
1625194904.33,stimulus,3,7,,,PracticeSession
1625194904.83,fixation,3,7,,,PracticeSession
1625194905.75,stimulus,1,685,,,PerfumeSession
1625194905.83,stimulus,2,199,,,NoAct
1625194906.25,fixation,1,685,,,PerfumeSession
1625194906.33,fixation,2,199,,,NoAct
1625194906.33,stimulus,3,8,,,PracticeSession
1625194906.83,fixation,3,8,,,PracticeSession
1625194907.75,stimulus,1,686,,,PerfumeSession
1625194907.83,stimulus,2,200,,,NoAct
1625194908.25,fixation,1,686,,,PerfumeSession
1625194908.33,fixation,2,200,,,NoAct
1625194908.33,stimulus,3,9,,,PracticeSession
1625194908.83,fixation,3,9,,,PracticeSession
1625194909.75,stimulus,1,687,,,PerfumeSession
1625194909.83,stimulus,2,201,,,NoAct
1625194910.25,fixation,1,687,,,PerfumeSession
1625194910.33,stimulus,3,10,,,PracticeSession
1625194910.33,fixation,2,201,,,NoAct
1625194910.83,fixation,3,10,,,PracticeSession
1625194911.75,stimulus,1,688,,,PerfumeSession
1625194911.83,stimulus,2,202,,,NoAct
1625194912.25,fixation,1,688,,,PerfumeSession
1625194912.33,stimulus,3,11,,,PracticeSession
1625194912.33,fixation,2,202,,,NoAct
1625194912.83,fixation,3,11,,,PracticeSession
1625194913.75,stimulus,1,689,,,PerfumeSession
1625194913.83,stimulus,2,203,,,NoAct
1625194914.25,fixation,1,689,,,PerfumeSession
1625194914.33,stimulus,3,12,,,PracticeSession
1625194914.33,fixation,2,203,,,NoAct
1625194914.83,fixation,3,12,,,PracticeSession
1625194915.75,stimulus,1,690,,,PerfumeSession
1625194915.83,stimulus,2,204,,,NoAct
1625194916.25,fixation,1,690,,,PerfumeSession
1625194916.33,stimulus,3,13,,,PracticeSession
1625194916.33,fixation,2,204,,,NoAct
1625194916.83,fixation,3,13,,,PracticeSession
1625194917.75,stimulus,1,691,,,PerfumeSession
1625194917.83,stimulus,2,205,,,NoAct
1625194918.25,fixation,1,691,,,PerfumeSession
1625194918.33,fixation,2,205,,,NoAct
1625194918.33,stimulus,3,14,,,PracticeSession
1625194918.83,fixation,3,14,,,PracticeSession
1625194919.75,stimulus,1,692,,,PerfumeSession
1625194919.83,stimulus,2,206,,,NoAct
1625194920.25,fixation,1,692,,,PerfumeSession
1625194920.33,fixation,2,206,,,NoAct
1625194920.33,stimulus,3,15,,,PracticeSession
1625194920.83,fixation,3,15,,,PracticeSession
1625194921.75,stimulus,1,693,,,PerfumeSession
1625194921.83,stimulus,2,207,,,NoAct
1625194922.25,fixation,1,693,,,PerfumeSession
1625194922.33,stimulus,3,16,,,PracticeSession
1625194922.33,fixation,2,207,,,NoAct
1625194922.83,fixation,3,16,,,PracticeSession
1625194923.75,stimulus,1,694,,,PerfumeSession
1625194923.83,stimulus,2,208,,,NoAct
1625194924.25,fixation,1,694,,,PerfumeSession
1625194924.33,stimulus,3,17,,,PracticeSession
1625194924.33,fixation,2,208,,,NoAct
1625194924.83,fixation,3,17,,,PracticeSession
1625194925.75,stimulus,1,695,,,PerfumeSession
1625194925.83,stimulus,2,209,,,NoAct
1625194926.25,fixation,1,695,,,PerfumeSession
1625194926.33,fixation,2,209,,,NoAct
1625194926.33,stimulus,3,18,,,PracticeSession
1625194926.83,fixation,3,18,,,PracticeSession
1625194927.75,stimulus,1,696,,,PerfumeSession
1625194927.83,stimulus,2,210,,,NoAct
1625194928.25,fixation,1,696,,,PerfumeSession
1625194928.33,stimulus,3,19,,,PracticeSession
1625194928.33,fixation,2,210,,,NoAct
1625194928.83,fixation,3,19,,,PracticeSession
1625194929.75,stimulus,1,697,,,PerfumeSession
1625194929.83,stimulus,2,211,,,NoAct
1625194930.25,fixation,1,697,,,PerfumeSession
1625194930.33,stimulus,3,20,,,PracticeSession
1625194930.33,fixation,2,211,,,NoAct
1625194930.83,fixation,3,20,,,PracticeSession
1625194931.75,stimulus,1,698,,,PerfumeSession
1625194931.83,stimulus,2,212,,,NoAct
1625194932.25,fixation,1,698,,,PerfumeSession
1625194932.33,stimulus,3,21,,,PracticeSession
1625194932.33,fixation,2,212,,,NoAct
1625194932.83,fixation,3,21,,,PracticeSession
1625194933.75,stimulus,1,699,,,PerfumeSession
1625194933.83,stimulus,2,213,,,NoAct
1625194934.25,fixation,1,699,,,PerfumeSession
1625194934.33,stimulus,3,22,,,PracticeSession
1625194934.33,fixation,2,213,,,NoAct
1625194934.83,fixation,3,22,,,PracticeSession
1625194935.75,stimulus,1,700,,,PerfumeSession
1625194935.83,stimulus,2,214,,,NoAct
1625194936.25,fixation,1,700,,,PerfumeSession
1625194936.33,fixation,2,214,,,NoAct
1625194936.33,stimulus,3,23,,,PracticeSession
1625194936.83,fixation,3,23,,,PracticeSession
1625194937.75,stimulus,1,701,,,PerfumeSession
1625194937.83,stimulus,2,215,,,NoAct
1625194938.25,fixation,1,701,,,PerfumeSession
1625194938.33,stimulus,3,24,,,PracticeSession
1625194938.33,fixation,2,215,,,NoAct
1625194938.83,fixation,3,24,,,PracticeSession
1625194939.75,stimulus,1,702,,,PerfumeSession
1625194939.83,stimulus,2,216,,,NoAct
1625194940.25,fixation,1,702,,,PerfumeSession
1625194940.33,stimulus,3,25,,,PracticeSession
1625194940.33,fixation,2,216,,,NoAct
1625194940.83,fixation,3,25,,,PracticeSession
1625194941.75,stimulus,1,703,,,PerfumeSession
1625194941.83,stimulus,2,217,,,NoAct
1625194942.25,fixation,1,703,,,PerfumeSession
1625194942.33,stimulus,3,26,,,PracticeSession
1625194942.33,fixation,2,217,,,NoAct
1625194942.83,fixation,3,26,,,PracticeSession
1625194943.75,stimulus,1,704,,,PerfumeSession
1625194943.83,stimulus,2,218,,,NoAct
1625194944.25,fixation,1,704,,,PerfumeSession
1625194944.33,stimulus,3,27,,,PracticeSession
1625194944.33,fixation,2,218,,,NoAct
1625194944.83,fixation,3,27,,,PracticeSession
1625194945.75,stimulus,1,705,,,PerfumeSession
1625194945.83,stimulus,2,219,,,NoAct
1625194946.25,fixation,1,705,,,PerfumeSession
1625194946.33,stimulus,3,28,,,PracticeSession
1625194946.33,fixation,2,219,,,NoAct
1625194946.83,fixation,3,28,,,PracticeSession
1625194947.75,stimulus,1,706,,,PerfumeSession
1625194947.83,stimulus,2,220,,,NoAct
1625194948.25,fixation,1,706,,,PerfumeSession
1625194948.33,stimulus,3,29,,,PracticeSession
1625194948.33,fixation,2,220,,,NoAct
1625194948.83,fixation,3,29,,,PracticeSession
1625194949.75,stimulus,1,707,,,PerfumeSession
1625194949.83,stimulus,2,221,,,NoAct
1625194950.25,fixation,1,707,,,PerfumeSession
1625194950.33,stimulus,3,30,,,PracticeSession
1625194950.33,fixation,2,221,,,NoAct
1625194950.83,fixation,3,30,,,PracticeSession
1625194951.75,stimulus,1,708,,,PerfumeSession
1625194951.83,stimulus,2,222,,,NoAct
1625194952.25,fixation,1,708,,,PerfumeSession
1625194952.33,fixation,2,222,,,NoAct
1625194952.33,stimulus,3,31,,,PracticeSession
1625194952.83,fixation,3,31,,,PracticeSession
1625194953.75,stimulus,1,709,,,PerfumeSession
1625194953.83,stimulus,2,223,,,NoAct
1625194954.25,fixation,1,709,,,PerfumeSession
1625194954.33,fixation,2,223,,,NoAct
1625194954.33,stimulus,3,32,,,PracticeSession
1625194954.83,fixation,3,32,,,PracticeSession
1625194955.75,stimulus,1,710,,,PerfumeSession
1625194955.83,stimulus,2,224,,,NoAct
1625194956.25,fixation,1,710,,,PerfumeSession
1625194956.33,fixation,2,224,,,NoAct
1625194956.33,stimulus,3,33,,,PracticeSession
1625194956.83,fixation,3,33,,,PracticeSession
1625194957.75,stimulus,1,711,,,PerfumeSession
1625194957.83,stimulus,2,225,,,NoAct
1625194958.25,fixation,1,711,,,PerfumeSession
1625194958.33,fixation,2,225,,,NoAct
1625194958.33,stimulus,3,34,,,PracticeSession
1625194958.83,fixation,3,34,,,PracticeSession
1625194959.75,stimulus,1,712,,,PerfumeSession
1625194959.83,stimulus,2,226,,,NoAct
1625194960.25,fixation,1,712,,,PerfumeSession
1625194960.33,fixation,2,226,,,NoAct
1625194960.33,stimulus,3,35,,,PracticeSession
1625194960.83,fixation,3,35,,,PracticeSession
1625194961.75,stimulus,1,713,,,PerfumeSession
1625194961.83,stimulus,2,227,,,NoAct
1625194962.25,fixation,1,713,,,PerfumeSession
1625194962.33,fixation,2,227,,,NoAct
1625194962.33,stimulus,3,36,,,PracticeSession
1625194962.83,fixation,3,36,,,PracticeSession
1625194963.75,stimulus,1,714,,,PerfumeSession
1625194963.83,stimulus,2,228,,,NoAct
1625194964.25,fixation,1,714,,,PerfumeSession
1625194964.33,fixation,2,228,,,NoAct
1625194964.33,stimulus,3,37,,,PracticeSession
1625194964.83,fixation,3,37,,,PracticeSession
1625194965.75,stimulus,1,715,,,PerfumeSession
1625194965.83,stimulus,2,229,,,NoAct
1625194966.25,fixation,1,715,,,PerfumeSession
1625194966.33,fixation,2,229,,,NoAct
1625194966.33,stimulus,3,38,,,PracticeSession
1625194966.83,fixation,3,38,,,PracticeSession
1625194967.75,stimulus,1,716,,,PerfumeSession
1625194967.83,stimulus,2,230,,,NoAct
1625194968.25,fixation,1,716,,,PerfumeSession
1625194968.33,stimulus,3,39,,,PracticeSession
1625194968.33,fixation,2,230,,,NoAct
1625194968.83,fixation,3,39,,,PracticeSession
1625194969.75,stimulus,1,717,,,PerfumeSession
1625194969.83,stimulus,2,231,,,NoAct
1625194970.25,fixation,1,717,,,PerfumeSession
1625194970.33,fixation,2,231,,,NoAct
1625194970.33,stimulus,3,40,,,PracticeSession
1625194970.83,fixation,3,40,,,PracticeSession
1625194971.75,stimulus,1,718,,,PerfumeSession
1625194971.83,stimulus,2,232,,,NoAct
1625194972.25,fixation,1,718,,,PerfumeSession
1625194972.33,stimulus,3,41,,,PracticeSession
1625194972.33,fixation,2,232,,,NoAct
1625194972.83,fixation,3,41,,,PracticeSession
1625194973.75,stimulus,1,719,,,PerfumeSession
1625194973.83,stimulus,2,233,,,NoAct
1625194974.25,fixation,1,719,,,PerfumeSession
1625194974.33,fixation,2,233,,,NoAct
1625194974.33,stimulus,3,42,,,PracticeSession
1625194974.83,fixation,3,42,,,PracticeSession
1625194975.75,stimulus,1,720,,,PerfumeSession
1625194975.83,stimulus,2,234,,,NoAct
1625194976.25,fixation,1,720,,,PerfumeSession
1625194976.33,stimulus,3,43,,,PracticeSession
1625194976.33,fixation,2,234,,,NoAct
1625194976.83,fixation,3,43,,,PracticeSession
1625194977.75,stimulus,1,721,,,PerfumeSession
1625194977.83,stimulus,2,235,,,NoAct
1625194978.25,fixation,1,721,,,PerfumeSession
1625194978.33,fixation,2,235,,,NoAct
1625194978.33,stimulus,3,44,,,PracticeSession
1625194978.83,fixation,3,44,,,PracticeSession
1625194979.75,stimulus,1,722,,,PerfumeSession
1625194979.83,stimulus,2,236,,,NoAct
1625194980.25,fixation,1,722,,,PerfumeSession
1625194980.33,stimulus,3,45,,,NoAct
1625194980.33,fixation,2,236,,,NoAct
1625194980.83,fixation,3,45,,,NoAct
1625194981.75,stimulus,1,723,,,PerfumeSession
1625194981.83,stimulus,2,237,,,NoAct
1625194982.25,fixation,1,723,,,PerfumeSession
1625194982.33,fixation,2,237,,,NoAct
1625194982.33,stimulus,3,46,,,NoAct
1625194982.83,fixation,3,46,,,NoAct
1625194983.75,stimulus,1,724,,,PerfumeSession
1625194983.83,stimulus,2,238,,,NoAct
1625194984.25,fixation,1,724,,,PerfumeSession
1625194984.33,stimulus,3,47,,,NoAct
1625194984.33,fixation,2,238,,,NoAct
1625194984.83,fixation,3,47,,,NoAct
1625194985.75,stimulus,1,725,,,PerfumeSession
1625194985.83,stimulus,2,239,,,NoAct
1625194986.25,fixation,1,725,,,PerfumeSession
1625194986.33,stimulus,3,48,,,NoAct
1625194986.33,fixation,2,239,,,NoAct
1625194986.83,fixation,3,48,,,NoAct
1625194987.75,stimulus,1,726,,,PerfumeSession
1625194987.83,stimulus,2,240,,,NoAct
1625194988.25,fixation,1,726,,,PerfumeSession
1625194988.33,fixation,2,240,,,NoAct
1625194988.33,stimulus,3,49,,,NoAct
1625194988.83,fixation,3,49,,,NoAct
1625194989.75,stimulus,1,727,,,PerfumeSession
1625194989.83,stimulus,2,241,,,NoAct
1625194990.25,fixation,1,727,,,PerfumeSession
1625194990.33,stimulus,3,50,,,NoAct
1625194990.33,fixation,2,241,,,NoAct
1625194990.83,fixation,3,50,,,NoAct
1625194991.75,stimulus,1,728,,,PerfumeSession
1625194991.83,stimulus,2,242,,,NoAct
1625194992.25,fixation,1,728,,,PerfumeSession
1625194992.33,stimulus,3,51,,,NoAct
1625194992.33,fixation,2,242,,,NoAct
1625194992.83,fixation,3,51,,,NoAct
1625194993.75,stimulus,1,729,,,PerfumeSession
1625194993.83,stimulus,2,243,,,NoAct
1625194994.25,fixation,1,729,,,PerfumeSession
1625194994.33,stimulus,3,52,,,NoAct
1625194994.33,fixation,2,243,,,NoAct
1625194994.83,fixation,3,52,,,NoAct
1625194995.75,stimulus,1,730,,,PerfumeSession
1625194995.83,stimulus,2,244,,,NoAct
1625194996.25,fixation,1,730,,,PerfumeSession
1625194996.33,stimulus,3,53,,,NoAct
1625194996.33,fixation,2,244,,,NoAct
1625194996.83,fixation,3,53,,,NoAct
1625194997.75,stimulus,1,731,,,PerfumeSession
1625194997.83,stimulus,2,245,,,NoAct
1625194998.25,fixation,1,731,,,PerfumeSession
1625194998.33,stimulus,3,54,,,NoAct
1625194998.33,fixation,2,245,,,NoAct
1625194998.83,fixation,3,54,,,NoAct
1625194999.75,stimulus,1,732,,,PerfumeSession
1625194999.83,stimulus,2,246,,,NoAct
1625195000.25,fixation,1,732,,,PerfumeSession
1625195000.33,fixation,2,246,,,NoAct
1625195000.33,stimulus,3,55,,,NoAct
1625195000.83,fixation,3,55,,,NoAct
1625195001.75,stimulus,1,733,,,PerfumeSession
1625195001.83,stimulus,2,247,,,NoAct
1625195002.25,fixation,1,733,,,PerfumeSession
1625195002.33,stimulus,3,56,,,NoAct
1625195002.33,fixation,2,247,,,NoAct
1625195002.83,fixation,3,56,,,NoAct
1625195003.75,stimulus,1,734,,,PerfumeSession
1625195003.83,stimulus,2,248,,,NoAct
1625195004.25,fixation,1,734,,,PerfumeSession
1625195004.33,fixation,2,248,,,NoAct
1625195004.33,stimulus,3,57,,,NoAct
1625195004.83,fixation,3,57,,,NoAct
1625195005.75,stimulus,1,735,,,PerfumeSession
1625195005.83,stimulus,2,249,,,NoAct
1625195006.25,fixation,1,735,,,PerfumeSession
1625195006.33,stimulus,3,58,,,NoAct
1625195006.33,fixation,2,249,,,NoAct
1625195006.83,fixation,3,58,,,NoAct
1625195007.75,stimulus,1,736,,,PerfumeSession
1625195007.83,stimulus,2,250,,,NoAct
1625195008.25,fixation,1,736,,,PerfumeSession
1625195008.33,fixation,2,250,,,NoAct
1625195008.33,stimulus,3,59,,,NoAct
1625195008.83,fixation,3,59,,,NoAct
1625195009.75,stimulus,1,737,,,PerfumeSession
1625195009.83,stimulus,2,251,,,NoAct
1625195010.25,fixation,1,737,,,PerfumeSession
1625195010.33,fixation,2,251,,,NoAct
1625195010.33,stimulus,3,60,,,NoAct
1625195010.83,fixation,3,60,,,NoAct
1625195011.75,stimulus,1,738,,,PerfumeSession
1625195011.83,stimulus,2,252,,,NoAct
1625195012.25,fixation,1,738,,,PerfumeSession
1625195012.33,stimulus,3,61,,,NoAct
1625195012.33,fixation,2,252,,,NoAct
1625195012.83,fixation,3,61,,,NoAct
1625195013.75,stimulus,1,739,,,PerfumeSession
1625195013.83,stimulus,2,253,,,NoAct
1625195014.25,fixation,1,739,,,PerfumeSession
1625195014.33,fixation,2,253,,,NoAct
1625195014.33,stimulus,3,62,,,NoAct
1625195014.83,fixation,3,62,,,NoAct
1625195015.75,stimulus,1,740,,,PerfumeSession
1625195015.83,stimulus,2,254,,,NoAct
1625195016.25,fixation,1,740,,,PerfumeSession
1625195016.33,stimulus,3,63,,,NoAct
1625195016.33,fixation,2,254,,,NoAct
1625195016.83,fixation,3,63,,,NoAct
1625195017.75,stimulus,1,741,,,PerfumeSession
1625195017.83,stimulus,2,255,,,NoAct
1625195018.25,fixation,1,741,,,PerfumeSession
1625195018.33,stimulus,3,64,,,NoAct
1625195018.33,fixation,2,255,,,NoAct
1625195018.83,fixation,3,64,,,NoAct
1625195019.75,stimulus,1,742,,,PerfumeSession
1625195019.83,stimulus,2,256,,,NoAct
1625195020.25,fixation,1,742,,,PerfumeSession
1625195020.33,stimulus,3,65,,,NoAct
1625195020.33,fixation,2,256,,,NoAct
1625195020.83,fixation,3,65,,,NoAct
1625195021.75,stimulus,1,743,,,PerfumeSession
1625195021.83,stimulus,2,257,,,NoAct
1625195022.25,fixation,1,743,,,PerfumeSession
1625195022.33,stimulus,3,66,,,NoAct
1625195022.33,fixation,2,257,,,NoAct
1625195022.83,fixation,3,66,,,NoAct
1625195023.75,stimulus,1,744,,,PerfumeSession
1625195023.83,stimulus,2,258,,,NoAct
1625195024.25,fixation,1,744,,,PerfumeSession
1625195024.33,stimulus,3,67,,,NoAct
1625195024.33,fixation,2,258,,,NoAct
1625195024.83,fixation,3,67,,,NoAct
1625195025.75,stimulus,1,745,,,PerfumeSession
1625195025.83,stimulus,2,259,,,NoAct
1625195026.25,fixation,1,745,,,PerfumeSession
1625195026.33,stimulus,3,68,,,NoAct
1625195026.33,fixation,2,259,,,NoAct
1625195026.83,fixation,3,68,,,NoAct
1625195027.75,stimulus,1,746,,,PerfumeSession
1625195027.83,stimulus,2,260,,,NoAct
1625195028.25,fixation,1,746,,,PerfumeSession
1625195028.33,fixation,2,260,,,NoAct
1625195028.33,stimulus,3,69,,,NoAct
1625195028.83,fixation,3,69,,,NoAct
1625195029.75,stimulus,1,747,,,PerfumeSession
1625195029.83,stimulus,2,261,,,NoAct
1625195030.25,fixation,1,747,,,PerfumeSession
1625195030.33,fixation,2,261,,,NoAct
1625195030.33,stimulus,3,70,,,NoAct
1625195030.83,fixation,3,70,,,NoAct
1625195031.75,stimulus,1,748,,,PerfumeSession
1625195031.83,stimulus,2,262,,,NoAct
1625195032.25,fixation,1,748,,,PerfumeSession
1625195032.33,fixation,2,262,,,NoAct
1625195032.33,stimulus,3,71,,,NoAct
1625195032.83,fixation,3,71,,,NoAct
1625195033.75,stimulus,1,749,,,PerfumeSession
1625195033.83,stimulus,2,263,,,NoAct
1625195034.25,fixation,1,749,,,PerfumeSession
1625195034.33,stimulus,3,72,,,NoAct
1625195034.33,fixation,2,263,,,NoAct
1625195034.83,fixation,3,72,,,NoAct
1625195035.75,stimulus,1,750,,,PerfumeSession
1625195035.83,stimulus,2,264,,,NoAct
1625195036.25,fixation,1,750,,,PerfumeSession
1625195036.33,fixation,2,264,,,NoAct
1625195036.33,stimulus,3,73,,,NoAct
1625195036.83,fixation,3,73,,,NoAct
1625195037.75,stimulus,1,751,,,CoffeeSession
1625195037.83,stimulus,2,265,,,NoAct
1625195038.25,fixation,1,751,,,CoffeeSession
1625195038.33,stimulus,3,74,,,NoAct
1625195038.33,fixation,2,265,,,NoAct
1625195038.83,fixation,3,74,,,NoAct
1625195039.75,stimulus,1,752,,,CoffeeSession
1625195039.83,stimulus,2,266,,,NoAct
1625195040.25,fixation,1,752,,,CoffeeSession
1625195040.33,fixation,2,266,,,NoAct
1625195040.33,stimulus,3,75,,,NoAct
1625195040.83,fixation,3,75,,,NoAct
1625195041.75,stimulus,1,753,,,CoffeeSession
1625195041.83,stimulus,2,267,,,NoAct
1625195042.25,fixation,1,753,,,CoffeeSession
1625195042.33,stimulus,3,76,,,NoAct
1625195042.33,fixation,2,267,,,NoAct
1625195042.83,fixation,3,76,,,NoAct
1625195043.75,stimulus,1,754,,,CoffeeSession
1625195043.83,stimulus,2,268,,,NoAct
1625195044.25,fixation,1,754,,,CoffeeSession
1625195044.33,stimulus,3,77,,,NoAct
1625195044.33,fixation,2,268,,,NoAct
1625195044.83,fixation,3,77,,,NoAct
1625195045.75,stimulus,1,755,,,CoffeeSession
1625195045.83,stimulus,2,269,,,NoAct
1625195046.25,fixation,1,755,,,CoffeeSession
1625195046.33,stimulus,3,78,,,NoAct
1625195046.33,fixation,2,269,,,NoAct
1625195046.83,fixation,3,78,,,NoAct
1625195047.75,stimulus,1,756,,,CoffeeSession
1625195047.83,stimulus,2,270,,,NoAct
1625195048.25,fixation,1,756,,,CoffeeSession
1625195048.33,stimulus,3,79,,,NoAct
1625195048.33,fixation,2,270,,,NoAct
1625195048.83,fixation,3,79,,,NoAct
1625195049.75,stimulus,1,757,,,CoffeeSession
1625195049.83,stimulus,2,271,,,NoAct
1625195050.25,fixation,1,757,,,CoffeeSession
1625195050.33,stimulus,3,80,,,NoAct
1625195050.33,fixation,2,271,,,NoAct
1625195050.83,fixation,3,80,,,NoAct
1625195051.75,stimulus,1,758,,,CoffeeSession
1625195051.83,stimulus,2,272,,,NoAct
1625195052.25,fixation,1,758,,,CoffeeSession
1625195052.33,stimulus,3,81,,,NoAct
1625195052.33,fixation,2,272,,,NoAct
1625195052.83,fixation,3,81,,,NoAct
1625195053.75,stimulus,1,759,,,CoffeeSession
1625195053.83,stimulus,2,273,,,NoAct
1625195054.25,fixation,1,759,,,CoffeeSession
1625195054.33,fixation,2,273,,,NoAct
1625195054.33,stimulus,3,82,,,NoAct
1625195054.83,fixation,3,82,,,NoAct
1625195055.75,stimulus,1,760,,,CoffeeSession
1625195055.83,stimulus,2,274,,,NoAct
1625195056.25,fixation,1,760,,,CoffeeSession
1625195056.33,stimulus,3,83,,,NoAct
1625195056.33,fixation,2,274,,,NoAct
1625195056.83,fixation,3,83,,,NoAct
1625195057.75,stimulus,1,761,,,CoffeeSession
1625195057.83,stimulus,2,275,,,NoAct
1625195058.25,fixation,1,761,,,CoffeeSession
1625195058.33,fixation,2,275,,,NoAct
1625195058.33,stimulus,3,84,,,NoAct
1625195058.83,fixation,3,84,,,NoAct
1625195059.75,stimulus,1,762,,,CoffeeSession
1625195059.83,stimulus,2,276,,,NoAct
1625195060.25,fixation,1,762,,,CoffeeSession
1625195060.33,stimulus,3,85,,,NoAct
1625195060.33,fixation,2,276,,,NoAct
1625195060.83,fixation,3,85,,,NoAct
1625195061.75,stimulus,1,763,,,CoffeeSession
1625195061.83,stimulus,2,277,,,NoAct
1625195062.25,fixation,1,763,,,CoffeeSession
1625195062.33,stimulus,3,86,,,NoAct
1625195062.33,fixation,2,277,,,NoAct
1625195062.83,fixation,3,86,,,NoAct
1625195063.75,stimulus,1,764,,,CoffeeSession
1625195063.83,stimulus,2,278,,,NoAct
1625195064.25,fixation,1,764,,,CoffeeSession
1625195064.33,stimulus,3,87,,,NoAct
1625195064.33,fixation,2,278,,,NoAct
1625195064.83,fixation,3,87,,,NoAct
1625195065.75,stimulus,1,765,,,CoffeeSession
1625195065.83,stimulus,2,279,,,NoAct
1625195066.25,fixation,1,765,,,CoffeeSession
1625195066.33,fixation,2,279,,,NoAct
1625195066.33,stimulus,3,88,,,NoAct
1625195066.83,fixation,3,88,,,NoAct
1625195067.75,stimulus,1,766,,,CoffeeSession
1625195067.83,stimulus,2,280,,,NoAct
1625195068.25,fixation,1,766,,,CoffeeSession
1625195068.33,stimulus,3,89,,,NoAct
1625195068.33,fixation,2,280,,,NoAct
1625195068.83,fixation,3,89,,,NoAct
1625195069.75,stimulus,1,767,,,CoffeeSession
1625195069.83,stimulus,2,281,,,NoAct
1625195070.25,fixation,1,767,,,CoffeeSession
1625195070.33,stimulus,3,90,,,NoAct
1625195070.33,fixation,2,281,,,NoAct
1625195070.83,fixation,3,90,,,NoAct
1625195071.75,stimulus,1,768,,,CoffeeSession
1625195071.83,stimulus,2,282,,,NoAct
1625195072.25,fixation,1,768,,,CoffeeSession
1625195072.33,stimulus,3,91,,,NoAct
1625195072.33,fixation,2,282,,,NoAct
1625195072.83,fixation,3,91,,,NoAct
1625195073.75,stimulus,1,769,,,CoffeeSession
1625195073.83,stimulus,2,283,,,NoAct
1625195074.25,fixation,1,769,,,CoffeeSession
1625195074.33,stimulus,3,92,,,NoAct
1625195074.33,fixation,2,283,,,NoAct
1625195074.83,fixation,3,92,,,NoAct
1625195075.75,stimulus,1,770,,,CoffeeSession
1625195075.83,stimulus,2,284,,,NoAct
1625195076.25,fixation,1,770,,,CoffeeSession
1625195076.33,stimulus,3,93,,,NoAct
1625195076.33,fixation,2,284,,,NoAct
1625195076.83,fixation,3,93,,,NoAct
1625195077.75,stimulus,1,771,,,CoffeeSession
1625195077.83,stimulus,2,285,,,NoAct
1625195078.25,fixation,1,771,,,CoffeeSession
1625195078.33,stimulus,3,94,,,NoAct
1625195078.33,fixation,2,285,,,NoAct
1625195078.83,fixation,3,94,,,NoAct
1625195079.75,stimulus,1,772,,,CoffeeSession
1625195079.83,stimulus,2,286,,,NoAct
1625195080.25,fixation,1,772,,,CoffeeSession
1625195080.33,fixation,2,286,,,NoAct
1625195080.33,stimulus,3,95,,,NoAct
1625195080.83,fixation,3,95,,,NoAct
1625195081.75,stimulus,1,773,,,CoffeeSession
1625195081.83,stimulus,2,287,,,NoAct
1625195082.25,fixation,1,773,,,CoffeeSession
1625195082.33,stimulus,3,96,,,NoAct
1625195082.33,fixation,2,287,,,NoAct
1625195082.83,fixation,3,96,,,NoAct
1625195083.75,stimulus,1,774,,,CoffeeSession
1625195083.83,stimulus,2,288,,,NoAct
1625195084.25,fixation,1,774,,,CoffeeSession
1625195084.33,fixation,2,288,,,NoAct
1625195084.33,stimulus,3,97,,,NoAct
1625195084.83,fixation,3,97,,,NoAct
1625195085.75,stimulus,1,775,,,CoffeeSession
1625195085.83,stimulus,2,289,,,NoAct
1625195086.25,fixation,1,775,,,CoffeeSession
1625195086.33,stimulus,3,98,,,NoAct
1625195086.33,fixation,2,289,,,NoAct
1625195086.83,fixation,3,98,,,NoAct
1625195087.75,stimulus,1,776,,,CoffeeSession
1625195087.83,stimulus,2,290,,,NoAct
1625195088.25,fixation,1,776,,,CoffeeSession
1625195088.33,stimulus,3,99,,,NoAct
1625195088.33,fixation,2,290,,,NoAct
1625195088.83,fixation,3,99,,,NoAct
1625195089.75,stimulus,1,777,,,CoffeeSession
1625195089.83,stimulus,2,291,,,NoAct
1625195090.25,fixation,1,777,,,CoffeeSession
1625195090.33,fixation,2,291,,,NoAct
1625195090.33,stimulus,3,100,,,NoAct
1625195090.83,fixation,3,100,,,NoAct
1625195091.75,stimulus,1,778,,,CoffeeSession
1625195091.83,stimulus,2,292,,,NoAct
1625195092.25,fixation,1,778,,,CoffeeSession
1625195092.33,fixation,2,292,,,NoAct
1625195092.33,stimulus,3,101,,,NoAct
1625195092.83,fixation,3,101,,,NoAct
1625195093.75,stimulus,1,779,,,CoffeeSession
1625195093.83,stimulus,2,293,,,NoAct
1625195094.25,fixation,1,779,,,CoffeeSession
1625195094.33,fixation,2,293,,,NoAct
1625195094.33,stimulus,3,102,,,NoAct
1625195094.83,fixation,3,102,,,NoAct
1625195095.75,stimulus,1,780,,,CoffeeSession
1625195095.83,stimulus,2,294,,,NoAct
1625195096.25,fixation,1,780,,,CoffeeSession
