event_time_s,trial_type,session_idx,trial_idx,RT_s,ACC,session_type
1629130913.0,stimulus,1,1,,,PracticeSession
1629130913.5,fixation,1,1,,,PracticeSession
1629130915.0,stimulus,1,2,,,PracticeSession
1629130915.5,fixation,1,2,,,PracticeSession
1629130917.0,stimulus,1,3,,,PracticeSession
1629130917.5,fixation,1,3,,,PracticeSession
1629130919.0,stimulus,1,4,,,PracticeSession
1629130919.5,fixation,1,4,,,PracticeSession
1629130921.0,stimulus,1,5,,,PracticeSession
1629130921.5,fixation,1,5,,,PracticeSession
1629130923.0,stimulus,1,6,,,PracticeSession
1629130923.5,fixation,1,6,,,PracticeSession
1629130925.0,stimulus,1,7,,,PracticeSession
1629130925.5,fixation,1,7,,,PracticeSession
1629130927.0,stimulus,1,8,,,PracticeSession
1629130927.5,fixation,1,8,,,PracticeSession
1629130929.0,stimulus,1,9,,,PracticeSession
1629130929.5,fixation,1,9,,,PracticeSession
1629130931.0,stimulus,1,10,,,PracticeSession
1629130931.5,fixation,1,10,,,PracticeSession
1629130933.0,stimulus,1,11,,,PracticeSession
1629130933.5,fixation,1,11,,,PracticeSession
1629130935.0,stimulus,1,12,,,PracticeSession
1629130935.5,fixation,1,12,,,PracticeSession
1629130937.0,stimulus,1,13,,,PracticeSession
1629130937.5,fixation,1,13,,,PracticeSession
1629130939.0,stimulus,1,14,,,PracticeSession
1629130939.5,fixation,1,14,,,PracticeSession
1629130941.0,stimulus,1,15,,,PracticeSession
1629130941.5,fixation,1,15,,,PracticeSession
1629130943.0,stimulus,1,16,,,PracticeSession
1629130943.5,fixation,1,16,,,PracticeSession
1629130945.0,stimulus,1,17,,,PracticeSession
1629130945.5,fixation,1,17,,,PracticeSession
1629130947.0,stimulus,1,18,,,PracticeSession
1629130947.5,fixation,1,18,,,PracticeSession
1629130949.0,stimulus,1,19,,,PracticeSession
1629130949.5,fixation,1,19,,,PracticeSession
1629130951.0,stimulus,1,20,,,PracticeSession
1629130951.5,fixation,1,20,,,PracticeSession
1629130953.0,stimulus,1,21,,,PracticeSession
1629130953.5,fixation,1,21,,,PracticeSession
1629130955.0,stimulus,1,22,,,PracticeSession
1629130955.5,fixation,1,22,,,PracticeSession
1629130957.0,stimulus,1,23,,,PracticeSession
1629130957.5,fixation,1,23,,,PracticeSession
1629130959.0,stimulus,1,24,,,PracticeSession
1629130959.5,fixation,1,24,,,PracticeSession
1629130961.0,stimulus,1,25,,,PracticeSession
1629130961.5,fixation,1,25,,,PracticeSession
1629130963.0,stimulus,1,26,,,PracticeSession
1629130963.5,fixation,1,26,,,PracticeSession
1629130965.0,stimulus,1,27,,,PracticeSession
1629130965.5,fixation,1,27,,,PracticeSession
1629130967.0,stimulus,1,28,,,PracticeSession
1629130967.5,fixation,1,28,,,PracticeSession
1629130969.0,stimulus,1,29,,,PracticeSession
1629130969.5,fixation,1,29,,,PracticeSession
1629130971.0,stimulus,1,30,,,PracticeSession
1629130971.5,fixation,1,30,,,PracticeSession
1629130973.0,stimulus,1,31,,,PracticeSession
1629130973.5,fixation,1,31,,,PracticeSession
1629130975.0,stimulus,1,32,,,PracticeSession
1629130975.5,fixation,1,32,,,PracticeSession
1629130977.0,stimulus,1,33,,,PracticeSession
1629130977.5,fixation,1,33,,,PracticeSession
1629130979.0,stimulus,1,34,,,PracticeSession
1629130979.5,fixation,1,34,,,PracticeSession
1629130981.0,stimulus,1,35,,,PracticeSession
1629130981.5,fixation,1,35,,,PracticeSession
1629130983.0,stimulus,1,36,,,PracticeSession
1629130983.5,fixation,1,36,,,PracticeSession
1629130985.0,stimulus,1,37,,,PracticeSession
1629130985.5,fixation,1,37,,,PracticeSession
1629130987.0,stimulus,1,38,,,PracticeSession
1629130987.5,fixation,1,38,,,PracticeSession
1629130989.0,stimulus,1,39,,,PracticeSession
1629130989.5,fixation,1,39,,,PracticeSession
1629130991.0,stimulus,1,40,,,PracticeSession
1629130991.5,fixation,1,40,,,PracticeSession
1629130993.0,stimulus,1,41,,,PracticeSession
1629130993.5,fixation,1,41,,,PracticeSession
1629130995.0,stimulus,1,42,,,PracticeSession
1629130995.5,fixation,1,42,,,PracticeSession
1629130997.0,stimulus,1,43,,,PracticeSession
1629130997.5,fixation,1,43,,,PracticeSession
1629130999.0,stimulus,1,44,,,PracticeSession
1629130999.5,fixation,1,44,,,PracticeSession
1629131001.462,stimulus,1,45,0.462,1.0,NoAct
1629131001.5,fixation,1,45,,0.0,NoAct
1629131003.362,stimulus,1,46,0.362,1.0,NoAct
1629131003.5,fixation,1,46,,0.0,NoAct
1629131005.394,stimulus,1,47,0.394,1.0,NoAct
1629131005.5,fixation,1,47,,0.0,NoAct
1629131007.0,stimulus,1,48,,0.0,NoAct
1629131007.545,fixation,1,48,0.045,1.0,NoAct
1629131009.365,stimulus,1,49,0.365,1.0,NoAct
1629131009.5,fixation,1,49,,0.0,NoAct
1629131011.423,stimulus,1,50,0.423,1.0,NoAct
1629131011.5,fixation,1,50,,0.0,NoAct
1629131013.0,stimulus,1,51,,0.0,NoAct
1629131013.537,fixation,1,51,0.037,0.0,NoAct
1629131015.403,stimulus,1,52,0.403,1.0,NoAct
1629131015.5,fixation,1,52,,0.0,NoAct
1629131017.46,stimulus,1,53,0.46,1.0,NoAct
1629131017.5,fixation,1,53,,0.0,NoAct
1629131019.41,stimulus,1,54,0.41,1.0,NoAct
1629131019.5,fixation,1,54,,0.0,NoAct
1629131021.442,stimulus,1,55,0.442,1.0,NoAct
1629131021.5,fixation,1,55,,0.0,NoAct
1629131023.399,stimulus,1,56,0.399,1.0,NoAct
1629131023.5,fixation,1,56,,0.0,NoAct
1629131025.414,stimulus,1,57,0.414,1.0,NoAct
1629131025.5,fixation,1,57,,0.0,NoAct
1629131027.365,stimulus,1,58,0.365,1.0,NoAct
1629131027.5,fixation,1,58,,0.0,NoAct
1629131029.38,stimulus,1,59,0.38,1.0,NoAct
1629131029.5,fixation,1,59,,0.0,NoAct
1629131031.447,stimulus,1,60,0.447,1.0,NoAct
1629131031.5,fixation,1,60,,0.0,NoAct
1629131033.447,stimulus,1,61,0.447,1.0,NoAct
1629131033.5,fixation,1,61,,0.0,NoAct
1629131035.474,stimulus,1,62,0.474,1.0,NoAct
1629131035.5,fixation,1,62,,0.0,NoAct
1629131037.467,stimulus,1,63,0.467,1.0,NoAct
1629131037.5,fixation,1,63,,0.0,NoAct
1629131039.0,stimulus,1,64,,0.0,NoAct
1629131039.567,fixation,1,64,0.067,1.0,NoAct
1629131041.467,stimulus,1,65,0.467,1.0,NoAct
1629131041.5,fixation,1,65,,0.0,NoAct
1629131043.416,stimulus,1,66,0.416,1.0,NoAct
1629131043.5,fixation,1,66,,0.0,NoAct
1629131045.0,stimulus,1,67,,0.0,NoAct
1629131045.742,fixation,1,67,0.242,1.0,NoAct
1629131047.298,stimulus,1,68,0.298,1.0,NoAct
1629131047.5,fixation,1,68,,0.0,NoAct
1629131049.301,stimulus,1,69,0.301,1.0,NoAct
1629131049.5,fixation,1,69,,0.0,NoAct
1629131051.488,stimulus,1,70,0.488,1.0,NoAct
1629131051.5,fixation,1,70,,0.0,NoAct
1629131053.475,stimulus,1,71,0.475,1.0,NoAct
1629131053.5,fixation,1,71,,0.0,NoAct
1629131055.447,stimulus,1,72,0.447,1.0,NoAct
1629131055.5,fixation,1,72,,0.0,NoAct
1629131057.0,stimulus,1,73,,0.0,NoAct
1629131057.532,fixation,1,73,0.032,1.0,NoAct
1629131059.304,stimulus,1,74,0.304,0.0,NoAct
1629131059.5,fixation,1,74,,0.0,NoAct
1629131061.335,stimulus,1,75,0.335,1.0,NoAct
1629131061.5,fixation,1,75,,0.0,NoAct
1629131063.374,stimulus,1,76,0.374,1.0,NoAct
1629131063.5,fixation,1,76,,0.0,NoAct
1629131065.0,stimulus,1,77,,0.0,NoAct
1629131065.618,fixation,1,77,0.118,1.0,NoAct
1629131067.439,stimulus,1,78,0.439,1.0,NoAct
1629131067.5,fixation,1,78,,0.0,NoAct
1629131069.0,stimulus,1,79,,0.0,NoAct
1629131069.695,fixation,1,79,0.195,1.0,NoAct
1629131071.489,stimulus,1,80,0.489,1.0,NoAct
1629131071.5,fixation,1,80,,0.0,NoAct
1629131073.454,stimulus,1,81,0.454,1.0,NoAct
1629131073.5,fixation,1,81,,0.0,NoAct
1629131075.363,stimulus,1,82,0.363,1.0,NoAct
1629131075.5,fixation,1,82,,0.0,NoAct
1629131077.465,stimulus,1,83,0.465,1.0,NoAct
1629131077.5,fixation,1,83,,0.0,NoAct
1629131079.0,stimulus,1,84,,0.0,NoAct
1629131079.661,fixation,1,84,0.161,0.0,NoAct
1629131081.0,stimulus,1,85,,0.0,NoAct
1629131081.557,fixation,1,85,0.057,1.0,NoAct
1629131083.0,stimulus,1,86,,0.0,NoAct
1629131083.5,fixation,1,86,,0.0,NoAct
1629131085.0,stimulus,1,87,,0.0,NoAct
1629131085.514,fixation,1,87,0.014,1.0,NoAct
1629131087.0,stimulus,1,88,,0.0,NoAct
1629131087.519,fixation,1,88,0.019,1.0,NoAct
1629131089.0,stimulus,1,89,,0.0,NoAct
1629131089.764,fixation,1,89,0.264,1.0,NoAct
1629131091.373,stimulus,1,90,0.373,1.0,NoAct
1629131091.5,fixation,1,90,,0.0,NoAct
1629131093.361,stimulus,1,91,0.361,1.0,NoAct
1629131093.5,fixation,1,91,,0.0,NoAct
1629131095.0,stimulus,1,92,,0.0,NoAct
1629131095.6,fixation,1,92,0.1,1.0,NoAct
1629131097.0,stimulus,1,93,,0.0,NoAct
1629131097.805,fixation,1,93,0.305,0.0,NoAct
1629131099.405,stimulus,1,94,0.405,1.0,NoAct
1629131099.5,fixation,1,94,,0.0,NoAct
1629131101.0,stimulus,1,95,,0.0,NoAct
1629131101.621,fixation,1,95,0.121,1.0,NoAct
1629131103.489,stimulus,1,96,0.489,1.0,NoAct
1629131103.5,fixation,1,96,,0.0,NoAct
1629131105.453,stimulus,1,97,0.453,1.0,NoAct
1629131105.5,fixation,1,97,,0.0,NoAct
1629131107.0,stimulus,1,98,,0.0,NoAct
1629131107.686,fixation,1,98,0.186,1.0,NoAct
1629131109.0,stimulus,1,99,,0.0,NoAct
1629131109.773,fixation,1,99,0.273,1.0,NoAct
1629131111.495,stimulus,1,100,0.495,1.0,NoAct
1629131111.5,fixation,1,100,,0.0,NoAct
1629131113.0,stimulus,1,101,,0.0,NoAct
1629131113.715,fixation,1,101,0.215,1.0,NoAct
1629131115.0,stimulus,1,102,,0.0,NoAct
1629131115.796,fixation,1,102,0.296,1.0,NoAct
1629131117.436,stimulus,1,103,0.436,1.0,NoAct
1629131117.5,fixation,1,103,,0.0,NoAct
1629131119.0,stimulus,1,104,,0.0,NoAct
1629131119.578,fixation,1,104,0.078,1.0,NoAct
1629131121.492,stimulus,1,105,0.492,1.0,NoAct
1629131121.5,fixation,1,105,,0.0,NoAct
1629131123.0,stimulus,1,106,,0.0,NoAct
1629131123.685,fixation,1,106,0.185,1.0,NoAct
1629131125.0,stimulus,1,107,,0.0,NoAct
1629131125.604,fixation,1,107,0.104,0.0,NoAct
1629131127.0,stimulus,1,108,,0.0,NoAct
1629131127.693,fixation,1,108,0.193,1.0,NoAct
1629131129.0,stimulus,1,109,,0.0,NoAct
1629131129.712,fixation,1,109,0.212,0.0,NoAct
1629131131.0,stimulus,1,110,,0.0,NoAct
1629131131.594,fixation,1,110,0.094,1.0,NoAct
1629131133.0,stimulus,1,111,,0.0,NoAct
1629131133.908,fixation,1,111,0.408,1.0,NoAct
1629131135.0,stimulus,1,112,,0.0,NoAct
1629131135.528,fixation,1,112,0.028,1.0,NoAct
1629131137.461,stimulus,1,113,0.461,1.0,NoAct
1629131137.5,fixation,1,113,,0.0,NoAct
1629131139.435,stimulus,1,114,0.435,1.0,NoAct
1629131139.5,fixation,1,114,,0.0,NoAct
1629131141.365,stimulus,1,115,0.365,1.0,NoAct
1629131141.5,fixation,1,115,,0.0,NoAct
1629131143.394,stimulus,1,116,0.394,1.0,NoAct
1629131143.5,fixation,1,116,,0.0,NoAct
1629131145.413,stimulus,1,117,0.413,1.0,NoAct
1629131145.5,fixation,1,117,,0.0,NoAct
1629131147.383,stimulus,1,118,0.383,1.0,NoAct
1629131147.5,fixation,1,118,,0.0,NoAct
1629131149.416,stimulus,1,119,0.416,1.0,NoAct
1629131149.5,fixation,1,119,,0.0,NoAct
1629131151.387,stimulus,1,120,0.387,1.0,NoAct
1629131151.5,fixation,1,120,,0.0,NoAct
1629131153.315,stimulus,1,121,0.315,1.0,NoAct
1629131153.5,fixation,1,121,,0.0,NoAct
1629131155.477,stimulus,1,122,0.477,1.0,NoAct
1629131155.5,fixation,1,122,,0.0,NoAct
1629131157.345,stimulus,1,123,0.345,1.0,NoAct
1629131157.5,fixation,1,123,,0.0,NoAct
1629131159.425,stimulus,1,124,0.425,1.0,NoAct
1629131159.5,fixation,1,124,,0.0,NoAct
1629131161.418,stimulus,1,125,0.418,1.0,NoAct
1629131161.5,fixation,1,125,,0.0,NoAct
1629131163.414,stimulus,1,126,0.414,1.0,NoAct
1629131163.5,fixation,1,126,,0.0,NoAct
1629131165.0,stimulus,1,127,,0.0,NoAct
1629131165.636,fixation,1,127,0.136,1.0,NoAct
1629131167.0,stimulus,1,128,,0.0,NoAct
1629131167.561,fixation,1,128,0.061,1.0,NoAct
1629131169.0,stimulus,1,129,,0.0,NoAct
1629131169.521,fixation,1,129,0.021,1.0,NoAct
1629131171.0,stimulus,1,130,,0.0,NoAct
1629131171.5,fixation,1,130,,1.0,NoAct
1629131173.434,stimulus,1,131,0.434,1.0,NoAct
1629131173.5,fixation,1,131,,0.0,NoAct
1629131175.0,stimulus,1,132,,0.0,NoAct
1629131175.519,fixation,1,132,0.019,1.0,NoAct
1629131177.0,stimulus,1,133,,0.0,NoAct
1629131177.5,fixation,1,133,,0.0,NoAct
1629131179.276,stimulus,1,134,0.276,1.0,NoAct
1629131179.5,fixation,1,134,,0.0,NoAct
1629131181.339,stimulus,1,135,0.339,1.0,NoAct
1629131181.5,fixation,1,135,,0.0,NoAct
1629131183.354,stimulus,1,136,0.354,1.0,NoAct
1629131183.5,fixation,1,136,,0.0,NoAct
1629131185.0,stimulus,1,137,,0.0,NoAct
1629131185.539,fixation,1,137,0.039,1.0,NoAct
1629131187.438,stimulus,1,138,0.438,1.0,NoAct
1629131187.5,fixation,1,138,,0.0,NoAct
1629131189.411,stimulus,1,139,0.411,1.0,NoAct
1629131189.5,fixation,1,139,,0.0,NoAct
1629131191.0,stimulus,1,140,,0.0,NoAct
1629131191.5,fixation,1,140,,1.0,NoAct
1629131193.0,stimulus,1,141,,0.0,NoAct
1629131194.005,fixation,1,141,0.505,0.0,NoAct
1629131195.0,stimulus,1,142,,0.0,NoAct
1629131195.544,fixation,1,142,0.044,1.0,NoAct
1629131197.0,stimulus,1,143,,0.0,NoAct
1629131197.53,fixation,1,143,0.03,1.0,NoAct
1629131199.0,stimulus,1,144,,0.0,NoAct
1629131199.5,fixation,1,144,,0.0,NoAct
1629131201.444,stimulus,1,145,0.444,0.0,NoAct
1629131201.5,fixation,1,145,,0.0,NoAct
1629131203.0,stimulus,1,146,,0.0,NoAct
1629131203.883,fixation,1,146,0.383,1.0,NoAct
1629131205.0,stimulus,1,147,,0.0,NoAct
1629131205.771,fixation,1,147,0.271,0.0,NoAct
1629131207.0,stimulus,1,148,,0.0,NoAct
1629131207.632,fixation,1,148,0.132,1.0,NoAct
1629131209.0,stimulus,1,149,,0.0,NoAct
1629131209.833,fixation,1,149,0.333,1.0,NoAct
1629131211.0,stimulus,1,150,,0.0,NoAct
1629131211.919,fixation,1,150,0.419,1.0,NoAct
1629131213.0,stimulus,1,151,,0.0,NoAct
1629131213.693,fixation,1,151,0.193,1.0,NoAct
1629131215.0,stimulus,1,152,,0.0,NoAct
1629131215.719,fixation,1,152,0.219,1.0,NoAct
1629131217.0,stimulus,1,153,,0.0,NoAct
1629131217.625,fixation,1,153,0.125,1.0,NoAct
1629131219.412,stimulus,1,154,0.412,1.0,NoAct
1629131219.5,fixation,1,154,,0.0,NoAct
1629131221.0,stimulus,1,155,,0.0,NoAct
1629131221.785,fixation,1,155,0.285,1.0,NoAct
1629131223.0,stimulus,1,156,,0.0,NoAct
1629131223.5,fixation,1,156,,0.0,NoAct
1629131225.0,stimulus,1,157,,0.0,NoAct
1629131225.528,fixation,1,157,0.028,1.0,NoAct
1629131227.434,stimulus,1,158,0.434,1.0,NoAct
1629131227.5,fixation,1,158,,0.0,NoAct
1629131229.0,stimulus,1,159,,0.0,NoAct
1629131229.548,fixation,1,159,0.048,1.0,NoAct
1629131231.43,stimulus,1,160,0.43,1.0,NoAct
1629131231.5,fixation,1,160,,0.0,NoAct
1629131233.455,stimulus,1,161,0.455,1.0,NoAct
1629131233.5,fixation,1,161,,0.0,NoAct
1629131235.493,stimulus,1,162,0.493,1.0,NoAct
1629131235.5,fixation,1,162,,0.0,NoAct
1629131237.0,stimulus,1,163,,0.0,NoAct
1629131237.579,fixation,1,163,0.079,1.0,NoAct
1629131239.445,stimulus,1,164,0.445,1.0,NoAct
1629131239.5,fixation,1,164,,0.0,NoAct
1629131241.359,stimulus,1,165,0.359,1.0,NoAct
1629131241.5,fixation,1,165,,0.0,NoAct
1629131243.0,stimulus,1,166,,0.0,NoAct
1629131243.503,fixation,1,166,0.003,1.0,NoAct
1629131245.492,stimulus,1,167,0.492,1.0,NoAct
1629131245.5,fixation,1,167,,0.0,NoAct
1629131247.436,stimulus,1,168,0.436,1.0,NoAct
1629131247.5,fixation,1,168,,0.0,NoAct
1629131249.0,stimulus,1,169,,0.0,NoAct
1629131249.636,fixation,1,169,0.136,1.0,NoAct
1629131251.445,stimulus,1,170,0.445,1.0,NoAct
1629131251.5,fixation,1,170,,0.0,NoAct
1629131253.36,stimulus,1,171,0.36,1.0,NoAct
1629131253.5,fixation,1,171,,0.0,NoAct
1629131255.0,stimulus,1,172,,0.0,NoAct
1629131255.532,fixation,1,172,0.032,1.0,NoAct
1629131257.433,stimulus,1,173,0.433,1.0,NoAct
1629131257.5,fixation,1,173,,0.0,NoAct
1629131259.445,stimulus,1,174,0.445,1.0,NoAct
1629131259.5,fixation,1,174,,0.0,NoAct
1629131261.448,stimulus,1,175,0.448,0.0,NoAct
1629131261.5,fixation,1,175,,0.0,NoAct
1629131263.0,stimulus,1,176,,0.0,NoAct
1629131263.786,fixation,1,176,0.286,1.0,NoAct
1629131265.0,stimulus,1,177,,0.0,NoAct
1629131265.881,fixation,1,177,0.381,1.0,NoAct
1629131267.0,stimulus,1,178,,0.0,NoAct
1629131267.689,fixation,1,178,0.189,1.0,NoAct
1629131269.0,stimulus,1,179,,0.0,NoAct
1629131269.557,fixation,1,179,0.057,1.0,NoAct
1629131271.384,stimulus,1,180,0.384,0.0,NoAct
1629131272.03,fixation,1,180,0.53,1.0,NoAct
1629131273.0,stimulus,1,181,,0.0,NoAct
1629131273.555,fixation,1,181,0.055,1.0,NoAct
1629131275.0,stimulus,1,182,,0.0,NoAct
1629131275.708,fixation,1,182,0.208,1.0,NoAct
1629131277.447,stimulus,1,183,0.447,1.0,NoAct
1629131277.5,fixation,1,183,,0.0,NoAct
1629131279.448,stimulus,1,184,0.448,1.0,NoAct
1629131279.5,fixation,1,184,,0.0,NoAct
1629131281.382,stimulus,1,185,0.382,1.0,NoAct
1629131281.5,fixation,1,185,,0.0,NoAct
1629131283.0,stimulus,1,186,,0.0,NoAct
1629131283.53,fixation,1,186,0.03,1.0,NoAct
1629131285.347,stimulus,1,187,0.347,1.0,NoAct
1629131285.5,fixation,1,187,,0.0,NoAct
1629131287.0,stimulus,1,188,,0.0,NoAct
1629131287.528,fixation,1,188,0.028,1.0,NoAct
1629131289.0,stimulus,1,189,,0.0,NoAct
1629131289.538,fixation,1,189,0.038,1.0,NoAct
1629131291.0,stimulus,1,190,,0.0,NoAct
1629131291.554,fixation,1,190,0.054,1.0,NoAct
1629131293.422,stimulus,1,191,0.422,1.0,NoAct
1629131293.5,fixation,1,191,,0.0,NoAct
1629131295.471,stimulus,1,192,0.471,1.0,NoAct
1629131295.5,fixation,1,192,,0.0,NoAct
1629131297.348,stimulus,1,193,0.348,1.0,NoAct
1629131297.5,fixation,1,193,,0.0,NoAct
1629131299.441,stimulus,1,194,0.441,1.0,NoAct
1629131299.5,fixation,1,194,,0.0,NoAct
1629131301.0,stimulus,1,195,,0.0,NoAct
1629131301.5,fixation,1,195,,0.0,NoAct
1629131303.0,stimulus,1,196,,0.0,NoAct
1629131303.546,fixation,1,196,0.046,1.0,NoAct
1629131305.0,stimulus,1,197,,0.0,NoAct
1629131305.898,fixation,1,197,0.398,1.0,NoAct
1629131307.0,stimulus,1,198,,0.0,NoAct
1629131307.621,fixation,1,198,0.121,1.0,NoAct
1629131309.0,stimulus,1,199,,0.0,NoAct
1629131309.812,fixation,1,199,0.312,1.0,NoAct
1629131311.329,stimulus,1,200,0.329,1.0,NoAct
1629131311.5,fixation,1,200,,0.0,NoAct
1629131313.354,stimulus,1,201,0.354,1.0,NoAct
1629131313.5,fixation,1,201,,0.0,NoAct
1629131315.404,stimulus,1,202,0.404,1.0,NoAct
1629131315.5,fixation,1,202,,0.0,NoAct
1629131317.326,stimulus,1,203,0.326,1.0,NoAct
1629131317.5,fixation,1,203,,0.0,NoAct
1629131319.0,stimulus,1,204,,0.0,NoAct
1629131319.5,fixation,1,204,,0.0,NoAct
1629131321.0,stimulus,1,205,,0.0,NoAct
1629131321.551,fixation,1,205,0.051,1.0,NoAct
1629131323.0,stimulus,1,206,,0.0,NoAct
1629131323.5,fixation,1,206,,0.0,NoAct
1629131325.441,stimulus,1,207,0.441,1.0,NoAct
1629131325.5,fixation,1,207,,0.0,NoAct
1629131327.0,stimulus,1,208,,0.0,NoAct
1629131327.699,fixation,1,208,0.199,1.0,NoAct
1629131329.0,stimulus,1,209,,0.0,NoAct
1629131329.56,fixation,1,209,0.06,1.0,NoAct
1629131331.0,stimulus,1,210,,0.0,NoAct
1629131331.86,fixation,1,210,0.36,1.0,NoAct
1629131333.0,stimulus,1,211,,0.0,NoAct
1629131333.575,fixation,1,211,0.075,1.0,NoAct
1629131335.0,stimulus,1,212,,0.0,NoAct
1629131335.532,fixation,1,212,0.032,1.0,NoAct
1629131337.0,stimulus,1,213,,0.0,NoAct
1629131337.633,fixation,1,213,0.133,1.0,NoAct
1629131339.0,stimulus,1,214,,0.0,NoAct
1629131339.588,fixation,1,214,0.088,1.0,NoAct
1629131341.0,stimulus,1,215,,0.0,NoAct
1629131341.931,fixation,1,215,0.431,0.0,NoAct
1629131343.0,stimulus,1,216,,0.0,NoAct
1629131343.555,fixation,1,216,0.055,1.0,NoAct
1629131345.0,stimulus,1,217,,0.0,NoAct
1629131345.657,fixation,1,217,0.157,0.0,NoAct
1629131347.0,stimulus,1,218,,0.0,NoAct
1629131347.578,fixation,1,218,0.078,1.0,NoAct
1629131349.0,stimulus,1,219,,0.0,NoAct
1629131349.54,fixation,1,219,0.04,1.0,NoAct
1629131351.0,stimulus,1,220,,0.0,NoAct
1629131351.854,fixation,1,220,0.354,1.0,NoAct
1629131353.0,stimulus,1,221,,,NoAct
1629131353.5,fixation,1,221,,,NoAct
1629131355.0,stimulus,1,222,,0.0,NoAct
1629131356.14,fixation,1,222,0.64,1.0,NoAct
1629131357.494,stimulus,1,223,0.494,1.0,NoAct
1629131357.5,fixation,1,223,,0.0,NoAct
1629131359.382,stimulus,1,224,0.382,1.0,NoAct
1629131359.5,fixation,1,224,,0.0,NoAct
1629131361.0,stimulus,1,225,,0.0,NoAct
1629131361.63,fixation,1,225,0.13,1.0,NoAct
1629131363.0,stimulus,1,226,,0.0,NoAct
1629131363.521,fixation,1,226,0.021,1.0,NoAct
1629131365.459,stimulus,1,227,0.459,1.0,NoAct
1629131365.5,fixation,1,227,,0.0,NoAct
1629131367.0,stimulus,1,228,,0.0,NoAct
1629131367.676,fixation,1,228,0.176,1.0,NoAct
1629131369.0,stimulus,1,229,,0.0,NoAct
1629131370.025,fixation,1,229,0.525,1.0,NoAct
1629131371.0,stimulus,1,230,,0.0,NoAct
1629131371.801,fixation,1,230,0.301,0.0,NoAct
1629131373.0,stimulus,1,231,,0.0,NoAct
1629131374.0,fixation,1,231,0.5,1.0,NoAct
1629131375.0,stimulus,1,232,,0.0,NoAct
1629131375.8,fixation,1,232,0.3,1.0,NoAct
1629131377.0,stimulus,1,233,,0.0,NoAct
1629131377.811,fixation,1,233,0.311,0.0,NoAct
1629131379.0,stimulus,1,234,,0.0,NoAct
1629131379.586,fixation,1,234,0.086,0.0,NoAct
1629131381.0,stimulus,1,235,,0.0,NoAct
1629131381.705,fixation,1,235,0.205,0.0,NoAct
1629131383.0,stimulus,1,236,,0.0,NoAct
1629131383.514,fixation,1,236,0.014,1.0,NoAct
1629131385.0,stimulus,1,237,,0.0,NoAct
1629131385.785,fixation,1,237,0.285,1.0,NoAct
1629131387.0,stimulus,1,238,,0.0,NoAct
1629131387.5,fixation,1,238,,0.0,NoAct
1629131389.0,stimulus,1,239,,0.0,NoAct
1629131389.69,fixation,1,239,0.19,1.0,NoAct
1629131391.0,stimulus,1,240,,0.0,NoAct
1629131391.529,fixation,1,240,0.029,0.0,NoAct
1629131393.0,stimulus,1,241,,0.0,NoAct
1629131393.792,fixation,1,241,0.292,1.0,NoAct
1629131395.0,stimulus,1,242,,0.0,NoAct
1629131395.607,fixation,1,242,0.107,1.0,NoAct
1629131397.0,stimulus,1,243,,0.0,NoAct
1629131397.583,fixation,1,243,0.083,1.0,NoAct
1629131399.0,stimulus,1,244,,0.0,NoAct
1629131399.833,fixation,1,244,0.333,1.0,NoAct
1629131401.481,stimulus,1,245,0.481,1.0,NoAct
1629131401.5,fixation,1,245,,0.0,NoAct
1629131403.491,stimulus,1,246,0.491,1.0,NoAct
1629131403.5,fixation,1,246,,0.0,NoAct
1629131405.478,stimulus,1,247,0.478,1.0,NoAct
1629131405.5,fixation,1,247,,0.0,NoAct
1629131407.0,stimulus,1,248,,0.0,NoAct
1629131407.539,fixation,1,248,0.039,1.0,NoAct
1629131409.497,stimulus,1,249,0.497,1.0,NoAct
1629131409.5,fixation,1,249,,0.0,NoAct
1629131411.0,stimulus,1,250,,0.0,NoAct
1629131411.513,fixation,1,250,0.013,1.0,NoAct
1629131413.0,stimulus,1,251,,0.0,NoAct
1629131413.654,fixation,1,251,0.154,1.0,NoAct
1629131415.494,stimulus,1,252,0.494,1.0,NoAct
1629131415.5,fixation,1,252,,0.0,NoAct
1629131417.428,stimulus,1,253,0.428,1.0,NoAct
1629131417.5,fixation,1,253,,0.0,NoAct
1629131419.475,stimulus,1,254,0.475,1.0,NoAct
1629131419.5,fixation,1,254,,0.0,NoAct
1629131421.468,stimulus,1,255,0.468,1.0,NoAct
1629131421.5,fixation,1,255,,0.0,NoAct
1629131423.0,stimulus,1,256,,0.0,NoAct
1629131423.757,fixation,1,256,0.257,1.0,NoAct
1629131425.4,stimulus,1,257,0.4,1.0,NoAct
1629131425.5,fixation,1,257,,0.0,NoAct
1629131427.4,stimulus,1,258,0.4,1.0,NoAct
1629131427.5,fixation,1,258,,0.0,NoAct
1629131429.403,stimulus,1,259,0.403,1.0,NoAct
1629131429.5,fixation,1,259,,0.0,NoAct
1629131431.445,stimulus,1,260,0.445,1.0,NoAct
1629131431.5,fixation,1,260,,0.0,NoAct
1629131433.353,stimulus,1,261,0.353,1.0,NoAct
1629131433.5,fixation,1,261,,0.0,NoAct
1629131435.449,stimulus,1,262,0.449,1.0,NoAct
1629131435.5,fixation,1,262,,0.0,NoAct
1629131437.0,stimulus,1,263,,0.0,NoAct
1629131437.591,fixation,1,263,0.091,1.0,NoAct
1629131439.476,stimulus,1,264,0.476,1.0,NoAct
1629131439.5,fixation,1,264,,0.0,NoAct
1629131441.459,stimulus,1,265,0.459,1.0,NoAct
1629131441.5,fixation,1,265,,0.0,NoAct
1629131443.0,stimulus,1,266,,0.0,NoAct
1629131443.737,fixation,1,266,0.237,1.0,NoAct
1629131445.387,stimulus,1,267,0.387,1.0,NoAct
1629131445.5,fixation,1,267,,0.0,NoAct
1629131447.396,stimulus,1,268,0.396,1.0,NoAct
1629131447.5,fixation,1,268,,0.0,NoAct
1629131449.0,stimulus,1,269,,0.0,NoAct
1629131449.663,fixation,1,269,0.163,1.0,NoAct
1629131451.0,stimulus,1,270,,0.0,NoAct
1629131452.014,fixation,1,270,0.514,1.0,NoAct
1629131453.428,stimulus,1,271,0.428,1.0,NoAct
1629131453.5,fixation,1,271,,0.0,NoAct
1629131455.0,stimulus,1,272,,0.0,NoAct
1629131455.544,fixation,1,272,0.044,1.0,NoAct
1629131457.439,stimulus,1,273,0.439,1.0,NoAct
1629131457.5,fixation,1,273,,0.0,NoAct
1629131459.477,stimulus,1,274,0.477,1.0,NoAct
1629131459.5,fixation,1,274,,0.0,NoAct
1629131461.414,stimulus,1,275,0.414,1.0,NoAct
1629131461.5,fixation,1,275,,0.0,NoAct
1629131463.0,stimulus,1,276,,0.0,NoAct
1629131463.576,fixation,1,276,0.076,1.0,NoAct
1629131465.437,stimulus,1,277,0.437,1.0,NoAct
1629131465.5,fixation,1,277,,0.0,NoAct
1629131467.0,stimulus,1,278,,0.0,NoAct
1629131467.545,fixation,1,278,0.045,1.0,NoAct
1629131469.432,stimulus,1,279,0.432,1.0,NoAct
1629131469.5,fixation,1,279,,0.0,NoAct
1629131471.459,stimulus,1,280,0.459,1.0,NoAct
1629131471.5,fixation,1,280,,0.0,NoAct
1629131473.434,stimulus,1,281,0.434,1.0,NoAct
1629131473.5,fixation,1,281,,0.0,NoAct
1629131475.408,stimulus,1,282,0.408,1.0,NoAct
1629131475.5,fixation,1,282,,0.0,NoAct
1629131477.0,stimulus,1,283,,0.0,NoAct
1629131477.557,fixation,1,283,0.057,1.0,NoAct
1629131479.428,stimulus,1,284,0.428,1.0,NoAct
1629131479.5,fixation,1,284,,0.0,NoAct
1629131481.0,stimulus,1,285,,0.0,NoAct
1629131481.726,fixation,1,285,0.226,1.0,NoAct
1629131483.0,stimulus,1,286,,0.0,NoAct
1629131483.518,fixation,1,286,0.018,1.0,NoAct
1629131485.438,stimulus,1,287,0.438,1.0,NoAct
1629131485.5,fixation,1,287,,0.0,NoAct
1629131487.0,stimulus,1,288,,0.0,NoAct
1629131487.885,fixation,1,288,0.385,1.0,NoAct
1629131489.405,stimulus,1,289,0.405,1.0,NoAct
1629131489.5,fixation,1,289,,0.0,NoAct
1629131491.41,stimulus,1,290,0.41,1.0,NoAct
1629131491.5,fixation,1,290,,0.0,NoAct
1629131493.0,stimulus,1,291,,0.0,NoAct
1629131493.689,fixation,1,291,0.189,1.0,NoAct
1629131495.0,stimulus,1,292,,0.0,NoAct
1629131495.584,fixation,1,292,0.084,1.0,NoAct
1629131497.0,stimulus,1,293,,0.0,NoAct
1629131497.653,fixation,1,293,0.153,1.0,NoAct
1629131499.411,stimulus,1,294,0.411,0.0,NoAct
1629131499.5,fixation,1,294,,0.0,NoAct
1629131501.419,stimulus,1,295,0.419,1.0,NoAct
1629131501.5,fixation,1,295,,0.0,NoAct
1629131503.367,stimulus,1,296,0.367,1.0,NoAct
1629131503.5,fixation,1,296,,0.0,NoAct
1629131505.0,stimulus,1,297,,0.0,NoAct
1629131505.732,fixation,1,297,0.232,1.0,NoAct
1629131507.0,stimulus,1,298,,0.0,NoAct
1629131508.099,fixation,1,298,0.599,1.0,NoAct
1629131509.0,stimulus,1,299,,0.0,NoAct
1629131509.547,fixation,1,299,0.047,1.0,NoAct
1629131511.0,stimulus,1,300,,0.0,NoAct
1629131511.663,fixation,1,300,0.163,1.0,NoAct
1629131513.0,stimulus,1,301,,0.0,NoAct
1629131513.807,fixation,1,301,0.307,1.0,NoAct
1629131515.0,stimulus,1,302,,0.0,NoAct
1629131515.813,fixation,1,302,0.313,1.0,NoAct
1629131517.0,stimulus,1,303,,0.0,NoAct
1629131517.753,fixation,1,303,0.253,1.0,NoAct
1629131519.0,stimulus,1,304,,0.0,NoAct
1629131520.259,fixation,1,304,0.759,0.0,NoAct
1629131521.0,stimulus,1,305,,0.0,NoAct
1629131521.937,fixation,1,305,0.437,1.0,NoAct
1629131523.0,stimulus,1,306,,0.0,NoAct
1629131523.922,fixation,1,306,0.422,1.0,NoAct
1629131525.0,stimulus,1,307,,0.0,NoAct
1629131525.603,fixation,1,307,0.103,1.0,NoAct
1629131527.0,stimulus,1,308,,0.0,NoAct
1629131527.702,fixation,1,308,0.202,1.0,NoAct
1629131529.0,stimulus,1,309,,0.0,NoAct
1629131529.739,fixation,1,309,0.239,1.0,NoAct
1629131531.0,stimulus,1,310,,0.0,NoAct
1629131531.5,fixation,1,310,,0.0,NoAct
1629131533.0,stimulus,1,311,,0.0,NoAct
1629131533.599,fixation,1,311,0.099,1.0,NoAct
1629131535.0,stimulus,1,312,,0.0,NoAct
1629131535.553,fixation,1,312,0.053,1.0,NoAct
1629131537.424,stimulus,1,313,0.424,0.0,NoAct
1629131537.5,fixation,1,313,,0.0,NoAct
1629131539.0,stimulus,1,314,,0.0,NoAct
1629131539.61,fixation,1,314,0.11,1.0,NoAct
1629131541.473,stimulus,1,315,0.473,1.0,NoAct
1629131541.5,fixation,1,315,,0.0,NoAct
1629131543.0,stimulus,1,316,,0.0,NoAct
1629131543.528,fixation,1,316,0.028,1.0,NoAct
1629131545.0,stimulus,1,317,,0.0,NoAct
1629131545.557,fixation,1,317,0.057,1.0,NoAct
1629131547.0,stimulus,1,318,,0.0,NoAct
1629131547.674,fixation,1,318,0.174,1.0,NoAct
1629131549.0,stimulus,1,319,,0.0,NoAct
1629131549.643,fixation,1,319,0.143,0.0,NoAct
1629131551.0,stimulus,1,320,,0.0,NoAct
1629131551.855,fixation,1,320,0.355,0.0,NoAct
1629131553.0,stimulus,1,321,,0.0,NoAct
1629131553.676,fixation,1,321,0.176,1.0,NoAct
1629131555.0,stimulus,1,322,,0.0,NoAct
1629131555.518,fixation,1,322,0.018,1.0,NoAct
1629131557.0,stimulus,1,323,,0.0,NoAct
1629131557.698,fixation,1,323,0.198,1.0,NoAct
1629131559.0,stimulus,1,324,,0.0,NoAct
1629131559.651,fixation,1,324,0.151,1.0,NoAct
1629131561.0,stimulus,1,325,,0.0,NoAct
1629131561.511,fixation,1,325,0.011,1.0,NoAct
1629131563.0,stimulus,1,326,,0.0,NoAct
1629131563.726,fixation,1,326,0.226,1.0,NoAct
1629131565.0,stimulus,1,327,,0.0,NoAct
1629131565.664,fixation,1,327,0.164,1.0,NoAct
1629131567.0,stimulus,1,328,,0.0,NoAct
1629131567.923,fixation,1,328,0.423,1.0,NoAct
1629131569.0,stimulus,1,329,,0.0,NoAct
1629131569.74,fixation,1,329,0.24,1.0,NoAct
1629131571.0,stimulus,1,330,,0.0,NoAct
1629131571.599,fixation,1,330,0.099,1.0,NoAct
1629131573.0,stimulus,1,331,,0.0,NoAct
1629131573.646,fixation,1,331,0.146,1.0,NoAct
1629131575.0,stimulus,1,332,,0.0,NoAct
1629131575.5,fixation,1,332,,0.0,NoAct
1629131577.268,stimulus,1,333,0.268,1.0,NoAct
1629131577.5,fixation,1,333,,0.0,NoAct
1629131579.404,stimulus,1,334,0.404,1.0,NoAct
1629131579.5,fixation,1,334,,0.0,NoAct
1629131581.0,stimulus,1,335,,0.0,NoAct
1629131581.796,fixation,1,335,0.296,1.0,NoAct
1629131583.0,stimulus,1,336,,0.0,NoAct
1629131583.925,fixation,1,336,0.425,1.0,NoAct
1629131585.403,stimulus,1,337,0.403,1.0,NoAct
1629131585.5,fixation,1,337,,0.0,NoAct
1629131587.466,stimulus,1,338,0.466,1.0,NoAct
1629131587.5,fixation,1,338,,0.0,NoAct
1629131589.0,stimulus,1,339,,0.0,NoAct
1629131589.69,fixation,1,339,0.19,0.0,NoAct
1629131591.0,stimulus,1,340,,0.0,NoAct
1629131592.225,fixation,1,340,0.725,1.0,NoAct
1629131593.0,stimulus,1,341,,0.0,NoAct
1629131593.681,fixation,1,341,0.181,1.0,NoAct
1629131595.0,stimulus,1,342,,0.0,NoAct
1629131595.517,fixation,1,342,0.017,1.0,NoAct
1629131597.0,stimulus,1,343,,0.0,NoAct
1629131597.562,fixation,1,343,0.062,1.0,NoAct
1629131599.0,stimulus,1,344,,0.0,NoAct
1629131599.55,fixation,1,344,0.05,1.0,NoAct
1629131601.0,stimulus,1,345,,0.0,NoAct
1629131601.738,fixation,1,345,0.238,0.0,NoAct
1629131603.0,stimulus,1,346,,0.0,NoAct
1629131603.625,fixation,1,346,0.125,1.0,NoAct
1629131605.0,stimulus,1,347,,0.0,NoAct
1629131605.571,fixation,1,347,0.071,1.0,NoAct
1629131607.0,stimulus,1,348,,0.0,NoAct
1629131607.621,fixation,1,348,0.121,1.0,NoAct
1629131609.0,stimulus,1,349,,0.0,NoAct
1629131609.534,fixation,1,349,0.034,1.0,NoAct
1629131611.0,stimulus,1,350,,0.0,NoAct
1629131611.726,fixation,1,350,0.226,0.0,NoAct
1629131613.0,stimulus,1,351,,0.0,NoAct
1629131613.603,fixation,1,351,0.103,1.0,NoAct
1629131615.0,stimulus,1,352,,0.0,NoAct
1629131615.548,fixation,1,352,0.048,1.0,NoAct
1629131617.361,stimulus,1,353,0.361,1.0,NoAct
1629131617.5,fixation,1,353,,0.0,NoAct
1629131619.0,stimulus,1,354,,0.0,NoAct
1629131619.838,fixation,1,354,0.338,1.0,NoAct
1629131621.376,stimulus,1,355,0.376,1.0,NoAct
1629131621.5,fixation,1,355,,0.0,NoAct
1629131623.428,stimulus,1,356,0.428,1.0,NoAct
1629131623.5,fixation,1,356,,0.0,NoAct
1629131625.0,stimulus,1,357,,0.0,NoAct
1629131625.786,fixation,1,357,0.286,1.0,NoAct
1629131627.0,stimulus,1,358,,0.0,NoAct
1629131627.986,fixation,1,358,0.486,1.0,NoAct
1629131629.0,stimulus,1,359,,0.0,NoAct
1629131629.752,fixation,1,359,0.252,1.0,NoAct
1629131631.0,stimulus,1,360,,0.0,NoAct
1629131632.107,fixation,1,360,0.607,0.0,NoAct
1629131633.0,stimulus,1,361,,0.0,NoAct
1629131633.697,fixation,1,361,0.197,1.0,NoAct
1629131635.482,stimulus,1,362,0.482,1.0,NoAct
1629131635.5,fixation,1,362,,0.0,NoAct
1629131637.0,stimulus,1,363,,0.0,NoAct
1629131637.527,fixation,1,363,0.027,1.0,NoAct
1629131639.0,stimulus,1,364,,0.0,NoAct
1629131639.513,fixation,1,364,0.013,0.0,NoAct
1629131641.499,stimulus,1,365,0.499,1.0,NoAct
1629131641.5,fixation,1,365,,0.0,NoAct
1629131643.0,stimulus,1,366,,0.0,NoAct
1629131643.722,fixation,1,366,0.222,1.0,NoAct
1629131645.0,stimulus,1,367,,0.0,NoAct
1629131646.394,fixation,1,367,0.894,0.0,NoAct
1629131647.0,stimulus,1,368,,0.0,NoAct
1629131647.832,fixation,1,368,0.332,1.0,NoAct
1629131649.0,stimulus,1,369,,0.0,NoAct
1629131649.795,fixation,1,369,0.295,1.0,NoAct
1629131651.0,stimulus,1,370,,0.0,NoAct
1629131651.686,fixation,1,370,0.186,1.0,NoAct
1629131653.0,stimulus,1,371,,0.0,NoAct
1629131653.758,fixation,1,371,0.258,1.0,NoAct
1629131655.0,stimulus,1,372,,0.0,NoAct
1629131656.408,fixation,1,372,0.908,1.0,NoAct
1629131657.0,stimulus,1,373,,0.0,NoAct
1629131658.018,fixation,1,373,0.518,1.0,NoAct
1629131659.0,stimulus,1,374,,0.0,NoAct
1629131659.577,fixation,1,374,0.077,0.0,NoAct
1629131661.0,stimulus,1,375,,0.0,NoAct
1629131662.09,fixation,1,375,0.59,1.0,NoAct
1629131663.0,stimulus,1,376,,0.0,NoAct
1629131663.803,fixation,1,376,0.303,1.0,NoAct
1629131665.0,stimulus,1,377,,0.0,NoAct
1629131665.534,fixation,1,377,0.034,1.0,NoAct
1629131667.453,stimulus,1,378,0.453,1.0,NoAct
1629131667.5,fixation,1,378,,0.0,NoAct
1629131669.0,stimulus,1,379,,0.0,NoAct
1629131669.692,fixation,1,379,0.192,1.0,NoAct
1629131671.0,stimulus,1,380,,0.0,NoAct
1629131671.663,fixation,1,380,0.163,1.0,NoAct
1629131673.0,stimulus,1,381,,0.0,NoAct
1629131673.579,fixation,1,381,0.079,1.0,NoAct
1629131675.0,stimulus,1,382,,0.0,NoAct
1629131675.666,fixation,1,382,0.166,1.0,NoAct
1629131677.407,stimulus,1,383,0.407,1.0,NoAct
1629131677.5,fixation,1,383,,0.0,NoAct
1629131679.0,stimulus,1,384,,0.0,NoAct
1629131679.5,fixation,1,384,,0.0,NoAct
1629131681.0,stimulus,1,385,,0.0,NoAct
1629131682.087,fixation,1,385,0.587,1.0,NoAct
1629131683.0,stimulus,1,386,,0.0,NoAct
1629131683.552,fixation,1,386,0.052,0.0,NoAct
1629131685.0,stimulus,1,387,,0.0,NoAct
1629131685.528,fixation,1,387,0.028,1.0,NoAct
1629131687.0,stimulus,1,388,,0.0,NoAct
1629131687.605,fixation,1,388,0.105,1.0,NoAct
1629131689.0,stimulus,1,389,,0.0,NoAct
1629131689.72,fixation,1,389,0.22,1.0,NoAct
1629131691.0,stimulus,1,390,,0.0,NoAct
1629131691.536,fixation,1,390,0.036,1.0,NoAct
1629131693.36,stimulus,1,391,0.36,1.0,NoAct
1629131693.5,fixation,1,391,,0.0,NoAct
1629131695.449,stimulus,1,392,0.449,1.0,NoAct
1629131695.5,fixation,1,392,,0.0,NoAct
1629131697.399,stimulus,1,393,0.399,1.0,NoAct
1629131697.5,fixation,1,393,,0.0,NoAct
1629131699.0,stimulus,1,394,,0.0,NoAct
1629131699.875,fixation,1,394,0.375,1.0,NoAct
1629131701.467,stimulus,1,395,0.467,1.0,NoAct
1629131701.5,fixation,1,395,,0.0,NoAct
1629131703.0,stimulus,1,396,,0.0,NoAct
1629131703.582,fixation,1,396,0.082,1.0,NoAct
1629131705.462,stimulus,1,397,0.462,1.0,NoAct
1629131705.5,fixation,1,397,,0.0,NoAct
1629131707.0,stimulus,1,398,,,PerfumeSession
1629131707.5,fixation,1,398,,,PerfumeSession
1629131709.0,stimulus,1,399,,,PerfumeSession
1629131709.5,fixation,1,399,,,PerfumeSession
1629131711.0,stimulus,1,400,,,PerfumeSession
1629131711.5,fixation,1,400,,,PerfumeSession
1629131713.0,stimulus,1,401,,,PerfumeSession
1629131713.5,fixation,1,401,,,PerfumeSession
1629131715.0,stimulus,1,402,,,PerfumeSession
1629131715.5,fixation,1,402,,,PerfumeSession
1629131717.0,stimulus,1,403,,,PerfumeSession
1629131717.5,fixation,1,403,,,PerfumeSession
1629131719.0,stimulus,1,404,,,PerfumeSession
1629131719.5,fixation,1,404,,,PerfumeSession
1629131721.0,stimulus,1,405,,,PerfumeSession
1629131721.5,fixation,1,405,,,PerfumeSession
1629131723.0,stimulus,1,406,,,PerfumeSession
1629131723.5,fixation,1,406,,,PerfumeSession
1629131725.0,stimulus,1,407,,,PerfumeSession
1629131725.5,fixation,1,407,,,PerfumeSession
1629131727.0,stimulus,1,408,,,PerfumeSession
1629131727.5,fixation,1,408,,,PerfumeSession
1629131729.0,stimulus,1,409,,,PerfumeSession
1629131729.5,fixation,1,409,,,PerfumeSession
1629131731.0,stimulus,1,410,,,PerfumeSession
1629131731.5,fixation,1,410,,,PerfumeSession
1629131733.0,stimulus,1,411,,,PerfumeSession
1629131733.5,fixation,1,411,,,PerfumeSession
1629131735.0,stimulus,1,412,,,PerfumeSession
1629131735.5,fixation,1,412,,,PerfumeSession
1629131737.0,stimulus,1,413,,,PerfumeSession
1629131737.5,fixation,1,413,,,PerfumeSession
1629131739.0,stimulus,1,414,,,PerfumeSession
1629131739.5,fixation,1,414,,,PerfumeSession
1629131741.0,stimulus,1,415,,,PerfumeSession
1629131741.5,fixation,1,415,,,PerfumeSession
1629131743.0,stimulus,1,416,,,PerfumeSession
1629131743.5,fixation,1,416,,,PerfumeSession
1629131745.0,stimulus,1,417,,,PerfumeSession
1629131745.5,fixation,1,417,,,PerfumeSession
1629131747.0,stimulus,1,418,,,PerfumeSession
1629131747.5,fixation,1,418,,,PerfumeSession
1629131749.0,stimulus,1,419,,,PerfumeSession
1629131749.5,fixation,1,419,,,PerfumeSession
1629131751.0,stimulus,1,420,,,PerfumeSession
1629131751.5,fixation,1,420,,,PerfumeSession
1629131753.0,stimulus,1,421,,,PerfumeSession
1629131753.5,fixation,1,421,,,PerfumeSession
1629131755.0,stimulus,1,422,,,PerfumeSession
1629131755.5,fixation,1,422,,,PerfumeSession
1629131757.0,stimulus,1,423,,,PerfumeSession
1629131757.5,fixation,1,423,,,PerfumeSession
1629131759.0,stimulus,1,424,,,PerfumeSession
1629131759.5,fixation,1,424,,,PerfumeSession
1629131761.0,stimulus,1,425,,,PerfumeSession
1629131761.5,fixation,1,425,,,PerfumeSession
1629131763.0,stimulus,1,426,,,PerfumeSession
1629131763.5,fixation,1,426,,,PerfumeSession
1629131765.0,stimulus,1,427,,,PerfumeSession
1629131765.5,fixation,1,427,,,PerfumeSession
1629131767.0,stimulus,1,428,,,PerfumeSession
1629131767.5,fixation,1,428,,,PerfumeSession
1629131769.0,stimulus,1,429,,,PerfumeSession
1629131769.5,fixation,1,429,,,PerfumeSession
1629131771.0,stimulus,1,430,,,PerfumeSession
1629131771.5,fixation,1,430,,,PerfumeSession
1629131773.0,stimulus,1,431,,,PerfumeSession
1629131773.5,fixation,1,431,,,PerfumeSession
1629131775.0,stimulus,1,432,,,PerfumeSession
1629131775.5,fixation,1,432,,,PerfumeSession
1629131777.0,stimulus,1,433,,,PerfumeSession
1629131777.5,fixation,1,433,,,PerfumeSession
1629131779.0,stimulus,1,434,,,PerfumeSession
1629131779.5,fixation,1,434,,,PerfumeSession
1629131781.0,stimulus,1,435,,,PerfumeSession
1629131781.5,fixation,1,435,,,PerfumeSession
1629131783.0,stimulus,1,436,,,PerfumeSession
1629131783.5,fixation,1,436,,,PerfumeSession
1629131785.0,stimulus,1,437,,,PerfumeSession
1629131785.5,fixation,1,437,,,PerfumeSession
1629131787.0,stimulus,1,438,,,PerfumeSession
1629131787.5,fixation,1,438,,,PerfumeSession
1629131789.0,stimulus,1,439,,,PerfumeSession
1629131789.5,fixation,1,439,,,PerfumeSession
1629131791.0,stimulus,1,440,,,PerfumeSession
1629131791.5,fixation,1,440,,,PerfumeSession
1629131793.0,stimulus,1,441,,,PerfumeSession
1629131793.5,fixation,1,441,,,PerfumeSession
1629131795.0,stimulus,1,442,,,PerfumeSession
1629131795.5,fixation,1,442,,,PerfumeSession
1629131797.0,stimulus,1,443,,,PerfumeSession
1629131797.5,fixation,1,443,,,PerfumeSession
1629131799.0,stimulus,1,444,,,PerfumeSession
1629131799.5,fixation,1,444,,,PerfumeSession
1629131801.0,stimulus,1,445,,,PerfumeSession
1629131801.5,fixation,1,445,,,PerfumeSession
1629131803.0,stimulus,1,446,,,PerfumeSession
1629131803.5,fixation,1,446,,,PerfumeSession
1629131805.0,stimulus,1,447,,,PerfumeSession
1629131805.5,fixation,1,447,,,PerfumeSession
1629131807.0,stimulus,1,448,,,PerfumeSession
1629131807.5,fixation,1,448,,,PerfumeSession
1629131809.0,stimulus,1,449,,,PerfumeSession
1629131809.5,fixation,1,449,,,PerfumeSession
1629131811.0,stimulus,1,450,,,PerfumeSession
1629131811.5,fixation,1,450,,,PerfumeSession
1629131813.0,stimulus,1,451,,,PerfumeSession
1629131813.5,fixation,1,451,,,PerfumeSession
1629131815.0,stimulus,1,452,,,PerfumeSession
1629131815.5,fixation,1,452,,,PerfumeSession
1629131817.0,stimulus,1,453,,,PerfumeSession
1629131817.5,fixation,1,453,,,PerfumeSession
1629131819.0,stimulus,1,454,,,PerfumeSession
1629131819.5,fixation,1,454,,,PerfumeSession
1629131821.0,stimulus,1,455,,,PerfumeSession
1629131821.5,fixation,1,455,,,PerfumeSession
1629131823.0,stimulus,1,456,,,PerfumeSession
1629131823.5,fixation,1,456,,,PerfumeSession
1629131825.0,stimulus,1,457,,,PerfumeSession
1629131825.5,fixation,1,457,,,PerfumeSession
1629131827.0,stimulus,1,458,,,PerfumeSession
1629131827.5,fixation,1,458,,,PerfumeSession
1629131829.0,stimulus,1,459,,,PerfumeSession
1629131829.5,fixation,1,459,,,PerfumeSession
1629131831.0,stimulus,1,460,,,PerfumeSession
1629131831.5,fixation,1,460,,,PerfumeSession
1629131833.0,stimulus,1,461,,,PerfumeSession
1629131833.5,fixation,1,461,,,PerfumeSession
1629131835.0,stimulus,1,462,,,PerfumeSession
1629131835.5,fixation,1,462,,,PerfumeSession
1629131837.0,stimulus,1,463,,,PerfumeSession
1629131837.5,fixation,1,463,,,PerfumeSession
1629131839.0,stimulus,1,464,,,PerfumeSession
1629131839.5,fixation,1,464,,,PerfumeSession
1629131841.0,stimulus,1,465,,,PerfumeSession
1629131841.5,fixation,1,465,,,PerfumeSession
1629131843.0,stimulus,1,466,,,PerfumeSession
1629131843.5,fixation,1,466,,,PerfumeSession
1629131845.0,stimulus,1,467,,,PerfumeSession
1629131845.5,fixation,1,467,,,PerfumeSession
1629131847.0,stimulus,1,468,,,PerfumeSession
1629131847.5,fixation,1,468,,,PerfumeSession
1629131849.0,stimulus,1,469,,,PerfumeSession
1629131849.5,fixation,1,469,,,PerfumeSession
1629131851.0,stimulus,1,470,,,PerfumeSession
1629131851.5,fixation,1,470,,,PerfumeSession
1629131853.0,stimulus,1,471,,,PerfumeSession
1629131853.5,fixation,1,471,,,PerfumeSession
1629131855.0,stimulus,1,472,,,PerfumeSession
1629131855.5,fixation,1,472,,,PerfumeSession
1629131857.0,stimulus,1,473,,,PerfumeSession
1629131857.5,fixation,1,473,,,PerfumeSession
1629131859.0,stimulus,1,474,,,PerfumeSession
1629131859.5,fixation,1,474,,,PerfumeSession
1629131861.0,stimulus,1,475,,,PerfumeSession
1629131861.5,fixation,1,475,,,PerfumeSession
1629131863.0,stimulus,1,476,,,PerfumeSession
1629131863.5,fixation,1,476,,,PerfumeSession
1629131865.0,stimulus,1,477,,,PerfumeSession
1629131865.5,fixation,1,477,,,PerfumeSession
1629131867.0,stimulus,1,478,,,PerfumeSession
1629131867.5,fixation,1,478,,,PerfumeSession
1629131869.0,stimulus,1,479,,,PerfumeSession
1629131869.5,fixation,1,479,,,PerfumeSession
1629131871.0,stimulus,1,480,,,PerfumeSession
1629131871.5,fixation,1,480,,,PerfumeSession
1629131873.0,stimulus,1,481,,,PerfumeSession
1629131873.5,fixation,1,481,,,PerfumeSession
1629131875.0,stimulus,1,482,,,PerfumeSession
1629131875.5,fixation,1,482,,,PerfumeSession
1629131877.0,stimulus,1,483,,,PerfumeSession
1629131877.5,fixation,1,483,,,PerfumeSession
1629131879.0,stimulus,1,484,,,PerfumeSession
1629131879.5,fixation,1,484,,,PerfumeSession
1629131881.0,stimulus,1,485,,,PerfumeSession
1629131881.5,fixation,1,485,,,PerfumeSession
1629131883.0,stimulus,1,486,,,PerfumeSession
1629131883.5,fixation,1,486,,,PerfumeSession
1629131885.0,stimulus,1,487,,,PerfumeSession
1629131885.5,fixation,1,487,,,PerfumeSession
1629131887.0,stimulus,1,488,,,PerfumeSession
1629131887.5,fixation,1,488,,,PerfumeSession
1629131889.0,stimulus,1,489,,,PerfumeSession
1629131889.5,fixation,1,489,,,PerfumeSession
1629131891.0,stimulus,1,490,,,PerfumeSession
1629131891.5,fixation,1,490,,,PerfumeSession
1629131893.0,stimulus,1,491,,,PerfumeSession
1629131893.5,fixation,1,491,,,PerfumeSession
1629131894.41,stimulus,2,1,,,PracticeSession
1629131894.91,fixation,2,1,,,PracticeSession
1629131895.0,stimulus,1,492,,,PerfumeSession
1629131895.5,fixation,1,492,,,PerfumeSession
1629131896.41,stimulus,2,2,,,PracticeSession
1629131896.91,fixation,2,2,,,PracticeSession
1629131897.0,stimulus,1,493,,,PerfumeSession
1629131897.5,fixation,1,493,,,PerfumeSession
1629131898.41,stimulus,2,3,,,PracticeSession
1629131898.91,fixation,2,3,,,PracticeSession
1629131899.0,stimulus,1,494,,,PerfumeSession
1629131899.5,fixation,1,494,,,PerfumeSession
1629131900.41,stimulus,2,4,,,PracticeSession
1629131900.91,fixation,2,4,,,PracticeSession
1629131901.0,stimulus,1,495,,,PerfumeSession
1629131901.5,fixation,1,495,,,PerfumeSession
1629131902.41,stimulus,2,5,,,PracticeSession
1629131902.91,fixation,2,5,,,PracticeSession
1629131903.0,stimulus,1,496,,,PerfumeSession
1629131903.5,fixation,1,496,,,PerfumeSession
1629131904.41,stimulus,2,6,,,PracticeSession
1629131904.91,fixation,2,6,,,PracticeSession
1629131905.0,stimulus,1,497,,,PerfumeSession
1629131905.5,fixation,1,497,,,PerfumeSession
1629131906.41,stimulus,2,7,,,PracticeSession
1629131906.91,fixation,2,7,,,PracticeSession
1629131907.0,stimulus,1,498,,,PerfumeSession
1629131907.5,fixation,1,498,,,PerfumeSession
1629131908.41,stimulus,2,8,,,PracticeSession
1629131908.91,fixation,2,8,,,PracticeSession
1629131909.0,stimulus,1,499,,,PerfumeSession
1629131909.5,fixation,1,499,,,PerfumeSession
1629131910.41,stimulus,2,9,,,PracticeSession
1629131910.91,fixation,2,9,,,PracticeSession
1629131911.0,stimulus,1,500,,,PerfumeSession
1629131911.5,fixation,1,500,,,PerfumeSession
1629131912.41,stimulus,2,10,,,PracticeSession
1629131912.91,fixation,2,10,,,PracticeSession
1629131913.0,stimulus,1,501,,,PerfumeSession
1629131913.5,fixation,1,501,,,PerfumeSession
1629131914.41,stimulus,2,11,,,PracticeSession
1629131914.91,fixation,2,11,,,PracticeSession
1629131915.0,stimulus,1,502,,,PerfumeSession
1629131915.5,fixation,1,502,,,PerfumeSession
1629131916.41,stimulus,2,12,,,PracticeSession
1629131916.91,fixation,2,12,,,PracticeSession
1629131917.0,stimulus,1,503,,,PerfumeSession
1629131917.5,fixation,1,503,,,PerfumeSession
1629131918.41,stimulus,2,13,,,PracticeSession
1629131918.91,fixation,2,13,,,PracticeSession
1629131919.0,stimulus,1,504,,,PerfumeSession
1629131919.5,fixation,1,504,,,PerfumeSession
1629131920.41,stimulus,2,14,,,PracticeSession
1629131920.91,fixation,2,14,,,PracticeSession
1629131921.0,stimulus,1,505,,,PerfumeSession
1629131921.5,fixation,1,505,,,PerfumeSession
1629131922.41,stimulus,2,15,,,PracticeSession
1629131922.91,fixation,2,15,,,PracticeSession
1629131923.0,stimulus,1,506,,,PerfumeSession
1629131923.5,fixation,1,506,,,PerfumeSession
1629131924.41,stimulus,2,16,,,PracticeSession
1629131924.91,fixation,2,16,,,PracticeSession
1629131925.0,stimulus,1,507,,,PerfumeSession
1629131925.5,fixation,1,507,,,PerfumeSession
1629131926.41,stimulus,2,17,,,PracticeSession
1629131926.91,fixation,2,17,,,PracticeSession
1629131927.0,stimulus,1,508,,,PerfumeSession
1629131927.5,fixation,1,508,,,PerfumeSession
1629131928.41,stimulus,2,18,,,PracticeSession
1629131928.91,fixation,2,18,,,PracticeSession
1629131929.0,stimulus,1,509,,,PerfumeSession
1629131929.5,fixation,1,509,,,PerfumeSession
1629131930.41,stimulus,2,19,,,PracticeSession
1629131930.91,fixation,2,19,,,PracticeSession
1629131931.0,stimulus,1,510,,,PerfumeSession
1629131931.5,fixation,1,510,,,PerfumeSession
1629131932.41,stimulus,2,20,,,PracticeSession
1629131932.91,fixation,2,20,,,PracticeSession
1629131933.0,stimulus,1,511,,,PerfumeSession
1629131933.5,fixation,1,511,,,PerfumeSession
1629131934.41,stimulus,2,21,,,PracticeSession
1629131934.91,fixation,2,21,,,PracticeSession
1629131935.0,stimulus,1,512,,,PerfumeSession
1629131935.5,fixation,1,512,,,PerfumeSession
1629131936.41,stimulus,2,22,,,PracticeSession
1629131936.91,fixation,2,22,,,PracticeSession
1629131937.0,stimulus,1,513,,,PerfumeSession
1629131937.5,fixation,1,513,,,PerfumeSession
1629131938.41,stimulus,2,23,,,PracticeSession
1629131938.91,fixation,2,23,,,PracticeSession
1629131939.0,stimulus,1,514,,,PerfumeSession
1629131939.5,fixation,1,514,,,PerfumeSession
1629131940.41,stimulus,2,24,,,PracticeSession
1629131940.91,fixation,2,24,,,PracticeSession
1629131941.0,stimulus,1,515,,,PerfumeSession
1629131941.5,fixation,1,515,,,PerfumeSession
1629131942.41,stimulus,2,25,,,PracticeSession
1629131942.91,fixation,2,25,,,PracticeSession
1629131943.0,stimulus,1,516,,,PerfumeSession
1629131943.5,fixation,1,516,,,PerfumeSession
1629131944.41,stimulus,2,26,,,PracticeSession
1629131944.91,fixation,2,26,,,PracticeSession
1629131945.0,stimulus,1,517,,,PerfumeSession
1629131945.5,fixation,1,517,,,PerfumeSession
1629131946.41,stimulus,2,27,,,PracticeSession
1629131946.91,fixation,2,27,,,PracticeSession
1629131947.0,stimulus,1,518,,,PerfumeSession
1629131947.5,fixation,1,518,,,PerfumeSession
1629131948.41,stimulus,2,28,,,PracticeSession
1629131948.91,fixation,2,28,,,PracticeSession
1629131949.0,stimulus,1,519,,,PerfumeSession
1629131949.5,fixation,1,519,,,PerfumeSession
1629131950.41,stimulus,2,29,,,PracticeSession
1629131950.91,fixation,2,29,,,PracticeSession
1629131951.0,stimulus,1,520,,,PerfumeSession
1629131951.5,fixation,1,520,,,PerfumeSession
1629131952.41,stimulus,2,30,,,PracticeSession
1629131952.91,fixation,2,30,,,PracticeSession
1629131953.0,stimulus,1,521,,,PerfumeSession
1629131953.5,fixation,1,521,,,PerfumeSession
1629131954.41,stimulus,2,31,,,PracticeSession
1629131954.91,fixation,2,31,,,PracticeSession
1629131955.0,stimulus,1,522,,,PerfumeSession
1629131955.5,fixation,1,522,,,PerfumeSession
1629131956.41,stimulus,2,32,,,PracticeSession
1629131956.91,fixation,2,32,,,PracticeSession
1629131957.0,stimulus,1,523,,,PerfumeSession
1629131957.5,fixation,1,523,,,PerfumeSession
1629131958.41,stimulus,2,33,,,PracticeSession
1629131958.91,fixation,2,33,,,PracticeSession
1629131959.0,stimulus,1,524,,,PerfumeSession
1629131959.5,fixation,1,524,,,PerfumeSession
1629131960.41,stimulus,2,34,,,PracticeSession
1629131960.91,fixation,2,34,,,PracticeSession
1629131961.0,stimulus,1,525,,,PerfumeSession
1629131961.5,fixation,1,525,,,PerfumeSession
1629131962.41,stimulus,2,35,,,PracticeSession
1629131962.91,fixation,2,35,,,PracticeSession
1629131963.0,stimulus,1,526,,,PerfumeSession
1629131963.5,fixation,1,526,,,PerfumeSession
1629131964.41,stimulus,2,36,,,PracticeSession
1629131964.91,fixation,2,36,,,PracticeSession
1629131965.0,stimulus,1,527,,,PerfumeSession
1629131965.5,fixation,1,527,,,PerfumeSession
1629131966.41,stimulus,2,37,,,PracticeSession
1629131966.91,fixation,2,37,,,PracticeSession
1629131967.0,stimulus,1,528,,,PerfumeSession
1629131967.5,fixation,1,528,,,PerfumeSession
1629131968.41,stimulus,2,38,,,PracticeSession
1629131968.91,fixation,2,38,,,PracticeSession
1629131969.0,stimulus,1,529,,,PerfumeSession
1629131969.5,fixation,1,529,,,PerfumeSession
1629131970.41,stimulus,2,39,,,PracticeSession
1629131970.91,fixation,2,39,,,PracticeSession
1629131971.0,stimulus,1,530,,,PerfumeSession
1629131971.5,fixation,1,530,,,PerfumeSession
1629131972.41,stimulus,2,40,,,PracticeSession
1629131972.91,fixation,2,40,,,PracticeSession
1629131973.0,stimulus,1,531,,,PerfumeSession
1629131973.5,fixation,1,531,,,PerfumeSession
1629131974.41,stimulus,2,41,,,PracticeSession
1629131974.91,fixation,2,41,,,PracticeSession
1629131975.0,stimulus,1,532,,,PerfumeSession
1629131975.5,fixation,1,532,,,PerfumeSession
1629131976.41,stimulus,2,42,,,PracticeSession
1629131976.91,fixation,2,42,,,PracticeSession
1629131977.0,stimulus,1,533,,,PerfumeSession
1629131977.5,fixation,1,533,,,PerfumeSession
1629131978.41,stimulus,2,43,,,PracticeSession
1629131978.91,fixation,2,43,,,PracticeSession
1629131979.0,stimulus,1,534,,,PerfumeSession
1629131979.5,fixation,1,534,,,PerfumeSession
1629131980.41,stimulus,2,44,,,PracticeSession
1629131980.91,fixation,2,44,,,PracticeSession
1629131981.0,stimulus,1,535,,,PerfumeSession
1629131981.5,fixation,1,535,,,PerfumeSession
1629131982.41,stimulus,2,45,,,NoAct
1629131982.91,fixation,2,45,,,NoAct
1629131983.0,stimulus,1,536,,,PerfumeSession
1629131983.5,fixation,1,536,,,PerfumeSession
1629131984.41,stimulus,2,46,,,NoAct
1629131984.91,fixation,2,46,,,NoAct
1629131985.0,stimulus,1,537,,,PerfumeSession
1629131985.5,fixation,1,537,,,PerfumeSession
1629131986.41,stimulus,2,47,,,NoAct
1629131986.91,fixation,2,47,,,NoAct
1629131987.0,stimulus,1,538,,,PerfumeSession
1629131987.5,fixation,1,538,,,PerfumeSession
1629131988.41,stimulus,2,48,,,NoAct
1629131988.91,fixation,2,48,,,NoAct
1629131989.0,stimulus,1,539,,,PerfumeSession
1629131989.5,fixation,1,539,,,PerfumeSession
1629131990.41,stimulus,2,49,,,NoAct
1629131990.91,fixation,2,49,,,NoAct
1629131991.0,stimulus,1,540,,,PerfumeSession
1629131991.5,fixation,1,540,,,PerfumeSession
1629131992.41,stimulus,2,50,,,NoAct
1629131992.91,fixation,2,50,,,NoAct
1629131993.0,stimulus,1,541,,,PerfumeSession
1629131993.5,fixation,1,541,,,PerfumeSession
1629131994.41,stimulus,2,51,,,NoAct
1629131994.91,fixation,2,51,,,NoAct
1629131995.0,stimulus,1,542,,,PerfumeSession
1629131995.5,fixation,1,542,,,PerfumeSession
1629131996.41,stimulus,2,52,,,NoAct
1629131996.91,fixation,2,52,,,NoAct
1629131997.0,stimulus,1,543,,,PerfumeSession
1629131997.5,fixation,1,543,,,PerfumeSession
1629131998.41,stimulus,2,53,,,NoAct
1629131998.91,fixation,2,53,,,NoAct
1629131999.0,stimulus,1,544,,,PerfumeSession
1629131999.5,fixation,1,544,,,PerfumeSession
1629132000.41,stimulus,2,54,,,NoAct
1629132000.91,fixation,2,54,,,NoAct
1629132001.0,stimulus,1,545,,,PerfumeSession
1629132001.5,fixation,1,545,,,PerfumeSession
1629132002.41,stimulus,2,55,,,NoAct
1629132002.91,fixation,2,55,,,NoAct
1629132003.0,stimulus,1,546,,,PerfumeSession
1629132003.5,fixation,1,546,,,PerfumeSession
1629132004.41,stimulus,2,56,,,NoAct
1629132004.91,fixation,2,56,,,NoAct
1629132005.0,stimulus,1,547,,,PerfumeSession
1629132005.5,fixation,1,547,,,PerfumeSession
1629132006.41,stimulus,2,57,,,NoAct
1629132006.91,fixation,2,57,,,NoAct
1629132007.0,stimulus,1,548,,,PerfumeSession
1629132007.5,fixation,1,548,,,PerfumeSession
1629132008.41,stimulus,2,58,,,NoAct
1629132008.91,fixation,2,58,,,NoAct
1629132009.0,stimulus,1,549,,,PerfumeSession
1629132009.5,fixation,1,549,,,PerfumeSession
1629132010.41,stimulus,2,59,,,NoAct
1629132010.91,fixation,2,59,,,NoAct
1629132011.0,stimulus,1,550,,,PerfumeSession
1629132011.5,fixation,1,550,,,PerfumeSession
1629132012.41,stimulus,2,60,,,NoAct
1629132012.91,fixation,2,60,,,NoAct
1629132013.0,stimulus,1,551,,,PerfumeSession
1629132013.5,fixation,1,551,,,PerfumeSession
1629132014.41,stimulus,2,61,,,NoAct
1629132014.91,fixation,2,61,,,NoAct
1629132015.0,stimulus,1,552,,,PerfumeSession
1629132015.5,fixation,1,552,,,PerfumeSession
1629132016.41,stimulus,2,62,,,NoAct
1629132016.91,fixation,2,62,,,NoAct
1629132017.0,stimulus,1,553,,,PerfumeSession
1629132017.5,fixation,1,553,,,PerfumeSession
1629132018.41,stimulus,2,63,,,NoAct
1629132018.91,fixation,2,63,,,NoAct
1629132019.0,stimulus,1,554,,,PerfumeSession
1629132019.5,fixation,1,554,,,PerfumeSession
1629132020.41,stimulus,2,64,,,NoAct
1629132020.91,fixation,2,64,,,NoAct
1629132021.0,stimulus,1,555,,,PerfumeSession
1629132021.5,fixation,1,555,,,PerfumeSession
1629132022.41,stimulus,2,65,,,NoAct
1629132022.91,fixation,2,65,,,NoAct
1629132023.0,stimulus,1,556,,,PerfumeSession
1629132023.5,fixation,1,556,,,PerfumeSession
1629132024.41,stimulus,2,66,,,NoAct
1629132024.91,fixation,2,66,,,NoAct
1629132025.0,stimulus,1,557,,,PerfumeSession
1629132025.5,fixation,1,557,,,PerfumeSession
1629132026.41,stimulus,2,67,,,NoAct
1629132026.91,fixation,2,67,,,NoAct
1629132027.0,stimulus,1,558,,,PerfumeSession
1629132027.5,fixation,1,558,,,PerfumeSession
1629132028.41,stimulus,2,68,,,NoAct
1629132028.91,fixation,2,68,,,NoAct
1629132029.0,stimulus,1,559,,,PerfumeSession
1629132029.5,fixation,1,559,,,PerfumeSession
1629132030.41,stimulus,2,69,,,NoAct
1629132030.91,fixation,2,69,,,NoAct
1629132031.0,stimulus,1,560,,,PerfumeSession
1629132031.5,fixation,1,560,,,PerfumeSession
1629132032.41,stimulus,2,70,,,NoAct
1629132032.91,fixation,2,70,,,NoAct
1629132033.0,stimulus,1,561,,,PerfumeSession
1629132033.5,fixation,1,561,,,PerfumeSession
1629132034.41,stimulus,2,71,,,NoAct
1629132034.91,fixation,2,71,,,NoAct
1629132035.0,stimulus,1,562,,,PerfumeSession
1629132035.5,fixation,1,562,,,PerfumeSession
1629132036.41,stimulus,2,72,,,NoAct
1629132036.91,fixation,2,72,,,NoAct
1629132037.0,stimulus,1,563,,,PerfumeSession
1629132037.5,fixation,1,563,,,PerfumeSession
1629132038.41,stimulus,2,73,,,NoAct
1629132038.91,fixation,2,73,,,NoAct
1629132039.0,stimulus,1,564,,,PerfumeSession
1629132039.5,fixation,1,564,,,PerfumeSession
1629132040.41,stimulus,2,74,,,NoAct
1629132040.91,fixation,2,74,,,NoAct
1629132041.0,stimulus,1,565,,,PerfumeSession
1629132041.5,fixation,1,565,,,PerfumeSession
1629132042.41,stimulus,2,75,,,NoAct
1629132042.91,fixation,2,75,,,NoAct
1629132043.0,stimulus,1,566,,,PerfumeSession
1629132043.5,fixation,1,566,,,PerfumeSession
1629132044.41,stimulus,2,76,,,NoAct
1629132044.91,fixation,2,76,,,NoAct
1629132045.0,stimulus,1,567,,,PerfumeSession
1629132045.5,fixation,1,567,,,PerfumeSession
1629132046.41,stimulus,2,77,,,NoAct
1629132046.91,fixation,2,77,,,NoAct
1629132047.0,stimulus,1,568,,,PerfumeSession
1629132047.5,fixation,1,568,,,PerfumeSession
1629132048.41,stimulus,2,78,,,NoAct
1629132048.91,fixation,2,78,,,NoAct
1629132049.0,stimulus,1,569,,,PerfumeSession
1629132049.5,fixation,1,569,,,PerfumeSession
1629132050.41,stimulus,2,79,,,NoAct
1629132050.91,fixation,2,79,,,NoAct
1629132051.0,stimulus,1,570,,,PerfumeSession
1629132051.5,fixation,1,570,,,PerfumeSession
1629132052.41,stimulus,2,80,,,NoAct
1629132052.91,fixation,2,80,,,NoAct
1629132053.0,stimulus,1,571,,,PerfumeSession
1629132053.5,fixation,1,571,,,PerfumeSession
1629132054.41,stimulus,2,81,,,NoAct
1629132054.91,fixation,2,81,,,NoAct
1629132055.0,stimulus,1,572,,,PerfumeSession
1629132055.5,fixation,1,572,,,PerfumeSession
1629132056.41,stimulus,2,82,,,NoAct
1629132056.91,fixation,2,82,,,NoAct
1629132057.0,stimulus,1,573,,,PerfumeSession
1629132057.5,fixation,1,573,,,PerfumeSession
1629132058.41,stimulus,2,83,,,NoAct
1629132058.91,fixation,2,83,,,NoAct
1629132059.0,stimulus,1,574,,,PerfumeSession
1629132059.5,fixation,1,574,,,PerfumeSession
1629132060.41,stimulus,2,84,,,NoAct
1629132060.91,fixation,2,84,,,NoAct
1629132061.0,stimulus,1,575,,,PerfumeSession
1629132061.5,fixation,1,575,,,PerfumeSession
1629132062.41,stimulus,2,85,,,NoAct
1629132062.91,fixation,2,85,,,NoAct
1629132063.0,stimulus,1,576,,,PerfumeSession
1629132063.5,fixation,1,576,,,PerfumeSession
1629132064.41,stimulus,2,86,,,NoAct
1629132064.91,fixation,2,86,,,NoAct
1629132065.0,stimulus,1,577,,,PerfumeSession
1629132065.5,fixation,1,577,,,PerfumeSession
1629132066.41,stimulus,2,87,,,NoAct
1629132066.91,fixation,2,87,,,NoAct
1629132067.0,stimulus,1,578,,,PerfumeSession
1629132067.5,fixation,1,578,,,PerfumeSession
1629132068.41,stimulus,2,88,,,NoAct
1629132068.91,fixation,2,88,,,NoAct
1629132069.0,stimulus,1,579,,,PerfumeSession
1629132069.5,fixation,1,579,,,PerfumeSession
1629132070.41,stimulus,2,89,,,NoAct
1629132070.91,fixation,2,89,,,NoAct
1629132071.0,stimulus,1,580,,,PerfumeSession
1629132071.5,fixation,1,580,,,PerfumeSession
1629132072.41,stimulus,2,90,,,NoAct
1629132072.91,fixation,2,90,,,NoAct
1629132073.0,stimulus,1,581,,,PerfumeSession
1629132073.5,fixation,1,581,,,PerfumeSession
1629132074.41,stimulus,2,91,,,NoAct
1629132074.91,fixation,2,91,,,NoAct
1629132075.0,stimulus,1,582,,,PerfumeSession
1629132075.5,fixation,1,582,,,PerfumeSession
1629132076.41,stimulus,2,92,,,NoAct
1629132076.91,fixation,2,92,,,NoAct
1629132077.0,stimulus,1,583,,,PerfumeSession
1629132077.5,fixation,1,583,,,PerfumeSession
1629132078.41,stimulus,2,93,,,NoAct
1629132078.91,fixation,2,93,,,NoAct
1629132079.0,stimulus,1,584,,,PerfumeSession
1629132079.5,fixation,1,584,,,PerfumeSession
1629132080.41,stimulus,2,94,,,NoAct
1629132080.91,fixation,2,94,,,NoAct
1629132081.0,stimulus,1,585,,,PerfumeSession
1629132081.5,fixation,1,585,,,PerfumeSession
1629132082.41,stimulus,2,95,,,NoAct
1629132082.91,fixation,2,95,,,NoAct
1629132083.0,stimulus,1,586,,,PerfumeSession
1629132083.5,fixation,1,586,,,PerfumeSession
1629132084.41,stimulus,2,96,,,NoAct
1629132084.91,fixation,2,96,,,NoAct
1629132085.0,stimulus,1,587,,,PerfumeSession
1629132085.5,fixation,1,587,,,PerfumeSession
1629132086.41,stimulus,2,97,,,NoAct
1629132086.91,fixation,2,97,,,NoAct
1629132087.0,stimulus,1,588,,,PerfumeSession
1629132087.5,fixation,1,588,,,PerfumeSession
1629132088.41,stimulus,2,98,,,NoAct
1629132088.91,fixation,2,98,,,NoAct
1629132089.0,stimulus,1,589,,,PerfumeSession
1629132089.5,fixation,1,589,,,PerfumeSession
1629132090.41,stimulus,2,99,,,NoAct
1629132090.91,fixation,2,99,,,NoAct
1629132091.0,stimulus,1,590,,,PerfumeSession
1629132091.5,fixation,1,590,,,PerfumeSession
1629132092.41,stimulus,2,100,,,NoAct
1629132092.91,fixation,2,100,,,NoAct
1629132093.0,stimulus,1,591,,,PerfumeSession
1629132093.5,fixation,1,591,,,PerfumeSession
1629132094.41,stimulus,2,101,,,NoAct
1629132094.91,fixation,2,101,,,NoAct
1629132095.0,stimulus,1,592,,,PerfumeSession
1629132095.5,fixation,1,592,,,PerfumeSession
1629132096.41,stimulus,2,102,,,NoAct
1629132096.91,fixation,2,102,,,NoAct
1629132097.0,stimulus,1,593,,,PerfumeSession
1629132097.5,fixation,1,593,,,PerfumeSession
1629132098.41,stimulus,2,103,,,NoAct
1629132098.91,fixation,2,103,,,NoAct
1629132099.0,stimulus,1,594,,,PerfumeSession
1629132099.5,fixation,1,594,,,PerfumeSession
1629132100.41,stimulus,2,104,,,NoAct
1629132100.91,fixation,2,104,,,NoAct
1629132101.0,stimulus,1,595,,,PerfumeSession
1629132101.5,fixation,1,595,,,PerfumeSession
1629132102.41,stimulus,2,105,,,NoAct
1629132102.91,fixation,2,105,,,NoAct
1629132103.0,stimulus,1,596,,,PerfumeSession
1629132103.5,fixation,1,596,,,PerfumeSession
1629132104.41,stimulus,2,106,,,NoAct
1629132104.91,fixation,2,106,,,NoAct
1629132105.0,stimulus,1,597,,,PerfumeSession
1629132105.5,fixation,1,597,,,PerfumeSession
1629132106.41,stimulus,2,107,,,NoAct
1629132106.91,fixation,2,107,,,NoAct
1629132107.0,stimulus,1,598,,,PerfumeSession
1629132107.5,fixation,1,598,,,PerfumeSession
1629132108.41,stimulus,2,108,,,NoAct
1629132108.91,fixation,2,108,,,NoAct
1629132109.0,stimulus,1,599,,,PerfumeSession
1629132109.5,fixation,1,599,,,PerfumeSession
1629132110.41,stimulus,2,109,,,NoAct
1629132110.91,fixation,2,109,,,NoAct
1629132111.0,stimulus,1,600,,,PerfumeSession
1629132111.5,fixation,1,600,,,PerfumeSession
1629132112.41,stimulus,2,110,,,NoAct
1629132112.91,fixation,2,110,,,NoAct
1629132113.0,stimulus,1,601,,,PerfumeSession
1629132113.5,fixation,1,601,,,PerfumeSession
1629132114.41,stimulus,2,111,,,NoAct
1629132114.91,fixation,2,111,,,NoAct
1629132115.0,stimulus,1,602,,,PerfumeSession
1629132115.5,fixation,1,602,,,PerfumeSession
1629132116.41,stimulus,2,112,,,NoAct
1629132116.91,fixation,2,112,,,NoAct
1629132117.0,stimulus,1,603,,,PerfumeSession
1629132117.5,fixation,1,603,,,PerfumeSession
1629132118.41,stimulus,2,113,,,NoAct
1629132118.91,fixation,2,113,,,NoAct
1629132119.0,stimulus,1,604,,,PerfumeSession
1629132119.5,fixation,1,604,,,PerfumeSession
1629132120.41,stimulus,2,114,,,NoAct
1629132120.91,fixation,2,114,,,NoAct
1629132121.0,stimulus,1,605,,,PerfumeSession
1629132121.5,fixation,1,605,,,PerfumeSession
1629132122.41,stimulus,2,115,,,NoAct
1629132122.91,fixation,2,115,,,NoAct
1629132123.0,stimulus,1,606,,,PerfumeSession
1629132123.5,fixation,1,606,,,PerfumeSession
1629132124.41,stimulus,2,116,,,NoAct
1629132124.91,fixation,2,116,,,NoAct
1629132125.0,stimulus,1,607,,,PerfumeSession
1629132125.5,fixation,1,607,,,PerfumeSession
1629132126.41,stimulus,2,117,,,NoAct
1629132126.91,fixation,2,117,,,NoAct
1629132127.0,stimulus,1,608,,,PerfumeSession
1629132127.5,fixation,1,608,,,PerfumeSession
1629132128.41,stimulus,2,118,,,NoAct
1629132128.91,fixation,2,118,,,NoAct
1629132129.0,stimulus,1,609,,,PerfumeSession
1629132129.5,fixation,1,609,,,PerfumeSession
1629132130.41,stimulus,2,119,,,NoAct
1629132130.91,fixation,2,119,,,NoAct
1629132131.0,stimulus,1,610,,,PerfumeSession
1629132131.5,fixation,1,610,,,PerfumeSession
1629132132.41,stimulus,2,120,,,NoAct
1629132132.91,fixation,2,120,,,NoAct
1629132133.0,stimulus,1,611,,,PerfumeSession
1629132133.5,fixation,1,611,,,PerfumeSession
1629132134.41,stimulus,2,121,,,NoAct
1629132134.91,fixation,2,121,,,NoAct
1629132135.0,stimulus,1,612,,,PerfumeSession
1629132135.5,fixation,1,612,,,PerfumeSession
1629132136.41,stimulus,2,122,,,NoAct
1629132136.91,fixation,2,122,,,NoAct
1629132137.0,stimulus,1,613,,,PerfumeSession
1629132137.5,fixation,1,613,,,PerfumeSession
1629132138.41,stimulus,2,123,,,NoAct
1629132138.91,fixation,2,123,,,NoAct
1629132139.0,stimulus,1,614,,,PerfumeSession
1629132139.5,fixation,1,614,,,PerfumeSession
1629132140.41,stimulus,2,124,,,NoAct
1629132140.91,fixation,2,124,,,NoAct
1629132141.0,stimulus,1,615,,,PerfumeSession
1629132141.5,fixation,1,615,,,PerfumeSession
1629132142.41,stimulus,2,125,,,NoAct
1629132142.91,fixation,2,125,,,NoAct
1629132143.0,stimulus,1,616,,,PerfumeSession
1629132143.5,fixation,1,616,,,PerfumeSession
1629132144.41,stimulus,2,126,,,NoAct
1629132144.91,fixation,2,126,,,NoAct
1629132145.0,stimulus,1,617,,,PerfumeSession
1629132145.5,fixation,1,617,,,PerfumeSession
1629132146.41,stimulus,2,127,,,NoAct
1629132146.91,fixation,2,127,,,NoAct
1629132147.0,stimulus,1,618,,,PerfumeSession
1629132147.5,fixation,1,618,,,PerfumeSession
1629132148.41,stimulus,2,128,,,NoAct
1629132148.91,fixation,2,128,,,NoAct
1629132149.0,stimulus,1,619,,,PerfumeSession
1629132149.5,fixation,1,619,,,PerfumeSession
1629132150.41,stimulus,2,129,,,NoAct
1629132150.91,fixation,2,129,,,NoAct
1629132151.0,stimulus,1,620,,,PerfumeSession
1629132151.5,fixation,1,620,,,PerfumeSession
1629132152.41,stimulus,2,130,,,NoAct
1629132152.91,fixation,2,130,,,NoAct
1629132153.0,stimulus,1,621,,,PerfumeSession
1629132153.5,fixation,1,621,,,PerfumeSession
1629132154.41,stimulus,2,131,,,NoAct
1629132154.91,fixation,2,131,,,NoAct
1629132155.0,stimulus,1,622,,,PerfumeSession
1629132155.5,fixation,1,622,,,PerfumeSession
1629132156.41,stimulus,2,132,,,NoAct
1629132156.91,fixation,2,132,,,NoAct
1629132157.0,stimulus,1,623,,,PerfumeSession
1629132157.5,fixation,1,623,,,PerfumeSession
1629132158.41,stimulus,2,133,,,NoAct
1629132158.91,fixation,2,133,,,NoAct
1629132159.0,stimulus,1,624,,,PerfumeSession
1629132159.5,fixation,1,624,,,PerfumeSession
1629132160.41,stimulus,2,134,,,NoAct
1629132160.91,fixation,2,134,,,NoAct
1629132161.0,stimulus,1,625,,,PerfumeSession
1629132161.5,fixation,1,625,,,PerfumeSession
1629132162.41,stimulus,2,135,,,NoAct
1629132162.91,fixation,2,135,,,NoAct
1629132163.0,stimulus,1,626,,,PerfumeSession
1629132163.5,fixation,1,626,,,PerfumeSession
1629132164.41,stimulus,2,136,,,NoAct
1629132164.91,fixation,2,136,,,NoAct
1629132165.0,stimulus,1,627,,,PerfumeSession
1629132165.5,fixation,1,627,,,PerfumeSession
1629132166.41,stimulus,2,137,,,NoAct
1629132166.91,fixation,2,137,,,NoAct
1629132167.0,stimulus,1,628,,,PerfumeSession
1629132167.5,fixation,1,628,,,PerfumeSession
1629132168.41,stimulus,2,138,,,NoAct
1629132168.91,fixation,2,138,,,NoAct
1629132169.0,stimulus,1,629,,,PerfumeSession
1629132169.5,fixation,1,629,,,PerfumeSession
1629132170.41,stimulus,2,139,,,NoAct
1629132170.91,fixation,2,139,,,NoAct
1629132171.0,stimulus,1,630,,,PerfumeSession
1629132171.5,fixation,1,630,,,PerfumeSession
1629132172.41,stimulus,2,140,,,NoAct
1629132172.91,fixation,2,140,,,NoAct
1629132173.0,stimulus,1,631,,,PerfumeSession
1629132173.5,fixation,1,631,,,PerfumeSession
1629132174.41,stimulus,2,141,,,NoAct
1629132174.91,fixation,2,141,,,NoAct
1629132175.0,stimulus,1,632,,,PerfumeSession
1629132175.5,fixation,1,632,,,PerfumeSession
1629132176.41,stimulus,2,142,,,NoAct
1629132176.91,fixation,2,142,,,NoAct
1629132177.0,stimulus,1,633,,,PerfumeSession
1629132177.5,fixation,1,633,,,PerfumeSession
1629132178.41,stimulus,2,143,,,NoAct
1629132178.91,fixation,2,143,,,NoAct
1629132179.0,stimulus,1,634,,,PerfumeSession
1629132179.5,fixation,1,634,,,PerfumeSession
1629132180.41,stimulus,2,144,,,NoAct
1629132180.91,fixation,2,144,,,NoAct
1629132181.0,stimulus,1,635,,,PerfumeSession
1629132181.5,fixation,1,635,,,PerfumeSession
1629132182.41,stimulus,2,145,,,NoAct
1629132182.91,fixation,2,145,,,NoAct
1629132183.0,stimulus,1,636,,,PerfumeSession
1629132183.5,fixation,1,636,,,PerfumeSession
1629132184.41,stimulus,2,146,,,NoAct
1629132184.91,fixation,2,146,,,NoAct
1629132185.0,stimulus,1,637,,,PerfumeSession
1629132185.5,fixation,1,637,,,PerfumeSession
1629132186.41,stimulus,2,147,,,NoAct
1629132186.91,fixation,2,147,,,NoAct
1629132187.0,stimulus,1,638,,,PerfumeSession
1629132187.5,fixation,1,638,,,PerfumeSession
1629132188.41,stimulus,2,148,,,NoAct
1629132188.91,fixation,2,148,,,NoAct
1629132189.0,stimulus,1,639,,,PerfumeSession
1629132189.5,fixation,1,639,,,PerfumeSession
1629132190.41,stimulus,2,149,,,NoAct
1629132190.91,fixation,2,149,,,NoAct
1629132191.0,stimulus,1,640,,,PerfumeSession
1629132191.5,fixation,1,640,,,PerfumeSession
1629132192.41,stimulus,2,150,,,NoAct
1629132192.91,fixation,2,150,,,NoAct
1629132193.0,stimulus,1,641,,,PerfumeSession
1629132193.5,fixation,1,641,,,PerfumeSession
1629132194.41,stimulus,2,151,,,NoAct
1629132194.91,fixation,2,151,,,NoAct
1629132195.0,stimulus,1,642,,,PerfumeSession
1629132195.5,fixation,1,642,,,PerfumeSession
1629132196.41,stimulus,2,152,,,NoAct
1629132196.91,fixation,2,152,,,NoAct
1629132197.0,stimulus,1,643,,,PerfumeSession
1629132197.5,fixation,1,643,,,PerfumeSession
1629132198.41,stimulus,2,153,,,NoAct
1629132198.91,fixation,2,153,,,NoAct
1629132199.0,stimulus,1,644,,,PerfumeSession
1629132199.5,fixation,1,644,,,PerfumeSession
1629132200.41,stimulus,2,154,,,NoAct
1629132200.91,fixation,2,154,,,NoAct
1629132201.0,stimulus,1,645,,,PerfumeSession
1629132201.5,fixation,1,645,,,PerfumeSession
1629132202.41,stimulus,2,155,,,NoAct
1629132202.91,fixation,2,155,,,NoAct
1629132203.0,stimulus,1,646,,,PerfumeSession
1629132203.5,fixation,1,646,,,PerfumeSession
1629132204.41,stimulus,2,156,,,NoAct
1629132204.91,fixation,2,156,,,NoAct
1629132205.0,stimulus,1,647,,,PerfumeSession
1629132205.5,fixation,1,647,,,PerfumeSession
1629132206.41,stimulus,2,157,,,NoAct
1629132206.91,fixation,2,157,,,NoAct
1629132207.0,stimulus,1,648,,,PerfumeSession
1629132207.5,fixation,1,648,,,PerfumeSession
1629132208.41,stimulus,2,158,,,NoAct
1629132208.91,fixation,2,158,,,NoAct
1629132209.0,stimulus,1,649,,,PerfumeSession
1629132209.5,fixation,1,649,,,PerfumeSession
1629132210.41,stimulus,2,159,,,NoAct
1629132210.91,fixation,2,159,,,NoAct
1629132211.0,stimulus,1,650,,,PerfumeSession
1629132211.5,fixation,1,650,,,PerfumeSession
1629132212.41,stimulus,2,160,,,NoAct
1629132212.91,fixation,2,160,,,NoAct
1629132213.0,stimulus,1,651,,,PerfumeSession
1629132213.5,fixation,1,651,,,PerfumeSession
1629132214.41,stimulus,2,161,,,NoAct
1629132214.91,fixation,2,161,,,NoAct
1629132215.0,stimulus,1,652,,,PerfumeSession
1629132215.5,fixation,1,652,,,PerfumeSession
1629132216.41,stimulus,2,162,,,NoAct
1629132216.91,fixation,2,162,,,NoAct
1629132217.0,stimulus,1,653,,,PerfumeSession
1629132217.5,fixation,1,653,,,PerfumeSession
1629132218.41,stimulus,2,163,,,NoAct
1629132218.91,fixation,2,163,,,NoAct
1629132219.0,stimulus,1,654,,,PerfumeSession
1629132219.5,fixation,1,654,,,PerfumeSession
1629132220.41,stimulus,2,164,,,NoAct
1629132220.91,fixation,2,164,,,NoAct
1629132221.0,stimulus,1,655,,,PerfumeSession
1629132221.5,fixation,1,655,,,PerfumeSession
1629132222.41,stimulus,2,165,,,NoAct
1629132222.91,fixation,2,165,,,NoAct
1629132223.0,stimulus,1,656,,,PerfumeSession
1629132223.5,fixation,1,656,,,PerfumeSession
1629132224.41,stimulus,2,166,,,NoAct
1629132224.91,fixation,2,166,,,NoAct
1629132225.0,stimulus,1,657,,,PerfumeSession
1629132225.5,fixation,1,657,,,PerfumeSession
1629132226.41,stimulus,2,167,,,NoAct
1629132226.91,fixation,2,167,,,NoAct
1629132227.0,stimulus,1,658,,,PerfumeSession
1629132227.5,fixation,1,658,,,PerfumeSession
1629132228.41,stimulus,2,168,,,NoAct
1629132228.91,fixation,2,168,,,NoAct
1629132229.0,stimulus,1,659,,,PerfumeSession
1629132229.5,fixation,1,659,,,PerfumeSession
1629132230.41,stimulus,2,169,,,NoAct
1629132230.91,fixation,2,169,,,NoAct
1629132231.0,stimulus,1,660,,,PerfumeSession
1629132231.5,fixation,1,660,,,PerfumeSession
1629132232.41,stimulus,2,170,,,NoAct
1629132232.91,fixation,2,170,,,NoAct
1629132233.0,stimulus,1,661,,,PerfumeSession
1629132233.5,fixation,1,661,,,PerfumeSession
1629132234.41,stimulus,2,171,,,NoAct
1629132234.91,fixation,2,171,,,NoAct
1629132235.0,stimulus,1,662,,,PerfumeSession
1629132235.5,fixation,1,662,,,PerfumeSession
1629132236.41,stimulus,2,172,,,NoAct
1629132236.91,fixation,2,172,,,NoAct
1629132237.0,stimulus,1,663,,,PerfumeSession
1629132237.5,fixation,1,663,,,PerfumeSession
1629132238.41,stimulus,2,173,,,NoAct
1629132238.91,fixation,2,173,,,NoAct
1629132239.0,stimulus,1,664,,,PerfumeSession
1629132239.5,fixation,1,664,,,PerfumeSession
1629132240.41,stimulus,2,174,,,NoAct
1629132240.91,fixation,2,174,,,NoAct
1629132241.0,stimulus,1,665,,,PerfumeSession
1629132241.5,fixation,1,665,,,PerfumeSession
1629132242.41,stimulus,2,175,,,NoAct
1629132242.91,fixation,2,175,,,NoAct
1629132243.0,stimulus,1,666,,,PerfumeSession
1629132243.5,fixation,1,666,,,PerfumeSession
1629132244.41,stimulus,2,176,,,NoAct
1629132244.91,fixation,2,176,,,NoAct
1629132245.0,stimulus,1,667,,,PerfumeSession
1629132245.5,fixation,1,667,,,PerfumeSession
1629132246.41,stimulus,2,177,,,NoAct
1629132246.91,fixation,2,177,,,NoAct
1629132247.0,stimulus,1,668,,,PerfumeSession
1629132247.5,fixation,1,668,,,PerfumeSession
1629132248.41,stimulus,2,178,,,NoAct
1629132248.91,fixation,2,178,,,NoAct
1629132249.0,stimulus,1,669,,,PerfumeSession
1629132249.5,fixation,1,669,,,PerfumeSession
1629132250.41,stimulus,2,179,,,NoAct
1629132250.91,fixation,2,179,,,NoAct
1629132251.0,stimulus,1,670,,,PerfumeSession
1629132251.5,fixation,1,670,,,PerfumeSession
1629132252.41,stimulus,2,180,,,NoAct
1629132252.91,fixation,2,180,,,NoAct
1629132253.0,stimulus,1,671,,,PerfumeSession
1629132253.5,fixation,1,671,,,PerfumeSession
1629132254.41,stimulus,2,181,,,NoAct
1629132254.91,fixation,2,181,,,NoAct
1629132255.0,stimulus,1,672,,,PerfumeSession
1629132255.5,fixation,1,672,,,PerfumeSession
1629132256.41,stimulus,2,182,,,NoAct
1629132256.91,fixation,2,182,,,NoAct
1629132257.0,stimulus,1,673,,,PerfumeSession
1629132257.5,fixation,1,673,,,PerfumeSession
1629132258.17,stimulus,3,1,,,PracticeSession
1629132258.41,stimulus,2,183,,,NoAct
1629132258.67,fixation,3,1,,,PracticeSession
1629132258.91,fixation,2,183,,,NoAct
1629132259.0,stimulus,1,674,,,PerfumeSession
1629132259.5,fixation,1,674,,,PerfumeSession
1629132260.17,stimulus,3,2,,,PracticeSession
1629132260.41,stimulus,2,184,,,NoAct
1629132260.67,fixation,3,2,,,PracticeSession
1629132260.91,fixation,2,184,,,NoAct
1629132261.0,stimulus,1,675,,,PerfumeSession
1629132261.5,fixation,1,675,,,PerfumeSession
1629132262.17,stimulus,3,3,,,PracticeSession
1629132262.41,stimulus,2,185,,,NoAct
1629132262.67,fixation,3,3,,,PracticeSession
1629132262.91,fixation,2,185,,,NoAct
1629132263.0,stimulus,1,676,,,PerfumeSession
1629132263.5,fixation,1,676,,,PerfumeSession
1629132264.17,stimulus,3,4,,,PracticeSession
1629132264.41,stimulus,2,186,,,NoAct
1629132264.67,fixation,3,4,,,PracticeSession
1629132264.91,fixation,2,186,,,NoAct
1629132265.0,stimulus,1,677,,,PerfumeSession
1629132265.5,fixation,1,677,,,PerfumeSession
1629132266.17,stimulus,3,5,,,PracticeSession
1629132266.41,stimulus,2,187,,,NoAct
1629132266.67,fixation,3,5,,,PracticeSession
1629132266.91,fixation,2,187,,,NoAct
1629132267.0,stimulus,1,678,,,PerfumeSession
1629132267.5,fixation,1,678,,,PerfumeSession
1629132268.17,stimulus,3,6,,,PracticeSession
1629132268.41,stimulus,2,188,,,NoAct
1629132268.67,fixation,3,6,,,PracticeSession
1629132268.91,fixation,2,188,,,NoAct
1629132269.0,stimulus,1,679,,,PerfumeSession
1629132269.5,fixation,1,679,,,PerfumeSession
1629132270.17,stimulus,3,7,,,PracticeSession
1629132270.41,stimulus,2,189,,,NoAct
1629132270.67,fixation,3,7,,,PracticeSession
1629132270.91,fixation,2,189,,,NoAct
1629132271.0,stimulus,1,680,,,PerfumeSession
1629132271.5,fixation,1,680,,,PerfumeSession
1629132272.17,stimulus,3,8,,,PracticeSession
1629132272.41,stimulus,2,190,,,NoAct
1629132272.67,fixation,3,8,,,PracticeSession
1629132272.91,fixation,2,190,,,NoAct
1629132273.0,stimulus,1,681,,,PerfumeSession
1629132273.5,fixation,1,681,,,PerfumeSession
1629132274.17,stimulus,3,9,,,PracticeSession
1629132274.41,stimulus,2,191,,,NoAct
1629132274.67,fixation,3,9,,,PracticeSession
1629132274.91,fixation,2,191,,,NoAct
1629132275.0,stimulus,1,682,,,PerfumeSession
1629132275.5,fixation,1,682,,,PerfumeSession
1629132276.17,stimulus,3,10,,,PracticeSession
1629132276.41,stimulus,2,192,,,NoAct
1629132276.67,fixation,3,10,,,PracticeSession
1629132276.91,fixation,2,192,,,NoAct
1629132277.0,stimulus,1,683,,,PerfumeSession
1629132277.5,fixation,1,683,,,PerfumeSession
1629132278.17,stimulus,3,11,,,PracticeSession
1629132278.41,stimulus,2,193,,,NoAct
1629132278.67,fixation,3,11,,,PracticeSession
1629132278.91,fixation,2,193,,,NoAct
1629132279.0,stimulus,1,684,,,PerfumeSession
1629132279.5,fixation,1,684,,,PerfumeSession
1629132280.17,stimulus,3,12,,,PracticeSession
1629132280.41,stimulus,2,194,,,NoAct
1629132280.67,fixation,3,12,,,PracticeSession
1629132280.91,fixation,2,194,,,NoAct
1629132281.0,stimulus,1,685,,,PerfumeSession
1629132281.5,fixation,1,685,,,PerfumeSession
1629132282.17,stimulus,3,13,,,PracticeSession
1629132282.41,stimulus,2,195,,,NoAct
1629132282.67,fixation,3,13,,,PracticeSession
1629132282.91,fixation,2,195,,,NoAct
1629132283.0,stimulus,1,686,,,PerfumeSession
1629132283.5,fixation,1,686,,,PerfumeSession
1629132284.17,stimulus,3,14,,,PracticeSession
1629132284.41,stimulus,2,196,,,NoAct
1629132284.67,fixation,3,14,,,PracticeSession
1629132284.91,fixation,2,196,,,NoAct
1629132285.0,stimulus,1,687,,,PerfumeSession
1629132285.5,fixation,1,687,,,PerfumeSession
1629132286.17,stimulus,3,15,,,PracticeSession
1629132286.41,stimulus,2,197,,,NoAct
1629132286.67,fixation,3,15,,,PracticeSession
1629132286.91,fixation,2,197,,,NoAct
1629132287.0,stimulus,1,688,,,PerfumeSession
1629132287.5,fixation,1,688,,,PerfumeSession
1629132288.17,stimulus,3,16,,,PracticeSession
1629132288.41,stimulus,2,198,,,NoAct
1629132288.67,fixation,3,16,,,PracticeSession
1629132288.91,fixation,2,198,,,NoAct
1629132289.0,stimulus,1,689,,,PerfumeSession
1629132289.5,fixation,1,689,,,PerfumeSession
1629132290.17,stimulus,3,17,,,PracticeSession
1629132290.41,stimulus,2,199,,,NoAct
1629132290.67,fixation,3,17,,,PracticeSession
1629132290.91,fixation,2,199,,,NoAct
1629132291.0,stimulus,1,690,,,PerfumeSession
1629132291.5,fixation,1,690,,,PerfumeSession
1629132292.17,stimulus,3,18,,,PracticeSession
1629132292.41,stimulus,2,200,,,NoAct
1629132292.67,fixation,3,18,,,PracticeSession
1629132292.91,fixation,2,200,,,NoAct
1629132293.0,stimulus,1,691,,,PerfumeSession
1629132293.5,fixation,1,691,,,PerfumeSession
1629132294.17,stimulus,3,19,,,PracticeSession
1629132294.41,stimulus,2,201,,,NoAct
1629132294.67,fixation,3,19,,,PracticeSession
1629132294.91,fixation,2,201,,,NoAct
1629132295.0,stimulus,1,692,,,PerfumeSession
1629132295.5,fixation,1,692,,,PerfumeSession
1629132296.17,stimulus,3,20,,,PracticeSession
1629132296.41,stimulus,2,202,,,NoAct
1629132296.67,fixation,3,20,,,PracticeSession
1629132296.91,fixation,2,202,,,NoAct
1629132297.0,stimulus,1,693,,,PerfumeSession
1629132297.5,fixation,1,693,,,PerfumeSession
1629132298.17,stimulus,3,21,,,PracticeSession
1629132298.41,stimulus,2,203,,,NoAct
1629132298.67,fixation,3,21,,,PracticeSession
1629132298.91,fixation,2,203,,,NoAct
1629132299.0,stimulus,1,694,,,PerfumeSession
1629132299.5,fixation,1,694,,,PerfumeSession
1629132300.17,stimulus,3,22,,,PracticeSession
1629132300.41,stimulus,2,204,,,NoAct
1629132300.67,fixation,3,22,,,PracticeSession
1629132300.91,fixation,2,204,,,NoAct
1629132301.0,stimulus,1,695,,,PerfumeSession
1629132301.5,fixation,1,695,,,PerfumeSession
1629132302.17,stimulus,3,23,,,PracticeSession
1629132302.41,stimulus,2,205,,,NoAct
1629132302.67,fixation,3,23,,,PracticeSession
1629132302.91,fixation,2,205,,,NoAct
1629132303.0,stimulus,1,696,,,PerfumeSession
1629132303.5,fixation,1,696,,,PerfumeSession
1629132304.17,stimulus,3,24,,,PracticeSession
1629132304.41,stimulus,2,206,,,NoAct
1629132304.67,fixation,3,24,,,PracticeSession
1629132304.91,fixation,2,206,,,NoAct
1629132305.0,stimulus,1,697,,,PerfumeSession
1629132305.5,fixation,1,697,,,PerfumeSession
1629132306.17,stimulus,3,25,,,PracticeSession
1629132306.41,stimulus,2,207,,,NoAct
1629132306.67,fixation,3,25,,,PracticeSession
1629132306.91,fixation,2,207,,,NoAct
1629132307.0,stimulus,1,698,,,PerfumeSession
1629132307.5,fixation,1,698,,,PerfumeSession
1629132308.17,stimulus,3,26,,,PracticeSession
1629132308.41,stimulus,2,208,,,NoAct
1629132308.67,fixation,3,26,,,PracticeSession
1629132308.91,fixation,2,208,,,NoAct
1629132309.0,stimulus,1,699,,,PerfumeSession
1629132309.5,fixation,1,699,,,PerfumeSession
1629132310.17,stimulus,3,27,,,PracticeSession
1629132310.41,stimulus,2,209,,,NoAct
1629132310.67,fixation,3,27,,,PracticeSession
1629132310.91,fixation,2,209,,,NoAct
1629132311.0,stimulus,1,700,,,PerfumeSession
1629132311.5,fixation,1,700,,,PerfumeSession
1629132312.17,stimulus,3,28,,,PracticeSession
1629132312.41,stimulus,2,210,,,NoAct
1629132312.67,fixation,3,28,,,PracticeSession
1629132312.91,fixation,2,210,,,NoAct
1629132313.0,stimulus,1,701,,,PerfumeSession
1629132313.5,fixation,1,701,,,PerfumeSession
1629132314.17,stimulus,3,29,,,PracticeSession
1629132314.41,stimulus,2,211,,,NoAct
1629132314.67,fixation,3,29,,,PracticeSession
1629132314.91,fixation,2,211,,,NoAct
1629132315.0,stimulus,1,702,,,PerfumeSession
1629132315.5,fixation,1,702,,,PerfumeSession
1629132316.17,stimulus,3,30,,,PracticeSession
1629132316.41,stimulus,2,212,,,NoAct
1629132316.67,fixation,3,30,,,PracticeSession
1629132316.91,fixation,2,212,,,NoAct
1629132317.0,stimulus,1,703,,,PerfumeSession
1629132317.5,fixation,1,703,,,PerfumeSession
1629132318.17,stimulus,3,31,,,PracticeSession
1629132318.41,stimulus,2,213,,,NoAct
1629132318.67,fixation,3,31,,,PracticeSession
1629132318.91,fixation,2,213,,,NoAct
1629132319.0,stimulus,1,704,,,PerfumeSession
1629132319.5,fixation,1,704,,,PerfumeSession
1629132320.17,stimulus,3,32,,,PracticeSession
1629132320.41,stimulus,2,214,,,NoAct
1629132320.67,fixation,3,32,,,PracticeSession
1629132320.91,fixation,2,214,,,NoAct
1629132321.0,stimulus,1,705,,,PerfumeSession
1629132321.5,fixation,1,705,,,PerfumeSession
1629132322.17,stimulus,3,33,,,PracticeSession
1629132322.41,stimulus,2,215,,,NoAct
1629132322.67,fixation,3,33,,,PracticeSession
1629132322.91,fixation,2,215,,,NoAct
1629132323.0,stimulus,1,706,,,PerfumeSession
1629132323.5,fixation,1,706,,,PerfumeSession
1629132324.17,stimulus,3,34,,,PracticeSession
1629132324.41,stimulus,2,216,,,NoAct
1629132324.67,fixation,3,34,,,PracticeSession
1629132324.91,fixation,2,216,,,NoAct
1629132325.0,stimulus,1,707,,,PerfumeSession
1629132325.5,fixation,1,707,,,PerfumeSession
1629132326.17,stimulus,3,35,,,PracticeSession
1629132326.41,stimulus,2,217,,,NoAct
1629132326.67,fixation,3,35,,,PracticeSession
1629132326.91,fixation,2,217,,,NoAct
1629132327.0,stimulus,1,708,,,PerfumeSession
1629132327.5,fixation,1,708,,,PerfumeSession
1629132328.17,stimulus,3,36,,,PracticeSession
1629132328.41,stimulus,2,218,,,NoAct
1629132328.67,fixation,3,36,,,PracticeSession
1629132328.91,fixation,2,218,,,NoAct
1629132329.0,stimulus,1,709,,,PerfumeSession
1629132329.5,fixation,1,709,,,PerfumeSession
1629132330.17,stimulus,3,37,,,PracticeSession
1629132330.41,stimulus,2,219,,,NoAct
1629132330.67,fixation,3,37,,,PracticeSession
1629132330.91,fixation,2,219,,,NoAct
1629132331.0,stimulus,1,710,,,PerfumeSession
1629132331.5,fixation,1,710,,,PerfumeSession
1629132332.17,stimulus,3,38,,,PracticeSession
1629132332.41,stimulus,2,220,,,NoAct
1629132332.67,fixation,3,38,,,PracticeSession
1629132332.91,fixation,2,220,,,NoAct
1629132333.0,stimulus,1,711,,,PerfumeSession
1629132333.5,fixation,1,711,,,PerfumeSession
1629132334.17,stimulus,3,39,,,PracticeSession
1629132334.41,stimulus,2,221,,,NoAct
1629132334.67,fixation,3,39,,,PracticeSession
1629132334.91,fixation,2,221,,,NoAct
1629132335.0,stimulus,1,712,,,PerfumeSession
1629132335.5,fixation,1,712,,,PerfumeSession
1629132336.17,stimulus,3,40,,,PracticeSession
1629132336.41,stimulus,2,222,,,NoAct
1629132336.67,fixation,3,40,,,PracticeSession
1629132336.91,fixation,2,222,,,NoAct
1629132337.0,stimulus,1,713,,,PerfumeSession
1629132337.5,fixation,1,713,,,PerfumeSession
1629132338.17,stimulus,3,41,,,PracticeSession
1629132338.41,stimulus,2,223,,,NoAct
1629132338.67,fixation,3,41,,,PracticeSession
1629132338.91,fixation,2,223,,,NoAct
1629132339.0,stimulus,1,714,,,PerfumeSession
1629132339.5,fixation,1,714,,,PerfumeSession
1629132340.17,stimulus,3,42,,,PracticeSession
1629132340.41,stimulus,2,224,,,NoAct
1629132340.67,fixation,3,42,,,PracticeSession
1629132340.91,fixation,2,224,,,NoAct
1629132341.0,stimulus,1,715,,,PerfumeSession
1629132341.5,fixation,1,715,,,PerfumeSession
1629132342.17,stimulus,3,43,,,PracticeSession
1629132342.41,stimulus,2,225,,,NoAct
1629132342.67,fixation,3,43,,,PracticeSession
1629132342.91,fixation,2,225,,,NoAct
1629132343.0,stimulus,1,716,,,PerfumeSession
1629132343.5,fixation,1,716,,,PerfumeSession
1629132344.17,stimulus,3,44,,,PracticeSession
1629132344.41,stimulus,2,226,,,NoAct
1629132344.67,fixation,3,44,,,PracticeSession
1629132344.91,fixation,2,226,,,NoAct
1629132345.0,stimulus,1,717,,,PerfumeSession
1629132345.5,fixation,1,717,,,PerfumeSession
1629132346.17,stimulus,3,45,,,NoAct
1629132346.41,stimulus,2,227,,,NoAct
1629132346.67,fixation,3,45,,,NoAct
1629132346.91,fixation,2,227,,,NoAct
1629132347.0,stimulus,1,718,,,PerfumeSession
1629132347.5,fixation,1,718,,,PerfumeSession
1629132348.17,stimulus,3,46,,,NoAct
1629132348.41,stimulus,2,228,,,NoAct
1629132348.67,fixation,3,46,,,NoAct
1629132348.91,fixation,2,228,,,NoAct
1629132349.0,stimulus,1,719,,,PerfumeSession
1629132349.5,fixation,1,719,,,PerfumeSession
1629132350.17,stimulus,3,47,,,NoAct
1629132350.41,stimulus,2,229,,,NoAct
1629132350.67,fixation,3,47,,,NoAct
1629132350.91,fixation,2,229,,,NoAct
1629132351.0,stimulus,1,720,,,PerfumeSession
1629132351.5,fixation,1,720,,,PerfumeSession
1629132352.17,stimulus,3,48,,,NoAct
1629132352.41,stimulus,2,230,,,NoAct
1629132352.67,fixation,3,48,,,NoAct
1629132352.91,fixation,2,230,,,NoAct
1629132353.0,stimulus,1,721,,,PerfumeSession
1629132353.5,fixation,1,721,,,PerfumeSession
1629132354.17,stimulus,3,49,,,NoAct
1629132354.41,stimulus,2,231,,,NoAct
1629132354.67,fixation,3,49,,,NoAct
1629132354.91,fixation,2,231,,,NoAct
1629132355.0,stimulus,1,722,,,PerfumeSession
1629132355.5,fixation,1,722,,,PerfumeSession
1629132356.17,stimulus,3,50,,,NoAct
1629132356.41,stimulus,2,232,,,NoAct
1629132356.67,fixation,3,50,,,NoAct
1629132356.91,fixation,2,232,,,NoAct
1629132357.0,stimulus,1,723,,,PerfumeSession
1629132357.5,fixation,1,723,,,PerfumeSession
1629132358.17,stimulus,3,51,,,NoAct
1629132358.41,stimulus,2,233,,,NoAct
1629132358.67,fixation,3,51,,,NoAct
1629132358.91,fixation,2,233,,,NoAct
1629132359.0,stimulus,1,724,,,PerfumeSession
1629132359.5,fixation,1,724,,,PerfumeSession
1629132360.17,stimulus,3,52,,,NoAct
1629132360.41,stimulus,2,234,,,NoAct
1629132360.67,fixation,3,52,,,NoAct
1629132360.91,fixation,2,234,,,NoAct
1629132361.0,stimulus,1,725,,,PerfumeSession
1629132361.5,fixation,1,725,,,PerfumeSession
1629132362.17,stimulus,3,53,,,NoAct
1629132362.41,stimulus,2,235,,,NoAct
1629132362.67,fixation,3,53,,,NoAct
1629132362.91,fixation,2,235,,,NoAct
1629132363.0,stimulus,1,726,,,PerfumeSession
1629132363.5,fixation,1,726,,,PerfumeSession
1629132364.17,stimulus,3,54,,,NoAct
1629132364.41,stimulus,2,236,,,NoAct
1629132364.67,fixation,3,54,,,NoAct
1629132364.91,fixation,2,236,,,NoAct
1629132365.0,stimulus,1,727,,,PerfumeSession
1629132365.5,fixation,1,727,,,PerfumeSession
1629132366.17,stimulus,3,55,,,NoAct
1629132366.41,stimulus,2,237,,,NoAct
1629132366.67,fixation,3,55,,,NoAct
1629132366.91,fixation,2,237,,,NoAct
1629132367.0,stimulus,1,728,,,PerfumeSession
1629132367.5,fixation,1,728,,,PerfumeSession
1629132368.17,stimulus,3,56,,,NoAct
1629132368.41,stimulus,2,238,,,NoAct
1629132368.67,fixation,3,56,,,NoAct
1629132368.91,fixation,2,238,,,NoAct
1629132369.0,stimulus,1,729,,,PerfumeSession
1629132369.5,fixation,1,729,,,PerfumeSession
1629132370.17,stimulus,3,57,,,NoAct
1629132370.41,stimulus,2,239,,,NoAct
1629132370.67,fixation,3,57,,,NoAct
1629132370.91,fixation,2,239,,,NoAct
1629132371.0,stimulus,1,730,,,PerfumeSession
1629132371.5,fixation,1,730,,,PerfumeSession
1629132372.17,stimulus,3,58,,,NoAct
1629132372.41,stimulus,2,240,,,NoAct
1629132372.67,fixation,3,58,,,NoAct
1629132372.91,fixation,2,240,,,NoAct
1629132373.0,stimulus,1,731,,,PerfumeSession
1629132373.5,fixation,1,731,,,PerfumeSession
1629132374.17,stimulus,3,59,,,NoAct
1629132374.41,stimulus,2,241,,,NoAct
1629132374.67,fixation,3,59,,,NoAct
1629132374.91,fixation,2,241,,,NoAct
1629132375.0,stimulus,1,732,,,PerfumeSession
1629132375.5,fixation,1,732,,,PerfumeSession
1629132376.17,stimulus,3,60,,,NoAct
1629132376.41,stimulus,2,242,,,NoAct
1629132376.67,fixation,3,60,,,NoAct
1629132376.91,fixation,2,242,,,NoAct
1629132377.0,stimulus,1,733,,,PerfumeSession
1629132377.5,fixation,1,733,,,PerfumeSession
1629132378.17,stimulus,3,61,,,NoAct
1629132378.41,stimulus,2,243,,,NoAct
1629132378.67,fixation,3,61,,,NoAct
1629132378.91,fixation,2,243,,,NoAct
1629132379.0,stimulus,1,734,,,PerfumeSession
1629132379.5,fixation,1,734,,,PerfumeSession
1629132380.17,stimulus,3,62,,,NoAct
1629132380.41,stimulus,2,244,,,NoAct
1629132380.67,fixation,3,62,,,NoAct
1629132380.91,fixation,2,244,,,NoAct
1629132381.0,stimulus,1,735,,,PerfumeSession
1629132381.5,fixation,1,735,,,PerfumeSession
1629132382.17,stimulus,3,63,,,NoAct
1629132382.41,stimulus,2,245,,,NoAct
1629132382.67,fixation,3,63,,,NoAct
1629132382.91,fixation,2,245,,,NoAct
1629132383.0,stimulus,1,736,,,PerfumeSession
1629132383.5,fixation,1,736,,,PerfumeSession
1629132384.17,stimulus,3,64,,,NoAct
1629132384.41,stimulus,2,246,,,NoAct
1629132384.67,fixation,3,64,,,NoAct
1629132384.91,fixation,2,246,,,NoAct
1629132385.0,stimulus,1,737,,,PerfumeSession
1629132385.5,fixation,1,737,,,PerfumeSession
1629132386.17,stimulus,3,65,,,NoAct
1629132386.41,stimulus,2,247,,,NoAct
1629132386.67,fixation,3,65,,,NoAct
1629132386.91,fixation,2,247,,,NoAct
1629132387.0,stimulus,1,738,,,PerfumeSession
1629132387.5,fixation,1,738,,,PerfumeSession
1629132388.17,stimulus,3,66,,,NoAct
1629132388.41,stimulus,2,248,,,NoAct
1629132388.67,fixation,3,66,,,NoAct
1629132388.91,fixation,2,248,,,NoAct
1629132389.0,stimulus,1,739,,,PerfumeSession
1629132389.5,fixation,1,739,,,PerfumeSession
1629132390.17,stimulus,3,67,,,NoAct
1629132390.41,stimulus,2,249,,,NoAct
1629132390.67,fixation,3,67,,,NoAct
1629132390.91,fixation,2,249,,,NoAct
1629132391.0,stimulus,1,740,,,PerfumeSession
1629132391.5,fixation,1,740,,,PerfumeSession
1629132392.17,stimulus,3,68,,,NoAct
1629132392.41,stimulus,2,250,,,NoAct
1629132392.67,fixation,3,68,,,NoAct
1629132392.91,fixation,2,250,,,NoAct
1629132393.0,stimulus,1,741,,,PerfumeSession
1629132393.5,fixation,1,741,,,PerfumeSession
1629132394.17,stimulus,3,69,,,NoAct
1629132394.41,stimulus,2,251,,,NoAct
1629132394.67,fixation,3,69,,,NoAct
1629132394.91,fixation,2,251,,,NoAct
1629132395.0,stimulus,1,742,,,PerfumeSession
1629132395.5,fixation,1,742,,,PerfumeSession
1629132396.17,stimulus,3,70,,,NoAct
1629132396.41,stimulus,2,252,,,NoAct
1629132396.67,fixation,3,70,,,NoAct
1629132396.91,fixation,2,252,,,NoAct
1629132397.0,stimulus,1,743,,,PerfumeSession
1629132397.5,fixation,1,743,,,PerfumeSession
1629132398.17,stimulus,3,71,,,NoAct
1629132398.41,stimulus,2,253,,,NoAct
1629132398.67,fixation,3,71,,,NoAct
1629132398.91,fixation,2,253,,,NoAct
1629132399.0,stimulus,1,744,,,PerfumeSession
1629132399.5,fixation,1,744,,,PerfumeSession
1629132400.17,stimulus,3,72,,,NoAct
1629132400.41,stimulus,2,254,,,NoAct
1629132400.67,fixation,3,72,,,NoAct
1629132400.91,fixation,2,254,,,NoAct
1629132401.0,stimulus,1,745,,,PerfumeSession
1629132401.5,fixation,1,745,,,PerfumeSession
1629132402.17,stimulus,3,73,,,NoAct
1629132402.41,stimulus,2,255,,,NoAct
1629132402.67,fixation,3,73,,,NoAct
1629132402.91,fixation,2,255,,,NoAct
1629132403.0,stimulus,1,746,,,PerfumeSession
1629132403.5,fixation,1,746,,,PerfumeSession
1629132404.17,stimulus,3,74,,,NoAct
1629132404.41,stimulus,2,256,,,NoAct
1629132404.67,fixation,3,74,,,NoAct
1629132404.91,fixation,2,256,,,NoAct
1629132405.0,stimulus,1,747,,,PerfumeSession
1629132405.5,fixation,1,747,,,PerfumeSession
1629132406.17,stimulus,3,75,,,NoAct
1629132406.41,stimulus,2,257,,,NoAct
1629132406.67,fixation,3,75,,,NoAct
1629132406.91,fixation,2,257,,,NoAct
1629132407.0,stimulus,1,748,,,PerfumeSession
1629132407.5,fixation,1,748,,,PerfumeSession
1629132408.17,stimulus,3,76,,,NoAct
1629132408.41,stimulus,2,258,,,NoAct
1629132408.67,fixation,3,76,,,NoAct
1629132408.91,fixation,2,258,,,NoAct
1629132409.0,stimulus,1,749,,,PerfumeSession
1629132409.5,fixation,1,749,,,PerfumeSession
1629132410.17,stimulus,3,77,,,NoAct
1629132410.41,stimulus,2,259,,,NoAct
1629132410.67,fixation,3,77,,,NoAct
1629132410.91,fixation,2,259,,,NoAct
1629132411.0,stimulus,1,750,,,PerfumeSession
1629132411.5,fixation,1,750,,,PerfumeSession
1629132412.17,stimulus,3,78,,,NoAct
1629132412.41,stimulus,2,260,,,NoAct
1629132412.67,fixation,3,78,,,NoAct
1629132412.91,fixation,2,260,,,NoAct
1629132413.0,stimulus,1,751,,,CoffeeSession
1629132413.5,fixation,1,751,,,CoffeeSession
1629132414.17,stimulus,3,79,,,NoAct
1629132414.41,stimulus,2,261,,,NoAct
1629132414.67,fixation,3,79,,,NoAct
1629132414.91,fixation,2,261,,,NoAct
1629132415.0,stimulus,1,752,,,CoffeeSession
1629132415.5,fixation,1,752,,,CoffeeSession
1629132416.17,stimulus,3,80,,,NoAct
1629132416.41,stimulus,2,262,,,NoAct
1629132416.67,fixation,3,80,,,NoAct
1629132416.91,fixation,2,262,,,NoAct
1629132417.0,stimulus,1,753,,,CoffeeSession
1629132417.5,fixation,1,753,,,CoffeeSession
1629132418.17,stimulus,3,81,,,NoAct
1629132418.41,stimulus,2,263,,,NoAct
1629132418.67,fixation,3,81,,,NoAct
1629132418.91,fixation,2,263,,,NoAct
1629132419.0,stimulus,1,754,,,CoffeeSession
1629132419.5,fixation,1,754,,,CoffeeSession
1629132420.17,stimulus,3,82,,,NoAct
1629132420.41,stimulus,2,264,,,NoAct
1629132420.67,fixation,3,82,,,NoAct
1629132420.91,fixation,2,264,,,NoAct
1629132421.0,stimulus,1,755,,,CoffeeSession
1629132421.5,fixation,1,755,,,CoffeeSession
1629132422.17,stimulus,3,83,,,NoAct
1629132422.41,stimulus,2,265,,,NoAct
1629132422.67,fixation,3,83,,,NoAct
1629132422.91,fixation,2,265,,,NoAct
1629132423.0,stimulus,1,756,,,CoffeeSession
1629132423.5,fixation,1,756,,,CoffeeSession
1629132424.17,stimulus,3,84,,,NoAct
1629132424.41,stimulus,2,266,,,NoAct
1629132424.67,fixation,3,84,,,NoAct
1629132424.91,fixation,2,266,,,NoAct
1629132425.0,stimulus,1,757,,,CoffeeSession
1629132425.5,fixation,1,757,,,CoffeeSession
1629132426.17,stimulus,3,85,,,NoAct
1629132426.41,stimulus,2,267,,,NoAct
1629132426.67,fixation,3,85,,,NoAct
1629132426.91,fixation,2,267,,,NoAct
1629132427.0,stimulus,1,758,,,CoffeeSession
1629132427.5,fixation,1,758,,,CoffeeSession
1629132428.17,stimulus,3,86,,,NoAct
1629132428.41,stimulus,2,268,,,NoAct
1629132428.67,fixation,3,86,,,NoAct
1629132428.91,fixation,2,268,,,NoAct
1629132429.0,stimulus,1,759,,,CoffeeSession
1629132429.5,fixation,1,759,,,CoffeeSession
1629132430.17,stimulus,3,87,,,NoAct
1629132430.41,stimulus,2,269,,,NoAct
1629132430.67,fixation,3,87,,,NoAct
1629132430.91,fixation,2,269,,,NoAct
1629132431.0,stimulus,1,760,,,CoffeeSession
1629132431.5,fixation,1,760,,,CoffeeSession
1629132432.17,stimulus,3,88,,,NoAct
1629132432.41,stimulus,2,270,,,NoAct
1629132432.67,fixation,3,88,,,NoAct
1629132432.91,fixation,2,270,,,NoAct
1629132433.0,stimulus,1,761,,,CoffeeSession
1629132433.5,fixation,1,761,,,CoffeeSession
1629132434.17,stimulus,3,89,,,NoAct
1629132434.41,stimulus,2,271,,,NoAct
1629132434.67,fixation,3,89,,,NoAct
1629132434.91,fixation,2,271,,,NoAct
1629132435.0,stimulus,1,762,,,CoffeeSession
1629132435.5,fixation,1,762,,,CoffeeSession
1629132436.17,stimulus,3,90,,,NoAct
1629132436.41,stimulus,2,272,,,NoAct
1629132436.67,fixation,3,90,,,NoAct
1629132436.91,fixation,2,272,,,NoAct
1629132437.0,stimulus,1,763,,,CoffeeSession
1629132437.5,fixation,1,763,,,CoffeeSession
1629132438.17,stimulus,3,91,,,NoAct
1629132438.41,stimulus,2,273,,,NoAct
1629132438.67,fixation,3,91,,,NoAct
1629132438.91,fixation,2,273,,,NoAct
1629132439.0,stimulus,1,764,,,CoffeeSession
1629132439.5,fixation,1,764,,,CoffeeSession
1629132440.17,stimulus,3,92,,,NoAct
1629132440.41,stimulus,2,274,,,NoAct
1629132440.67,fixation,3,92,,,NoAct
1629132440.91,fixation,2,274,,,NoAct
1629132441.0,stimulus,1,765,,,CoffeeSession
1629132441.5,fixation,1,765,,,CoffeeSession
1629132442.17,stimulus,3,93,,,NoAct
1629132442.41,stimulus,2,275,,,NoAct
1629132442.67,fixation,3,93,,,NoAct
1629132442.91,fixation,2,275,,,NoAct
1629132443.0,stimulus,1,766,,,CoffeeSession
1629132443.5,fixation,1,766,,,CoffeeSession
1629132444.17,stimulus,3,94,,,NoAct
1629132444.41,stimulus,2,276,,,NoAct
1629132444.67,fixation,3,94,,,NoAct
1629132444.91,fixation,2,276,,,NoAct
1629132445.0,stimulus,1,767,,,CoffeeSession
1629132445.5,fixation,1,767,,,CoffeeSession
1629132446.17,stimulus,3,95,,,NoAct
1629132446.41,stimulus,2,277,,,NoAct
1629132446.67,fixation,3,95,,,NoAct
1629132446.91,fixation,2,277,,,NoAct
1629132447.0,stimulus,1,768,,,CoffeeSession
1629132447.5,fixation,1,768,,,CoffeeSession
1629132448.17,stimulus,3,96,,,NoAct
1629132448.41,stimulus,2,278,,,NoAct
1629132448.67,fixation,3,96,,,NoAct
1629132448.91,fixation,2,278,,,NoAct
1629132449.0,stimulus,1,769,,,CoffeeSession
1629132449.5,fixation,1,769,,,CoffeeSession
1629132450.17,stimulus,3,97,,,NoAct
1629132450.41,stimulus,2,279,,,NoAct
1629132450.67,fixation,3,97,,,NoAct
1629132450.91,fixation,2,279,,,NoAct
1629132451.0,stimulus,1,770,,,CoffeeSession
1629132451.5,fixation,1,770,,,CoffeeSession
1629132452.17,stimulus,3,98,,,NoAct
1629132452.41,stimulus,2,280,,,NoAct
1629132452.67,fixation,3,98,,,NoAct
1629132452.91,fixation,2,280,,,NoAct
1629132453.0,stimulus,1,771,,,CoffeeSession
1629132453.5,fixation,1,771,,,CoffeeSession
1629132454.17,stimulus,3,99,,,NoAct
1629132454.41,stimulus,2,281,,,NoAct
1629132454.67,fixation,3,99,,,NoAct
1629132454.91,fixation,2,281,,,NoAct
1629132455.0,stimulus,1,772,,,CoffeeSession
1629132455.5,fixation,1,772,,,CoffeeSession
1629132456.17,stimulus,3,100,,,NoAct
1629132456.41,stimulus,2,282,,,NoAct
1629132456.67,fixation,3,100,,,NoAct
1629132456.91,fixation,2,282,,,NoAct
1629132457.0,stimulus,1,773,,,CoffeeSession
1629132457.5,fixation,1,773,,,CoffeeSession
1629132458.17,stimulus,3,101,,,NoAct
1629132458.41,stimulus,2,283,,,NoAct
1629132458.67,fixation,3,101,,,NoAct
1629132458.91,fixation,2,283,,,NoAct
1629132459.0,stimulus,1,774,,,CoffeeSession
1629132459.5,fixation,1,774,,,CoffeeSession
1629132460.17,stimulus,3,102,,,NoAct
1629132460.41,stimulus,2,284,,,NoAct
1629132460.67,fixation,3,102,,,NoAct
1629132460.91,fixation,2,284,,,NoAct
1629132461.0,stimulus,1,775,,,CoffeeSession
1629132461.5,fixation,1,775,,,CoffeeSession
1629132462.17,stimulus,3,103,,,NoAct
1629132462.41,stimulus,2,285,,,NoAct
1629132462.67,fixation,3,103,,,NoAct
1629132462.91,fixation,2,285,,,NoAct
1629132463.0,stimulus,1,776,,,CoffeeSession
1629132463.5,fixation,1,776,,,CoffeeSession
1629132464.17,stimulus,3,104,,,NoAct
1629132464.41,stimulus,2,286,,,NoAct
1629132464.67,fixation,3,104,,,NoAct
1629132464.91,fixation,2,286,,,NoAct
1629132465.0,stimulus,1,777,,,CoffeeSession
1629132465.5,fixation,1,777,,,CoffeeSession
1629132466.17,stimulus,3,105,,,NoAct
1629132466.41,stimulus,2,287,,,NoAct
1629132466.67,fixation,3,105,,,NoAct
1629132466.91,fixation,2,287,,,NoAct
1629132467.0,stimulus,1,778,,,CoffeeSession
1629132467.5,fixation,1,778,,,CoffeeSession
1629132468.17,stimulus,3,106,,,NoAct
1629132468.41,stimulus,2,288,,,NoAct
1629132468.67,fixation,3,106,,,NoAct
1629132468.91,fixation,2,288,,,NoAct
1629132469.0,stimulus,1,779,,,CoffeeSession
1629132469.5,fixation,1,779,,,CoffeeSession
1629132470.17,stimulus,3,107,,,NoAct
1629132470.41,stimulus,2,289,,,NoAct
1629132470.67,fixation,3,107,,,NoAct
1629132470.91,fixation,2,289,,,NoAct
1629132471.0,stimulus,1,780,,,CoffeeSession
1629132471.5,fixation,1,780,,,CoffeeSession
1629132472.17,stimulus,3,108,,,NoAct
1629132472.41,stimulus,2,290,,,NoAct
1629132472.67,fixation,3,108,,,NoAct
1629132472.91,fixation,2,290,,,NoAct
1629132473.0,stimulus,1,781,,,CoffeeSession
1629132473.5,fixation,1,781,,,CoffeeSession
1629132474.17,stimulus,3,109,,,NoAct
1629132474.41,stimulus,2,291,,,NoAct
1629132474.67,fixation,3,109,,,NoAct
1629132474.91,fixation,2,291,,,NoAct
1629132475.0,stimulus,1,782,,,CoffeeSession
1629132475.5,fixation,1,782,,,CoffeeSession
1629132476.17,stimulus,3,110,,,NoAct
1629132476.41,stimulus,2,292,,,NoAct
1629132476.67,fixation,3,110,,,NoAct
1629132476.91,fixation,2,292,,,NoAct
1629132477.0,stimulus,1,783,,,CoffeeSession
1629132477.5,fixation,1,783,,,CoffeeSession
1629132478.17,stimulus,3,111,,,NoAct
1629132478.41,stimulus,2,293,,,NoAct
1629132478.67,fixation,3,111,,,NoAct
1629132478.91,fixation,2,293,,,NoAct
1629132479.0,stimulus,1,784,,,CoffeeSession
1629132479.5,fixation,1,784,,,CoffeeSession
1629132480.17,stimulus,3,112,,,NoAct
1629132480.41,stimulus,2,294,,,NoAct
1629132480.67,fixation,3,112,,,NoAct
1629132480.91,fixation,2,294,,,NoAct
1629132481.0,stimulus,1,785,,,CoffeeSession
1629132481.5,fixation,1,785,,,CoffeeSession
