event_time_s,trial_type,session_idx,trial_idx,RT_s,ACC,session_type
1630284989.78,stimulus,1,1,,,PracticeSession
1630284990.28,fixation,1,1,,,PracticeSession
1630284991.78,stimulus,1,2,,,PracticeSession
1630284992.28,fixation,1,2,,,PracticeSession
1630284993.78,stimulus,1,3,,,PracticeSession
1630284994.28,fixation,1,3,,,PracticeSession
1630284995.78,stimulus,1,4,,,PracticeSession
1630284996.28,fixation,1,4,,,PracticeSession
1630284997.78,stimulus,1,5,,,PracticeSession
1630284998.28,fixation,1,5,,,PracticeSession
1630284999.78,stimulus,1,6,,,PracticeSession
1630285000.28,fixation,1,6,,,PracticeSession
1630285001.78,stimulus,1,7,,,PracticeSession
1630285002.28,fixation,1,7,,,PracticeSession
1630285003.78,stimulus,1,8,,,PracticeSession
1630285004.28,fixation,1,8,,,PracticeSession
1630285005.78,stimulus,1,9,,,PracticeSession
1630285006.28,fixation,1,9,,,PracticeSession
1630285007.78,stimulus,1,10,,,PracticeSession
1630285008.28,fixation,1,10,,,PracticeSession
1630285009.78,stimulus,1,11,,,PracticeSession
1630285010.28,fixation,1,11,,,PracticeSession
1630285011.78,stimulus,1,12,,,PracticeSession
1630285012.28,fixation,1,12,,,PracticeSession
1630285013.78,stimulus,1,13,,,PracticeSession
1630285014.28,fixation,1,13,,,PracticeSession
1630285015.78,stimulus,1,14,,,PracticeSession
1630285016.28,fixation,1,14,,,PracticeSession
1630285017.78,stimulus,1,15,,,PracticeSession
1630285018.28,fixation,1,15,,,PracticeSession
1630285019.78,stimulus,1,16,,,PracticeSession
1630285020.28,fixation,1,16,,,PracticeSession
1630285021.78,stimulus,1,17,,,PracticeSession
1630285022.28,fixation,1,17,,,PracticeSession
1630285023.78,stimulus,1,18,,,PracticeSession
1630285024.28,fixation,1,18,,,PracticeSession
1630285025.78,stimulus,1,19,,,PracticeSession
1630285026.28,fixation,1,19,,,PracticeSession
1630285027.78,stimulus,1,20,,,PracticeSession
1630285028.28,fixation,1,20,,,PracticeSession
1630285029.78,stimulus,1,21,,,PracticeSession
1630285030.28,fixation,1,21,,,PracticeSession
1630285031.78,stimulus,1,22,,,PracticeSession
1630285032.28,fixation,1,22,,,PracticeSession
1630285033.78,stimulus,1,23,,,PracticeSession
1630285034.28,fixation,1,23,,,PracticeSession
1630285035.78,stimulus,1,24,,,PracticeSession
1630285036.28,fixation,1,24,,,PracticeSession
1630285037.78,stimulus,1,25,,,PracticeSession
1630285038.28,fixation,1,25,,,PracticeSession
1630285039.78,stimulus,1,26,,,PracticeSession
1630285040.28,fixation,1,26,,,PracticeSession
1630285041.78,stimulus,1,27,,,PracticeSession
1630285042.28,fixation,1,27,,,PracticeSession
1630285043.78,stimulus,1,28,,,PracticeSession
1630285044.28,fixation,1,28,,,PracticeSession
1630285045.78,stimulus,1,29,,,PracticeSession
1630285046.28,fixation,1,29,,,PracticeSession
1630285047.78,stimulus,1,30,,,PracticeSession
1630285048.28,fixation,1,30,,,PracticeSession
1630285049.78,stimulus,1,31,,,PracticeSession
1630285050.28,fixation,1,31,,,PracticeSession
1630285051.78,stimulus,1,32,,,PracticeSession
1630285052.28,fixation,1,32,,,PracticeSession
1630285053.78,stimulus,1,33,,,PracticeSession
1630285054.28,fixation,1,33,,,PracticeSession
1630285055.78,stimulus,1,34,,,PracticeSession
1630285056.28,fixation,1,34,,,PracticeSession
1630285057.78,stimulus,1,35,,,PracticeSession
1630285058.28,fixation,1,35,,,PracticeSession
1630285059.78,stimulus,1,36,,,PracticeSession
1630285060.28,fixation,1,36,,,PracticeSession
1630285061.78,stimulus,1,37,,,PracticeSession
1630285062.28,fixation,1,37,,,PracticeSession
1630285063.78,stimulus,1,38,,,PracticeSession
1630285064.28,fixation,1,38,,,PracticeSession
1630285065.78,stimulus,1,39,,,PracticeSession
1630285066.28,fixation,1,39,,,PracticeSession
1630285067.78,stimulus,1,40,,,PracticeSession
1630285068.28,fixation,1,40,,,PracticeSession
1630285069.78,stimulus,1,41,,,PracticeSession
1630285070.28,fixation,1,41,,,PracticeSession
1630285071.78,stimulus,1,42,,,PracticeSession
1630285072.28,fixation,1,42,,,PracticeSession
1630285073.78,stimulus,1,43,,,PracticeSession
1630285074.28,fixation,1,43,,,PracticeSession
1630285075.78,stimulus,1,44,,,PracticeSession
1630285076.28,fixation,1,44,,,PracticeSession
1630285077.78,stimulus,1,45,,0.0,NoAct
1630285078.28,fixation,1,45,,0.0,NoAct
1630285079.78,stimulus,1,46,,0.0,NoAct
1630285080.793,fixation,1,46,0.513,1.0,NoAct
1630285081.78,stimulus,1,47,,0.0,NoAct
1630285082.58,fixation,1,47,0.3,1.0,NoAct
1630285083.78,stimulus,1,48,,0.0,NoAct
1630285084.454,fixation,1,48,0.174,1.0,NoAct
1630285085.78,stimulus,1,49,,0.0,NoAct
1630285086.317,fixation,1,49,0.037,1.0,NoAct
1630285087.78,stimulus,1,50,,0.0,NoAct
1630285088.463,fixation,1,50,0.183,1.0,NoAct
1630285089.78,stimulus,1,51,,0.0,NoAct
1630285090.864,fixation,1,51,0.584,0.0,NoAct
1630285091.78,stimulus,1,52,,0.0,NoAct
1630285092.533,fixation,1,52,0.253,1.0,NoAct
1630285093.78,stimulus,1,53,,0.0,NoAct
1630285094.503,fixation,1,53,0.223,1.0,NoAct
1630285095.78,stimulus,1,54,,0.0,NoAct
1630285096.59,fixation,1,54,0.31,0.0,NoAct
1630285097.78,stimulus,1,55,,0.0,NoAct
1630285098.606,fixation,1,55,0.326,1.0,NoAct
1630285099.78,stimulus,1,56,,0.0,NoAct
1630285100.456,fixation,1,56,0.176,1.0,NoAct
1630285101.78,stimulus,1,57,,0.0,NoAct
1630285102.563,fixation,1,57,0.283,1.0,NoAct
1630285103.78,stimulus,1,58,,0.0,NoAct
1630285104.9689999,fixation,1,58,0.689,1.0,NoAct
1630285105.78,stimulus,1,59,,0.0,NoAct
1630285106.478,fixation,1,59,0.198,1.0,NoAct
1630285107.78,stimulus,1,60,,0.0,NoAct
1630285108.532,fixation,1,60,0.252,1.0,NoAct
1630285109.78,stimulus,1,61,,0.0,NoAct
1630285110.957,fixation,1,61,0.677,1.0,NoAct
1630285111.78,stimulus,1,62,,0.0,NoAct
1630285112.486,fixation,1,62,0.206,1.0,NoAct
1630285113.78,stimulus,1,63,,0.0,NoAct
1630285114.578,fixation,1,63,0.298,1.0,NoAct
1630285115.78,stimulus,1,64,,0.0,NoAct
1630285116.5839999,fixation,1,64,0.304,1.0,NoAct
1630285117.78,stimulus,1,65,,0.0,NoAct
1630285118.529,fixation,1,65,0.249,1.0,NoAct
1630285119.78,stimulus,1,66,,0.0,NoAct
1630285120.361,fixation,1,66,0.081,1.0,NoAct
1630285121.78,stimulus,1,67,,0.0,NoAct
1630285122.28,fixation,1,67,,0.0,NoAct
1630285123.78,stimulus,1,68,,0.0,NoAct
1630285124.28,fixation,1,68,,0.0,NoAct
1630285125.78,stimulus,1,69,,0.0,NoAct
1630285126.28,fixation,1,69,,0.0,NoAct
1630285127.78,stimulus,1,70,,0.0,NoAct
1630285128.5149999,fixation,1,70,0.235,1.0,NoAct
1630285129.78,stimulus,1,71,,0.0,NoAct
1630285130.474,fixation,1,71,0.194,1.0,NoAct
1630285131.78,stimulus,1,72,,0.0,NoAct
1630285132.849,fixation,1,72,0.569,1.0,NoAct
1630285133.78,stimulus,1,73,,0.0,NoAct
1630285134.638,fixation,1,73,0.358,0.0,NoAct
1630285135.78,stimulus,1,74,,0.0,NoAct
1630285136.28,fixation,1,74,,0.0,NoAct
1630285137.78,stimulus,1,75,,0.0,NoAct
1630285139.316,fixation,1,75,1.036,0.0,NoAct
1630285139.78,stimulus,1,76,,0.0,NoAct
1630285141.147,fixation,1,76,0.867,0.0,NoAct
1630285141.78,stimulus,1,77,,0.0,NoAct
1630285142.665,fixation,1,77,0.385,1.0,NoAct
1630285143.78,stimulus,1,78,,0.0,NoAct
1630285144.28,fixation,1,78,,0.0,NoAct
1630285145.78,stimulus,1,79,,0.0,NoAct
1630285147.317,fixation,1,79,1.037,1.0,NoAct
1630285147.78,stimulus,1,80,,0.0,NoAct
1630285148.8439999,fixation,1,80,0.564,1.0,NoAct
1630285149.78,stimulus,1,81,,0.0,NoAct
1630285151.2419999,fixation,1,81,0.962,1.0,NoAct
1630285151.78,stimulus,1,82,,0.0,NoAct
1630285152.722,fixation,1,82,0.442,0.0,NoAct
1630285153.78,stimulus,1,83,,0.0,NoAct
1630285155.5249999,fixation,1,83,1.245,1.0,NoAct
1630285155.78,stimulus,1,84,,0.0,NoAct
1630285156.893,fixation,1,84,0.613,0.0,NoAct
1630285157.78,stimulus,1,85,,0.0,NoAct
1630285158.585,fixation,1,85,0.305,1.0,NoAct
1630285159.78,stimulus,1,86,,0.0,NoAct
1630285161.391,fixation,1,86,1.111,0.0,NoAct
1630285161.78,stimulus,1,87,,0.0,NoAct
1630285162.283,fixation,1,87,0.003,1.0,NoAct
1630285163.78,stimulus,1,88,,0.0,NoAct
1630285164.791,fixation,1,88,0.511,1.0,NoAct
1630285165.78,stimulus,1,89,,0.0,NoAct
1630285166.28,fixation,1,89,,0.0,NoAct
1630285167.78,stimulus,1,90,,0.0,NoAct
1630285168.28,fixation,1,90,,0.0,NoAct
1630285169.78,stimulus,1,91,,0.0,NoAct
1630285170.28,fixation,1,91,,0.0,NoAct
1630285171.78,stimulus,1,92,,0.0,NoAct
1630285172.624,fixation,1,92,0.344,1.0,NoAct
1630285173.78,stimulus,1,93,,0.0,NoAct
1630285174.396,fixation,1,93,0.116,0.0,NoAct
1630285175.78,stimulus,1,94,,0.0,NoAct
1630285176.562,fixation,1,94,0.282,1.0,NoAct
1630285177.78,stimulus,1,95,,0.0,NoAct
1630285178.28,fixation,1,95,,0.0,NoAct
1630285179.78,stimulus,1,96,,0.0,NoAct
1630285181.073,fixation,1,96,0.793,1.0,NoAct
1630285181.78,stimulus,1,97,,0.0,NoAct
1630285182.616,fixation,1,97,0.336,1.0,NoAct
1630285183.78,stimulus,1,98,,0.0,NoAct
1630285184.28,fixation,1,98,,0.0,NoAct
1630285185.96,stimulus,1,99,0.18,1.0,NoAct
1630285186.964,fixation,1,99,0.684,1.0,NoAct
1630285187.78,stimulus,1,100,,0.0,NoAct
1630285188.8339999,fixation,1,100,0.554,1.0,NoAct
1630285189.78,stimulus,1,101,,0.0,NoAct
1630285190.855,fixation,1,101,0.575,0.0,NoAct
1630285191.78,stimulus,1,102,,0.0,NoAct
1630285192.6169999,fixation,1,102,0.337,1.0,NoAct
1630285193.78,stimulus,1,103,,0.0,NoAct
1630285194.432,fixation,1,103,0.152,1.0,NoAct
1630285195.78,stimulus,1,104,,0.0,NoAct
1630285196.888,fixation,1,104,0.608,0.0,NoAct
1630285197.78,stimulus,1,105,,0.0,NoAct
1630285198.735,fixation,1,105,0.455,1.0,NoAct
1630285199.78,stimulus,1,106,,0.0,NoAct
1630285200.863,fixation,1,106,0.583,0.0,NoAct
1630285201.78,stimulus,1,107,,0.0,NoAct
1630285202.723,fixation,1,107,0.443,1.0,NoAct
1630285203.78,stimulus,1,108,,0.0,NoAct
1630285204.74,fixation,1,108,0.46,1.0,NoAct
1630285205.78,stimulus,1,109,,0.0,NoAct
1630285206.581,fixation,1,109,0.301,1.0,NoAct
1630285207.78,stimulus,1,110,,0.0,NoAct
1630285208.532,fixation,1,110,0.252,1.0,NoAct
1630285209.78,stimulus,1,111,,0.0,NoAct
1630285210.28,fixation,1,111,,0.0,NoAct
1630285211.78,stimulus,1,112,,0.0,NoAct
1630285212.706,fixation,1,112,0.426,1.0,NoAct
1630285213.78,stimulus,1,113,,0.0,NoAct
1630285214.363,fixation,1,113,0.083,1.0,NoAct
1630285215.78,stimulus,1,114,,0.0,NoAct
1630285216.456,fixation,1,114,0.176,1.0,NoAct
1630285217.78,stimulus,1,115,,0.0,NoAct
1630285218.299,fixation,1,115,0.019,1.0,NoAct
1630285219.78,stimulus,1,116,,0.0,NoAct
1630285220.352,fixation,1,116,0.072,1.0,NoAct
1630285221.78,stimulus,1,117,,0.0,NoAct
1630285222.353,fixation,1,117,0.073,1.0,NoAct
1630285223.78,stimulus,1,118,,0.0,NoAct
1630285224.433,fixation,1,118,0.153,1.0,NoAct
1630285225.78,stimulus,1,119,,0.0,NoAct
1630285226.517,fixation,1,119,0.237,1.0,NoAct
1630285227.78,stimulus,1,120,,0.0,NoAct
1630285228.786,fixation,1,120,0.506,1.0,NoAct
1630285229.78,stimulus,1,121,,0.0,NoAct
1630285230.562,fixation,1,121,0.282,1.0,NoAct
1630285231.78,stimulus,1,122,,0.0,NoAct
1630285232.819,fixation,1,122,0.539,1.0,NoAct
1630285233.78,stimulus,1,123,,0.0,NoAct
1630285234.541,fixation,1,123,0.261,1.0,NoAct
1630285235.78,stimulus,1,124,,0.0,NoAct
1630285236.6729999,fixation,1,124,0.393,1.0,NoAct
1630285237.78,stimulus,1,125,,0.0,NoAct
1630285238.858,fixation,1,125,0.578,1.0,NoAct
1630285239.78,stimulus,1,126,,0.0,NoAct
1630285240.602,fixation,1,126,0.322,1.0,NoAct
1630285241.78,stimulus,1,127,,0.0,NoAct
1630285242.558,fixation,1,127,0.278,1.0,NoAct
1630285243.78,stimulus,1,128,,0.0,NoAct
1630285244.417,fixation,1,128,0.137,1.0,NoAct
1630285245.78,stimulus,1,129,,0.0,NoAct
1630285246.449,fixation,1,129,0.169,1.0,NoAct
1630285248.187,stimulus,1,130,0.407,0.0,NoAct
1630285248.628,fixation,1,130,0.348,1.0,NoAct
1630285249.78,stimulus,1,131,,0.0,NoAct
1630285250.647,fixation,1,131,0.367,1.0,NoAct
1630285251.78,stimulus,1,132,,0.0,NoAct
1630285252.4029999,fixation,1,132,0.123,1.0,NoAct
1630285253.78,stimulus,1,133,,0.0,NoAct
1630285254.28,fixation,1,133,,0.0,NoAct
1630285255.78,stimulus,1,134,,0.0,NoAct
1630285256.28,fixation,1,134,,0.0,NoAct
1630285257.78,stimulus,1,135,,0.0,NoAct
1630285258.28,fixation,1,135,,0.0,NoAct
1630285259.78,stimulus,1,136,,0.0,NoAct
1630285260.942,fixation,1,136,0.662,1.0,NoAct
1630285261.78,stimulus,1,137,,0.0,NoAct
1630285262.49,fixation,1,137,0.21,1.0,NoAct
1630285263.78,stimulus,1,138,,0.0,NoAct
1630285264.952,fixation,1,138,0.672,1.0,NoAct
1630285265.78,stimulus,1,139,,0.0,NoAct
1630285266.885,fixation,1,139,0.605,1.0,NoAct
1630285267.78,stimulus,1,140,,0.0,NoAct
1630285268.425,fixation,1,140,0.145,1.0,NoAct
1630285269.78,stimulus,1,141,,0.0,NoAct
1630285270.904,fixation,1,141,0.624,1.0,NoAct
1630285271.78,stimulus,1,142,,0.0,NoAct
1630285273.1529999,fixation,1,142,0.873,0.0,NoAct
1630285273.78,stimulus,1,143,,0.0,NoAct
1630285274.573,fixation,1,143,0.293,1.0,NoAct
1630285275.78,stimulus,1,144,,0.0,NoAct
1630285276.6039999,fixation,1,144,0.324,1.0,NoAct
1630285277.78,stimulus,1,145,,0.0,NoAct
1630285279.215,fixation,1,145,0.935,0.0,NoAct
1630285279.78,stimulus,1,146,,0.0,NoAct
1630285280.521,fixation,1,146,0.241,0.0,NoAct
1630285281.78,stimulus,1,147,,0.0,NoAct
1630285282.5609999,fixation,1,147,0.281,0.0,NoAct
1630285283.78,stimulus,1,148,,0.0,NoAct
1630285284.972,fixation,1,148,0.692,1.0,NoAct
1630285285.78,stimulus,1,149,,0.0,NoAct
1630285286.535,fixation,1,149,0.255,1.0,NoAct
1630285287.78,stimulus,1,150,,0.0,NoAct
1630285288.396,fixation,1,150,0.116,1.0,NoAct
1630285289.78,stimulus,1,151,,0.0,NoAct
1630285290.968,fixation,1,151,0.688,1.0,NoAct
1630285291.78,stimulus,1,152,,0.0,NoAct
1630285292.902,fixation,1,152,0.622,1.0,NoAct
1630285293.78,stimulus,1,153,,0.0,NoAct
1630285294.872,fixation,1,153,0.592,1.0,NoAct
1630285295.78,stimulus,1,154,,0.0,NoAct
1630285297.353,fixation,1,154,1.073,1.0,NoAct
1630285297.78,stimulus,1,155,,0.0,NoAct
1630285298.28,fixation,1,155,,0.0,NoAct
1630285299.78,stimulus,1,156,,0.0,NoAct
1630285300.28,fixation,1,156,,0.0,NoAct
1630285301.78,stimulus,1,157,,0.0,NoAct
1630285302.553,fixation,1,157,0.273,1.0,NoAct
1630285303.78,stimulus,1,158,,0.0,NoAct
1630285304.562,fixation,1,158,0.282,1.0,NoAct
1630285305.78,stimulus,1,159,,0.0,NoAct
1630285306.306,fixation,1,159,0.026,0.0,NoAct
1630285308.245,stimulus,1,160,0.465,0.0,NoAct
1630285308.28,fixation,1,160,,0.0,NoAct
1630285309.78,stimulus,1,161,,0.0,NoAct
1630285310.407,fixation,1,161,0.127,1.0,NoAct
1630285312.183,stimulus,1,162,0.403,1.0,NoAct
1630285312.28,fixation,1,162,,0.0,NoAct
1630285313.78,stimulus,1,163,,0.0,NoAct
1630285314.593,fixation,1,163,0.313,1.0,NoAct
1630285315.78,stimulus,1,164,,0.0,NoAct
1630285316.358,fixation,1,164,0.078,1.0,NoAct
1630285317.78,stimulus,1,165,,0.0,NoAct
1630285318.539,fixation,1,165,0.259,1.0,NoAct
1630285319.78,stimulus,1,166,,0.0,NoAct
1630285320.504,fixation,1,166,0.224,1.0,NoAct
1630285321.78,stimulus,1,167,,0.0,NoAct
1630285322.957,fixation,1,167,0.677,1.0,NoAct
1630285323.78,stimulus,1,168,,0.0,NoAct
1630285324.544,fixation,1,168,0.264,1.0,NoAct
1630285325.78,stimulus,1,169,,0.0,NoAct
1630285326.346,fixation,1,169,0.066,1.0,NoAct
1630285327.78,stimulus,1,170,,0.0,NoAct
1630285328.315,fixation,1,170,0.035,1.0,NoAct
1630285329.78,stimulus,1,171,,0.0,NoAct
1630285330.286,fixation,1,171,0.006,1.0,NoAct
1630285332.207,stimulus,1,172,0.427,1.0,NoAct
1630285332.28,fixation,1,172,,0.0,NoAct
1630285333.78,stimulus,1,173,,0.0,NoAct
1630285334.433,fixation,1,173,0.153,1.0,NoAct
1630285335.78,stimulus,1,174,,0.0,NoAct
1630285336.307,fixation,1,174,0.027,1.0,NoAct
1630285337.78,stimulus,1,175,,0.0,NoAct
1630285338.994,fixation,1,175,0.714,0.0,NoAct
1630285339.78,stimulus,1,176,,0.0,NoAct
1630285340.564,fixation,1,176,0.284,0.0,NoAct
1630285341.78,stimulus,1,177,,0.0,NoAct
1630285342.28,fixation,1,177,,0.0,NoAct
1630285343.78,stimulus,1,178,,0.0,NoAct
1630285344.634,fixation,1,178,0.354,1.0,NoAct
1630285346.277,stimulus,1,179,0.497,1.0,NoAct
1630285346.28,fixation,1,179,,0.0,NoAct
1630285347.78,stimulus,1,180,,0.0,NoAct
1630285348.415,fixation,1,180,0.135,1.0,NoAct
1630285349.78,stimulus,1,181,,0.0,NoAct
1630285350.437,fixation,1,181,0.157,1.0,NoAct
1630285351.78,stimulus,1,182,,0.0,NoAct
1630285352.602,fixation,1,182,0.322,1.0,NoAct
1630285353.78,stimulus,1,183,,0.0,NoAct
1630285354.35,fixation,1,183,0.07,1.0,NoAct
1630285355.78,stimulus,1,184,,0.0,NoAct
1630285356.832,fixation,1,184,0.552,0.0,NoAct
1630285357.78,stimulus,1,185,,0.0,NoAct
1630285358.431,fixation,1,185,0.151,1.0,NoAct
1630285359.78,stimulus,1,186,,0.0,NoAct
1630285360.51,fixation,1,186,0.23,0.0,NoAct
1630285361.78,stimulus,1,187,,0.0,NoAct
1630285362.526,fixation,1,187,0.246,0.0,NoAct
1630285363.78,stimulus,1,188,,0.0,NoAct
1630285364.519,fixation,1,188,0.239,1.0,NoAct
1630285365.78,stimulus,1,189,,0.0,NoAct
1630285366.477,fixation,1,189,0.197,1.0,NoAct
1630285367.78,stimulus,1,190,,0.0,NoAct
1630285368.497,fixation,1,190,0.217,1.0,NoAct
1630285369.78,stimulus,1,191,,0.0,NoAct
1630285370.441,fixation,1,191,0.161,1.0,NoAct
1630285371.78,stimulus,1,192,,0.0,NoAct
1630285372.799,fixation,1,192,0.519,1.0,NoAct
1630285373.78,stimulus,1,193,,0.0,NoAct
1630285374.379,fixation,1,193,0.099,1.0,NoAct
1630285375.78,stimulus,1,194,,0.0,NoAct
1630285376.842,fixation,1,194,0.562,1.0,NoAct
1630285377.78,stimulus,1,195,,0.0,NoAct
1630285378.83,fixation,1,195,0.55,1.0,NoAct
1630285379.78,stimulus,1,196,,0.0,NoAct
1630285380.578,fixation,1,196,0.298,1.0,NoAct
1630285381.78,stimulus,1,197,,0.0,NoAct
1630285382.656,fixation,1,197,0.376,0.0,NoAct
1630285383.78,stimulus,1,198,,0.0,NoAct
1630285384.361,fixation,1,198,0.081,1.0,NoAct
1630285385.78,stimulus,1,199,,0.0,NoAct
1630285386.28,fixation,1,199,,0.0,NoAct
1630285387.78,stimulus,1,200,,0.0,NoAct
1630285388.28,fixation,1,200,,0.0,NoAct
1630285389.78,stimulus,1,201,,0.0,NoAct
1630285390.28,fixation,1,201,,0.0,NoAct
1630285391.78,stimulus,1,202,,0.0,NoAct
1630285392.841,fixation,1,202,0.561,1.0,NoAct
1630285393.78,stimulus,1,203,,0.0,NoAct
1630285394.289,fixation,1,203,0.009,0.0,NoAct
1630285395.78,stimulus,1,204,,0.0,NoAct
1630285396.596,fixation,1,204,0.316,1.0,NoAct
1630285397.78,stimulus,1,205,,0.0,NoAct
1630285398.874,fixation,1,205,0.594,1.0,NoAct
1630285399.78,stimulus,1,206,,0.0,NoAct
1630285400.428,fixation,1,206,0.148,1.0,NoAct
1630285401.78,stimulus,1,207,,0.0,NoAct
1630285402.595,fixation,1,207,0.315,1.0,NoAct
1630285403.78,stimulus,1,208,,0.0,NoAct
1630285404.527,fixation,1,208,0.247,1.0,NoAct
1630285405.78,stimulus,1,209,,0.0,NoAct
1630285406.4459999,fixation,1,209,0.166,1.0,NoAct
1630285407.78,stimulus,1,210,,0.0,NoAct
1630285408.69,fixation,1,210,0.41,1.0,NoAct
1630285409.78,stimulus,1,211,,0.0,NoAct
1630285410.599,fixation,1,211,0.319,1.0,NoAct
1630285411.78,stimulus,1,212,,0.0,NoAct
1630285412.547,fixation,1,212,0.267,1.0,NoAct
1630285413.78,stimulus,1,213,,0.0,NoAct
1630285414.56,fixation,1,213,0.28,1.0,NoAct
1630285415.78,stimulus,1,214,,0.0,NoAct
1630285416.78,fixation,1,214,0.5,1.0,NoAct
1630285417.78,stimulus,1,215,,0.0,NoAct
1630285418.648,fixation,1,215,0.368,1.0,NoAct
1630285419.78,stimulus,1,216,,0.0,NoAct
1630285420.591,fixation,1,216,0.311,1.0,NoAct
1630285421.78,stimulus,1,217,,0.0,NoAct
1630285422.28,fixation,1,217,,0.0,NoAct
1630285423.78,stimulus,1,218,,0.0,NoAct
1630285425.411,fixation,1,218,1.131,1.0,NoAct
1630285425.78,stimulus,1,219,,0.0,NoAct
1630285426.576,fixation,1,219,0.296,1.0,NoAct
1630285427.78,stimulus,1,220,,0.0,NoAct
1630285429.034,fixation,1,220,0.754,1.0,NoAct
1630285429.78,stimulus,1,221,,,NoAct
1630285430.28,fixation,1,221,,,NoAct
1630285431.861,stimulus,1,222,0.081,1.0,NoAct
1630285432.28,fixation,1,222,,0.0,NoAct
1630285433.78,stimulus,1,223,,0.0,NoAct
1630285434.28,fixation,1,223,,0.0,NoAct
1630285435.78,stimulus,1,224,,0.0,NoAct
1630285436.28,fixation,1,224,,0.0,NoAct
1630285437.78,stimulus,1,225,,0.0,NoAct
1630285438.7089999,fixation,1,225,0.429,1.0,NoAct
1630285439.78,stimulus,1,226,,0.0,NoAct
1630285440.699,fixation,1,226,0.419,1.0,NoAct
1630285441.78,stimulus,1,227,,0.0,NoAct
1630285442.757,fixation,1,227,0.477,1.0,NoAct
1630285443.78,stimulus,1,228,,0.0,NoAct
1630285444.872,fixation,1,228,0.592,1.0,NoAct
1630285445.78,stimulus,1,229,,0.0,NoAct
1630285446.701,fixation,1,229,0.421,1.0,NoAct
1630285447.78,stimulus,1,230,,0.0,NoAct
1630285448.9029999,fixation,1,230,0.623,0.0,NoAct
1630285449.78,stimulus,1,231,,0.0,NoAct
1630285450.933,fixation,1,231,0.653,1.0,NoAct
1630285451.78,stimulus,1,232,,0.0,NoAct
1630285452.784,fixation,1,232,0.504,1.0,NoAct
1630285453.78,stimulus,1,233,,0.0,NoAct
1630285454.466,fixation,1,233,0.186,0.0,NoAct
1630285455.78,stimulus,1,234,,0.0,NoAct
1630285456.918,fixation,1,234,0.638,1.0,NoAct
1630285457.78,stimulus,1,235,,0.0,NoAct
1630285458.519,fixation,1,235,0.239,0.0,NoAct
1630285459.78,stimulus,1,236,,0.0,NoAct
1630285460.487,fixation,1,236,0.207,1.0,NoAct
1630285461.78,stimulus,1,237,,0.0,NoAct
1630285462.894,fixation,1,237,0.614,1.0,NoAct
1630285463.78,stimulus,1,238,,0.0,NoAct
1630285464.28,fixation,1,238,,0.0,NoAct
1630285465.856,stimulus,1,239,0.076,0.0,NoAct
1630285467.018,fixation,1,239,0.738,1.0,NoAct
1630285467.78,stimulus,1,240,,0.0,NoAct
1630285468.793,fixation,1,240,0.513,0.0,NoAct
1630285469.78,stimulus,1,241,,0.0,NoAct
1630285470.635,fixation,1,241,0.355,0.0,NoAct
1630285471.78,stimulus,1,242,,0.0,NoAct
1630285472.491,fixation,1,242,0.211,1.0,NoAct
1630285473.78,stimulus,1,243,,0.0,NoAct
1630285474.644,fixation,1,243,0.364,1.0,NoAct
1630285475.78,stimulus,1,244,,0.0,NoAct
1630285476.28,fixation,1,244,,0.0,NoAct
1630285477.78,stimulus,1,245,,0.0,NoAct
1630285478.738,fixation,1,245,0.458,1.0,NoAct
1630285479.78,stimulus,1,246,,0.0,NoAct
1630285480.358,fixation,1,246,0.078,1.0,NoAct
1630285481.78,stimulus,1,247,,0.0,NoAct
1630285482.514,fixation,1,247,0.234,1.0,NoAct
1630285483.78,stimulus,1,248,,0.0,NoAct
1630285484.45,fixation,1,248,0.17,1.0,NoAct
1630285485.78,stimulus,1,249,,0.0,NoAct
1630285486.36,fixation,1,249,0.08,1.0,NoAct
1630285487.78,stimulus,1,250,,0.0,NoAct
1630285488.424,fixation,1,250,0.144,1.0,NoAct
1630285489.78,stimulus,1,251,,0.0,NoAct
1630285490.429,fixation,1,251,0.149,1.0,NoAct
1630285491.78,stimulus,1,252,,0.0,NoAct
1630285492.559,fixation,1,252,0.279,1.0,NoAct
1630285493.78,stimulus,1,253,,0.0,NoAct
1630285494.415,fixation,1,253,0.135,1.0,NoAct
1630285495.78,stimulus,1,254,,0.0,NoAct
1630285496.496,fixation,1,254,0.216,1.0,NoAct
1630285497.78,stimulus,1,255,,0.0,NoAct
1630285498.669,fixation,1,255,0.389,1.0,NoAct
1630285499.78,stimulus,1,256,,0.0,NoAct
1630285500.646,fixation,1,256,0.366,1.0,NoAct
1630285501.78,stimulus,1,257,,0.0,NoAct
1630285502.514,fixation,1,257,0.234,1.0,NoAct
1630285503.78,stimulus,1,258,,0.0,NoAct
1630285504.712,fixation,1,258,0.432,1.0,NoAct
1630285505.78,stimulus,1,259,,0.0,NoAct
1630285506.808,fixation,1,259,0.528,1.0,NoAct
1630285507.78,stimulus,1,260,,0.0,NoAct
1630285508.361,fixation,1,260,0.081,1.0,NoAct
1630285509.78,stimulus,1,261,,0.0,NoAct
1630285510.329,fixation,1,261,0.049,1.0,NoAct
1630285511.78,stimulus,1,262,,0.0,NoAct
1630285512.434,fixation,1,262,0.154,1.0,NoAct
1630285513.78,stimulus,1,263,,0.0,NoAct
1630285514.362,fixation,1,263,0.082,1.0,NoAct
1630285515.78,stimulus,1,264,,0.0,NoAct
1630285516.59,fixation,1,264,0.31,1.0,NoAct
1630285517.78,stimulus,1,265,,0.0,NoAct
1630285518.369,fixation,1,265,0.089,1.0,NoAct
1630285519.78,stimulus,1,266,,0.0,NoAct
1630285520.28,fixation,1,266,,0.0,NoAct
1630285521.78,stimulus,1,267,,0.0,NoAct
1630285522.649,fixation,1,267,0.369,1.0,NoAct
1630285523.78,stimulus,1,268,,0.0,NoAct
1630285524.343,fixation,1,268,0.063,1.0,NoAct
1630285525.78,stimulus,1,269,,0.0,NoAct
1630285526.499,fixation,1,269,0.219,1.0,NoAct
1630285527.78,stimulus,1,270,,0.0,NoAct
1630285528.409,fixation,1,270,0.129,1.0,NoAct
1630285529.78,stimulus,1,271,,0.0,NoAct
1630285530.574,fixation,1,271,0.294,1.0,NoAct
1630285531.78,stimulus,1,272,,0.0,NoAct
1630285532.4129999,fixation,1,272,0.133,1.0,NoAct
1630285533.78,stimulus,1,273,,0.0,NoAct
1630285534.47,fixation,1,273,0.19,1.0,NoAct
1630285535.78,stimulus,1,274,,0.0,NoAct
1630285536.523,fixation,1,274,0.243,1.0,NoAct
1630285537.78,stimulus,1,275,,0.0,NoAct
1630285538.438,fixation,1,275,0.158,0.0,NoAct
1630285539.78,stimulus,1,276,,0.0,NoAct
1630285540.481,fixation,1,276,0.201,1.0,NoAct
1630285541.78,stimulus,1,277,,0.0,NoAct
1630285542.5379999,fixation,1,277,0.258,1.0,NoAct
1630285543.78,stimulus,1,278,,0.0,NoAct
1630285544.665,fixation,1,278,0.385,1.0,NoAct
1630285545.78,stimulus,1,279,,0.0,NoAct
1630285546.999,fixation,1,279,0.719,1.0,NoAct
1630285547.78,stimulus,1,280,,0.0,NoAct
1630285548.543,fixation,1,280,0.263,1.0,NoAct
1630285549.78,stimulus,1,281,,0.0,NoAct
1630285550.376,fixation,1,281,0.096,1.0,NoAct
1630285551.78,stimulus,1,282,,0.0,NoAct
1630285552.417,fixation,1,282,0.137,1.0,NoAct
1630285553.78,stimulus,1,283,,0.0,NoAct
1630285554.295,fixation,1,283,0.015,1.0,NoAct
1630285555.78,stimulus,1,284,,0.0,NoAct
1630285556.312,fixation,1,284,0.032,1.0,NoAct
1630285557.78,stimulus,1,285,,0.0,NoAct
1630285558.306,fixation,1,285,0.026,1.0,NoAct
1630285559.78,stimulus,1,286,,0.0,NoAct
1630285560.6039999,fixation,1,286,0.324,1.0,NoAct
1630285561.78,stimulus,1,287,,0.0,NoAct
1630285562.398,fixation,1,287,0.118,1.0,NoAct
1630285563.78,stimulus,1,288,,0.0,NoAct
1630285564.28,fixation,1,288,,0.0,NoAct
1630285565.78,stimulus,1,289,,0.0,NoAct
1630285566.954,fixation,1,289,0.674,1.0,NoAct
1630285567.78,stimulus,1,290,,0.0,NoAct
1630285568.28,fixation,1,290,,0.0,NoAct
1630285569.78,stimulus,1,291,,0.0,NoAct
1630285570.547,fixation,1,291,0.267,1.0,NoAct
1630285571.78,stimulus,1,292,,0.0,NoAct
1630285572.439,fixation,1,292,0.159,1.0,NoAct
1630285573.78,stimulus,1,293,,0.0,NoAct
1630285574.6069999,fixation,1,293,0.327,1.0,NoAct
1630285575.78,stimulus,1,294,,0.0,NoAct
1630285576.976,fixation,1,294,0.696,1.0,NoAct
1630285577.78,stimulus,1,295,,0.0,NoAct
1630285578.433,fixation,1,295,0.153,0.0,NoAct
1630285579.78,stimulus,1,296,,0.0,NoAct
1630285580.464,fixation,1,296,0.184,1.0,NoAct
1630285581.78,stimulus,1,297,,0.0,NoAct
1630285582.93,fixation,1,297,0.65,1.0,NoAct
1630285583.78,stimulus,1,298,,0.0,NoAct
1630285584.568,fixation,1,298,0.288,1.0,NoAct
1630285585.78,stimulus,1,299,,0.0,NoAct
1630285586.474,fixation,1,299,0.194,1.0,NoAct
1630285587.78,stimulus,1,300,,0.0,NoAct
1630285588.94,fixation,1,300,0.66,1.0,NoAct
1630285589.78,stimulus,1,301,,0.0,NoAct
1630285590.564,fixation,1,301,0.284,1.0,NoAct
1630285591.78,stimulus,1,302,,0.0,NoAct
1630285592.92,fixation,1,302,0.64,1.0,NoAct
1630285593.78,stimulus,1,303,,0.0,NoAct
1630285594.763,fixation,1,303,0.483,1.0,NoAct
1630285595.78,stimulus,1,304,,0.0,NoAct
1630285596.285,fixation,1,304,0.005,1.0,NoAct
1630285597.78,stimulus,1,305,,0.0,NoAct
1630285598.841,fixation,1,305,0.561,1.0,NoAct
1630285599.78,stimulus,1,306,,0.0,NoAct
1630285600.581,fixation,1,306,0.301,1.0,NoAct
1630285601.78,stimulus,1,307,,0.0,NoAct
1630285602.56,fixation,1,307,0.28,1.0,NoAct
1630285603.78,stimulus,1,308,,0.0,NoAct
1630285605.075,fixation,1,308,0.795,1.0,NoAct
1630285605.78,stimulus,1,309,,0.0,NoAct
1630285606.621,fixation,1,309,0.341,1.0,NoAct
1630285607.78,stimulus,1,310,,0.0,NoAct
1630285608.28,fixation,1,310,,0.0,NoAct
1630285609.78,stimulus,1,311,,0.0,NoAct
1630285610.28,fixation,1,311,,0.0,NoAct
1630285611.78,stimulus,1,312,,0.0,NoAct
1630285612.28,fixation,1,312,,0.0,NoAct
1630285613.78,stimulus,1,313,,0.0,NoAct
1630285614.576,fixation,1,313,0.296,1.0,NoAct
1630285615.78,stimulus,1,314,,0.0,NoAct
1630285616.461,fixation,1,314,0.181,1.0,NoAct
1630285617.78,stimulus,1,315,,0.0,NoAct
1630285618.578,fixation,1,315,0.298,1.0,NoAct
1630285619.78,stimulus,1,316,,0.0,NoAct
1630285620.768,fixation,1,316,0.488,1.0,NoAct
1630285621.78,stimulus,1,317,,0.0,NoAct
1630285622.616,fixation,1,317,0.336,1.0,NoAct
1630285623.78,stimulus,1,318,,0.0,NoAct
1630285624.497,fixation,1,318,0.217,1.0,NoAct
1630285625.78,stimulus,1,319,,0.0,NoAct
1630285626.541,fixation,1,319,0.261,0.0,NoAct
1630285627.78,stimulus,1,320,,0.0,NoAct
1630285628.644,fixation,1,320,0.364,1.0,NoAct
1630285629.78,stimulus,1,321,,0.0,NoAct
1630285630.519,fixation,1,321,0.239,1.0,NoAct
1630285631.78,stimulus,1,322,,0.0,NoAct
1630285632.499,fixation,1,322,0.219,1.0,NoAct
1630285633.78,stimulus,1,323,,0.0,NoAct
1630285634.557,fixation,1,323,0.277,1.0,NoAct
1630285635.78,stimulus,1,324,,0.0,NoAct
1630285636.917,fixation,1,324,0.637,1.0,NoAct
1630285637.78,stimulus,1,325,,0.0,NoAct
1630285638.679,fixation,1,325,0.399,1.0,NoAct
1630285639.78,stimulus,1,326,,0.0,NoAct
1630285640.618,fixation,1,326,0.338,1.0,NoAct
1630285641.78,stimulus,1,327,,0.0,NoAct
1630285642.53,fixation,1,327,0.25,1.0,NoAct
1630285643.78,stimulus,1,328,,0.0,NoAct
1630285644.466,fixation,1,328,0.186,1.0,NoAct
1630285645.78,stimulus,1,329,,0.0,NoAct
1630285646.566,fixation,1,329,0.286,1.0,NoAct
1630285647.78,stimulus,1,330,,0.0,NoAct
1630285648.7649999,fixation,1,330,0.485,1.0,NoAct
1630285649.78,stimulus,1,331,,0.0,NoAct
1630285650.7879999,fixation,1,331,0.508,1.0,NoAct
1630285651.78,stimulus,1,332,,0.0,NoAct
1630285652.28,fixation,1,332,,0.0,NoAct
1630285653.78,stimulus,1,333,,0.0,NoAct
1630285654.536,fixation,1,333,0.256,1.0,NoAct
1630285655.78,stimulus,1,334,,0.0,NoAct
1630285656.33,fixation,1,334,0.05,1.0,NoAct
1630285657.78,stimulus,1,335,,0.0,NoAct
1630285658.369,fixation,1,335,0.089,1.0,NoAct
1630285659.78,stimulus,1,336,,0.0,NoAct
1630285660.483,fixation,1,336,0.203,1.0,NoAct
1630285662.271,stimulus,1,337,0.491,1.0,NoAct
1630285662.28,fixation,1,337,,0.0,NoAct
1630285663.78,stimulus,1,338,,0.0,NoAct
1630285664.41,fixation,1,338,0.13,1.0,NoAct
1630285665.78,stimulus,1,339,,0.0,NoAct
1630285666.567,fixation,1,339,0.287,0.0,NoAct
1630285667.78,stimulus,1,340,,0.0,NoAct
1630285668.345,fixation,1,340,0.065,1.0,NoAct
1630285669.78,stimulus,1,341,,0.0,NoAct
1630285670.364,fixation,1,341,0.084,1.0,NoAct
1630285671.78,stimulus,1,342,,0.0,NoAct
1630285672.411,fixation,1,342,0.131,1.0,NoAct
1630285673.78,stimulus,1,343,,0.0,NoAct
1630285674.51,fixation,1,343,0.23,1.0,NoAct
1630285675.78,stimulus,1,344,,0.0,NoAct
1630285676.61,fixation,1,344,0.33,1.0,NoAct
1630285677.78,stimulus,1,345,,0.0,NoAct
1630285678.373,fixation,1,345,0.093,1.0,NoAct
1630285679.78,stimulus,1,346,,0.0,NoAct
1630285680.534,fixation,1,346,0.254,1.0,NoAct
1630285681.78,stimulus,1,347,,0.0,NoAct
1630285682.339,fixation,1,347,0.059,1.0,NoAct
1630285683.78,stimulus,1,348,,0.0,NoAct
1630285684.363,fixation,1,348,0.083,1.0,NoAct
1630285685.78,stimulus,1,349,,0.0,NoAct
1630285686.389,fixation,1,349,0.109,1.0,NoAct
1630285687.78,stimulus,1,350,,0.0,NoAct
1630285688.488,fixation,1,350,0.208,1.0,NoAct
1630285689.78,stimulus,1,351,,0.0,NoAct
1630285690.335,fixation,1,351,0.055,1.0,NoAct
1630285691.78,stimulus,1,352,,0.0,NoAct
1630285692.4259999,fixation,1,352,0.146,1.0,NoAct
1630285693.78,stimulus,1,353,,0.0,NoAct
1630285694.3899999,fixation,1,353,0.11,1.0,NoAct
1630285695.78,stimulus,1,354,,0.0,NoAct
1630285696.28,fixation,1,354,,0.0,NoAct
1630285697.78,stimulus,1,355,,0.0,NoAct
1630285698.28,fixation,1,355,,0.0,NoAct
1630285699.78,stimulus,1,356,,0.0,NoAct
1630285700.28,fixation,1,356,,0.0,NoAct
1630285701.78,stimulus,1,357,,0.0,NoAct
1630285702.543,fixation,1,357,0.263,1.0,NoAct
1630285703.78,stimulus,1,358,,0.0,NoAct
1630285704.473,fixation,1,358,0.193,1.0,NoAct
1630285705.78,stimulus,1,359,,0.0,NoAct
1630285707.216,fixation,1,359,0.936,1.0,NoAct
1630285707.78,stimulus,1,360,,0.0,NoAct
1630285708.4689999,fixation,1,360,0.189,1.0,NoAct
1630285710.257,stimulus,1,361,0.477,1.0,NoAct
1630285710.28,fixation,1,361,,0.0,NoAct
1630285711.78,stimulus,1,362,,0.0,NoAct
1630285712.338,fixation,1,362,0.058,1.0,NoAct
1630285713.78,stimulus,1,363,,0.0,NoAct
1630285714.444,fixation,1,363,0.164,1.0,NoAct
1630285715.78,stimulus,1,364,,0.0,NoAct
1630285716.417,fixation,1,364,0.137,0.0,NoAct
1630285717.78,stimulus,1,365,,0.0,NoAct
1630285718.56,fixation,1,365,0.28,1.0,NoAct
1630285719.78,stimulus,1,366,,0.0,NoAct
1630285720.488,fixation,1,366,0.208,1.0,NoAct
1630285721.78,stimulus,1,367,,0.0,NoAct
1630285722.55,fixation,1,367,0.27,1.0,NoAct
1630285723.78,stimulus,1,368,,0.0,NoAct
1630285724.481,fixation,1,368,0.201,1.0,NoAct
1630285725.78,stimulus,1,369,,0.0,NoAct
1630285726.654,fixation,1,369,0.374,1.0,NoAct
1630285727.78,stimulus,1,370,,0.0,NoAct
1630285728.6729999,fixation,1,370,0.393,1.0,NoAct
1630285729.78,stimulus,1,371,,0.0,NoAct
1630285730.47,fixation,1,371,0.19,1.0,NoAct
1630285731.78,stimulus,1,372,,0.0,NoAct
1630285732.739,fixation,1,372,0.459,0.0,NoAct
1630285733.78,stimulus,1,373,,0.0,NoAct
1630285734.408,fixation,1,373,0.128,1.0,NoAct
1630285735.78,stimulus,1,374,,0.0,NoAct
1630285736.885,fixation,1,374,0.605,1.0,NoAct
1630285737.78,stimulus,1,375,,0.0,NoAct
1630285738.46,fixation,1,375,0.18,1.0,NoAct
1630285739.78,stimulus,1,376,,0.0,NoAct
1630285740.28,fixation,1,376,,0.0,NoAct
1630285741.78,stimulus,1,377,,0.0,NoAct
1630285742.645,fixation,1,377,0.365,1.0,NoAct
1630285743.78,stimulus,1,378,,0.0,NoAct
1630285744.37,fixation,1,378,0.09,1.0,NoAct
1630285745.78,stimulus,1,379,,0.0,NoAct
1630285746.472,fixation,1,379,0.192,1.0,NoAct
1630285747.78,stimulus,1,380,,0.0,NoAct
1630285748.28,fixation,1,380,,0.0,NoAct
1630285749.78,stimulus,1,381,,0.0,NoAct
1630285750.512,fixation,1,381,0.232,1.0,NoAct
1630285752.253,stimulus,1,382,0.473,0.0,NoAct
1630285752.603,fixation,1,382,0.323,1.0,NoAct
1630285753.78,stimulus,1,383,,0.0,NoAct
1630285754.504,fixation,1,383,0.224,1.0,NoAct
1630285755.78,stimulus,1,384,,0.0,NoAct
1630285756.988,fixation,1,384,0.708,1.0,NoAct
1630285757.78,stimulus,1,385,,0.0,NoAct
1630285758.863,fixation,1,385,0.583,1.0,NoAct
1630285759.78,stimulus,1,386,,0.0,NoAct
1630285760.435,fixation,1,386,0.155,1.0,NoAct
1630285761.78,stimulus,1,387,,0.0,NoAct
1630285762.517,fixation,1,387,0.237,1.0,NoAct
1630285763.78,stimulus,1,388,,0.0,NoAct
1630285764.425,fixation,1,388,0.145,1.0,NoAct
1630285765.78,stimulus,1,389,,0.0,NoAct
1630285766.28,fixation,1,389,,0.0,NoAct
1630285767.78,stimulus,1,390,,0.0,NoAct
1630285768.499,fixation,1,390,0.219,1.0,NoAct
1630285769.78,stimulus,1,391,,0.0,NoAct
1630285771.395,fixation,1,391,1.115,1.0,NoAct
1630285771.78,stimulus,1,392,,0.0,NoAct
1630285772.671,fixation,1,392,0.391,1.0,NoAct
1630285773.78,stimulus,1,393,,0.0,NoAct
1630285774.399,fixation,1,393,0.119,1.0,NoAct
1630285776.247,stimulus,1,394,0.467,1.0,NoAct
1630285776.28,fixation,1,394,,0.0,NoAct
1630285777.78,stimulus,1,395,,0.0,NoAct
1630285778.363,fixation,1,395,0.083,1.0,NoAct
1630285779.78,stimulus,1,396,,0.0,NoAct
1630285780.353,fixation,1,396,0.073,1.0,NoAct
1630285781.78,stimulus,1,397,,0.0,NoAct
1630285782.42,fixation,1,397,0.14,1.0,NoAct
1630285783.78,stimulus,1,398,,,PerfumeSession
1630285784.28,fixation,1,398,,,PerfumeSession
1630285785.78,stimulus,1,399,,,PerfumeSession
1630285786.28,fixation,1,399,,,PerfumeSession
1630285787.78,stimulus,1,400,,,PerfumeSession
1630285788.28,fixation,1,400,,,PerfumeSession
1630285789.78,stimulus,1,401,,,PerfumeSession
1630285790.28,fixation,1,401,,,PerfumeSession
1630285791.78,stimulus,1,402,,,PerfumeSession
1630285792.28,fixation,1,402,,,PerfumeSession
1630285793.78,stimulus,1,403,,,PerfumeSession
1630285794.28,fixation,1,403,,,PerfumeSession
1630285795.78,stimulus,1,404,,,PerfumeSession
1630285796.28,fixation,1,404,,,PerfumeSession
1630285797.78,stimulus,1,405,,,PerfumeSession
1630285798.28,fixation,1,405,,,PerfumeSession
1630285799.78,stimulus,1,406,,,PerfumeSession
1630285800.28,fixation,1,406,,,PerfumeSession
1630285801.78,stimulus,1,407,,,PerfumeSession
1630285802.28,fixation,1,407,,,PerfumeSession
1630285803.78,stimulus,1,408,,,PerfumeSession
1630285804.28,fixation,1,408,,,PerfumeSession
1630285805.78,stimulus,1,409,,,PerfumeSession
1630285806.28,fixation,1,409,,,PerfumeSession
1630285807.78,stimulus,1,410,,,PerfumeSession
1630285808.28,fixation,1,410,,,PerfumeSession
1630285809.78,stimulus,1,411,,,PerfumeSession
1630285810.28,fixation,1,411,,,PerfumeSession
1630285811.78,stimulus,1,412,,,PerfumeSession
1630285812.28,fixation,1,412,,,PerfumeSession
1630285813.78,stimulus,1,413,,,PerfumeSession
1630285814.28,fixation,1,413,,,PerfumeSession
1630285815.78,stimulus,1,414,,,PerfumeSession
1630285816.28,fixation,1,414,,,PerfumeSession
1630285817.78,stimulus,1,415,,,PerfumeSession
1630285818.28,fixation,1,415,,,PerfumeSession
1630285819.78,stimulus,1,416,,,PerfumeSession
1630285820.28,fixation,1,416,,,PerfumeSession
1630285821.78,stimulus,1,417,,,PerfumeSession
1630285822.28,fixation,1,417,,,PerfumeSession
1630285823.78,stimulus,1,418,,,PerfumeSession
1630285824.28,fixation,1,418,,,PerfumeSession
1630285825.78,stimulus,1,419,,,PerfumeSession
1630285826.28,fixation,1,419,,,PerfumeSession
1630285827.78,stimulus,1,420,,,PerfumeSession
1630285828.28,fixation,1,420,,,PerfumeSession
1630285829.78,stimulus,1,421,,,PerfumeSession
1630285830.28,fixation,1,421,,,PerfumeSession
1630285831.78,stimulus,1,422,,,PerfumeSession
1630285832.28,fixation,1,422,,,PerfumeSession
1630285833.78,stimulus,1,423,,,PerfumeSession
1630285834.28,fixation,1,423,,,PerfumeSession
1630285835.78,stimulus,1,424,,,PerfumeSession
1630285836.28,fixation,1,424,,,PerfumeSession
1630285837.78,stimulus,1,425,,,PerfumeSession
1630285838.28,fixation,1,425,,,PerfumeSession
1630285839.78,stimulus,1,426,,,PerfumeSession
1630285840.28,fixation,1,426,,,PerfumeSession
1630285841.78,stimulus,1,427,,,PerfumeSession
1630285842.28,fixation,1,427,,,PerfumeSession
1630285843.78,stimulus,1,428,,,PerfumeSession
1630285844.28,fixation,1,428,,,PerfumeSession
1630285845.78,stimulus,1,429,,,PerfumeSession
1630285846.28,fixation,1,429,,,PerfumeSession
1630285847.78,stimulus,1,430,,,PerfumeSession
1630285848.28,fixation,1,430,,,PerfumeSession
1630285849.78,stimulus,1,431,,,PerfumeSession
1630285850.28,fixation,1,431,,,PerfumeSession
1630285851.78,stimulus,1,432,,,PerfumeSession
1630285852.28,fixation,1,432,,,PerfumeSession
1630285853.78,stimulus,1,433,,,PerfumeSession
1630285854.28,fixation,1,433,,,PerfumeSession
1630285855.78,stimulus,1,434,,,PerfumeSession
1630285856.28,fixation,1,434,,,PerfumeSession
1630285857.78,stimulus,1,435,,,PerfumeSession
1630285858.28,fixation,1,435,,,PerfumeSession
1630285859.78,stimulus,1,436,,,PerfumeSession
1630285860.28,fixation,1,436,,,PerfumeSession
1630285861.78,stimulus,1,437,,,PerfumeSession
1630285862.28,fixation,1,437,,,PerfumeSession
1630285863.78,stimulus,1,438,,,PerfumeSession
1630285864.28,fixation,1,438,,,PerfumeSession
1630285865.78,stimulus,1,439,,,PerfumeSession
1630285866.28,fixation,1,439,,,PerfumeSession
1630285867.78,stimulus,1,440,,,PerfumeSession
1630285868.28,fixation,1,440,,,PerfumeSession
1630285869.78,stimulus,1,441,,,PerfumeSession
1630285870.28,fixation,1,441,,,PerfumeSession
1630285871.78,stimulus,1,442,,,PerfumeSession
1630285872.28,fixation,1,442,,,PerfumeSession
1630285873.78,stimulus,1,443,,,PerfumeSession
1630285874.28,fixation,1,443,,,PerfumeSession
1630285875.78,stimulus,1,444,,,PerfumeSession
1630285876.28,fixation,1,444,,,PerfumeSession
1630285877.78,stimulus,1,445,,,PerfumeSession
1630285878.28,fixation,1,445,,,PerfumeSession
1630285879.78,stimulus,1,446,,,PerfumeSession
1630285880.28,fixation,1,446,,,PerfumeSession
1630285881.78,stimulus,1,447,,,PerfumeSession
1630285882.28,fixation,1,447,,,PerfumeSession
1630285883.78,stimulus,1,448,,,PerfumeSession
1630285884.28,fixation,1,448,,,PerfumeSession
1630285885.78,stimulus,1,449,,,PerfumeSession
1630285886.28,fixation,1,449,,,PerfumeSession
1630285887.78,stimulus,1,450,,,PerfumeSession
1630285888.28,fixation,1,450,,,PerfumeSession
1630285889.78,stimulus,1,451,,,PerfumeSession
1630285890.28,fixation,1,451,,,PerfumeSession
1630285891.78,stimulus,1,452,,,PerfumeSession
1630285892.28,fixation,1,452,,,PerfumeSession
1630285893.78,stimulus,1,453,,,PerfumeSession
1630285894.28,fixation,1,453,,,PerfumeSession
1630285895.78,stimulus,1,454,,,PerfumeSession
1630285896.28,fixation,1,454,,,PerfumeSession
1630285897.78,stimulus,1,455,,,PerfumeSession
1630285898.28,fixation,1,455,,,PerfumeSession
1630285899.78,stimulus,1,456,,,PerfumeSession
1630285900.28,fixation,1,456,,,PerfumeSession
1630285901.78,stimulus,1,457,,,PerfumeSession
1630285902.28,fixation,1,457,,,PerfumeSession
1630285903.78,stimulus,1,458,,,PerfumeSession
1630285904.28,fixation,1,458,,,PerfumeSession
1630285905.78,stimulus,1,459,,,PerfumeSession
1630285906.28,fixation,1,459,,,PerfumeSession
1630285907.78,stimulus,1,460,,,PerfumeSession
1630285908.28,fixation,1,460,,,PerfumeSession
1630285909.78,stimulus,1,461,,,PerfumeSession
1630285910.28,fixation,1,461,,,PerfumeSession
1630285911.78,stimulus,1,462,,,PerfumeSession
1630285912.28,fixation,1,462,,,PerfumeSession
1630285913.78,stimulus,1,463,,,PerfumeSession
1630285914.28,fixation,1,463,,,PerfumeSession
1630285915.78,stimulus,1,464,,,PerfumeSession
1630285916.28,fixation,1,464,,,PerfumeSession
1630285917.78,stimulus,1,465,,,PerfumeSession
1630285918.28,fixation,1,465,,,PerfumeSession
1630285919.78,stimulus,1,466,,,PerfumeSession
1630285920.28,fixation,1,466,,,PerfumeSession
1630285921.78,stimulus,1,467,,,PerfumeSession
1630285922.28,fixation,1,467,,,PerfumeSession
1630285923.78,stimulus,1,468,,,PerfumeSession
1630285924.28,fixation,1,468,,,PerfumeSession
1630285925.78,stimulus,1,469,,,PerfumeSession
1630285926.28,fixation,1,469,,,PerfumeSession
1630285927.78,stimulus,1,470,,,PerfumeSession
1630285928.28,fixation,1,470,,,PerfumeSession
1630285929.78,stimulus,1,471,,,PerfumeSession
1630285930.28,fixation,1,471,,,PerfumeSession
1630285931.78,stimulus,1,472,,,PerfumeSession
1630285932.28,fixation,1,472,,,PerfumeSession
1630285933.78,stimulus,1,473,,,PerfumeSession
1630285934.28,fixation,1,473,,,PerfumeSession
1630285935.78,stimulus,1,474,,,PerfumeSession
1630285936.28,fixation,1,474,,,PerfumeSession
1630285937.78,stimulus,1,475,,,PerfumeSession
1630285938.28,fixation,1,475,,,PerfumeSession
1630285939.78,stimulus,1,476,,,PerfumeSession
1630285940.28,fixation,1,476,,,PerfumeSession
1630285941.78,stimulus,1,477,,,PerfumeSession
1630285942.28,fixation,1,477,,,PerfumeSession
1630285943.78,stimulus,1,478,,,PerfumeSession
1630285944.28,fixation,1,478,,,PerfumeSession
1630285945.78,stimulus,1,479,,,PerfumeSession
1630285946.28,fixation,1,479,,,PerfumeSession
1630285947.78,stimulus,1,480,,,PerfumeSession
1630285948.28,fixation,1,480,,,PerfumeSession
1630285949.78,stimulus,1,481,,,PerfumeSession
1630285950.28,fixation,1,481,,,PerfumeSession
1630285951.78,stimulus,1,482,,,PerfumeSession
1630285952.28,fixation,1,482,,,PerfumeSession
1630285953.78,stimulus,1,483,,,PerfumeSession
1630285954.28,fixation,1,483,,,PerfumeSession
1630285955.78,stimulus,1,484,,,PerfumeSession
1630285956.28,fixation,1,484,,,PerfumeSession
1630285957.78,stimulus,1,485,,,PerfumeSession
1630285958.28,fixation,1,485,,,PerfumeSession
1630285959.78,stimulus,1,486,,,PerfumeSession
1630285960.28,fixation,1,486,,,PerfumeSession
1630285961.78,stimulus,1,487,,,PerfumeSession
1630285962.28,fixation,1,487,,,PerfumeSession
1630285963.78,stimulus,1,488,,,PerfumeSession
1630285964.28,fixation,1,488,,,PerfumeSession
1630285965.78,stimulus,1,489,,,PerfumeSession
1630285966.28,fixation,1,489,,,PerfumeSession
1630285967.78,stimulus,1,490,,,PerfumeSession
1630285968.28,fixation,1,490,,,PerfumeSession
1630285969.78,stimulus,1,491,,,PerfumeSession
1630285970.28,fixation,1,491,,,PerfumeSession
1630285970.31,stimulus,2,1,,,PracticeSession
1630285970.81,fixation,2,1,,,PracticeSession
1630285971.78,stimulus,1,492,,,PerfumeSession
1630285972.28,fixation,1,492,,,PerfumeSession
1630285972.31,stimulus,2,2,,,PracticeSession
1630285972.81,fixation,2,2,,,PracticeSession
1630285973.78,stimulus,1,493,,,PerfumeSession
1630285974.28,fixation,1,493,,,PerfumeSession
1630285974.31,stimulus,2,3,,,PracticeSession
1630285974.81,fixation,2,3,,,PracticeSession
1630285975.78,stimulus,1,494,,,PerfumeSession
1630285976.28,fixation,1,494,,,PerfumeSession
1630285976.31,stimulus,2,4,,,PracticeSession
1630285976.81,fixation,2,4,,,PracticeSession
1630285977.78,stimulus,1,495,,,PerfumeSession
1630285978.28,fixation,1,495,,,PerfumeSession
1630285978.31,stimulus,2,5,,,PracticeSession
1630285978.81,fixation,2,5,,,PracticeSession
1630285979.78,stimulus,1,496,,,PerfumeSession
1630285980.28,fixation,1,496,,,PerfumeSession
1630285980.31,stimulus,2,6,,,PracticeSession
1630285980.81,fixation,2,6,,,PracticeSession
1630285981.78,stimulus,1,497,,,PerfumeSession
1630285982.28,fixation,1,497,,,PerfumeSession
1630285982.31,stimulus,2,7,,,PracticeSession
1630285982.81,fixation,2,7,,,PracticeSession
1630285983.78,stimulus,1,498,,,PerfumeSession
1630285984.28,fixation,1,498,,,PerfumeSession
1630285984.31,stimulus,2,8,,,PracticeSession
1630285984.81,fixation,2,8,,,PracticeSession
1630285985.78,stimulus,1,499,,,PerfumeSession
1630285986.28,fixation,1,499,,,PerfumeSession
1630285986.31,stimulus,2,9,,,PracticeSession
1630285986.81,fixation,2,9,,,PracticeSession
1630285987.78,stimulus,1,500,,,PerfumeSession
1630285988.28,fixation,1,500,,,PerfumeSession
1630285988.31,stimulus,2,10,,,PracticeSession
1630285988.81,fixation,2,10,,,PracticeSession
1630285989.78,stimulus,1,501,,,PerfumeSession
1630285990.28,fixation,1,501,,,PerfumeSession
1630285990.31,stimulus,2,11,,,PracticeSession
1630285990.81,fixation,2,11,,,PracticeSession
1630285991.78,stimulus,1,502,,,PerfumeSession
1630285992.28,fixation,1,502,,,PerfumeSession
1630285992.31,stimulus,2,12,,,PracticeSession
1630285992.81,fixation,2,12,,,PracticeSession
1630285993.78,stimulus,1,503,,,PerfumeSession
1630285994.28,fixation,1,503,,,PerfumeSession
1630285994.31,stimulus,2,13,,,PracticeSession
1630285994.81,fixation,2,13,,,PracticeSession
1630285995.78,stimulus,1,504,,,PerfumeSession
1630285996.28,fixation,1,504,,,PerfumeSession
1630285996.31,stimulus,2,14,,,PracticeSession
1630285996.81,fixation,2,14,,,PracticeSession
1630285997.78,stimulus,1,505,,,PerfumeSession
1630285998.28,fixation,1,505,,,PerfumeSession
1630285998.31,stimulus,2,15,,,PracticeSession
1630285998.81,fixation,2,15,,,PracticeSession
1630285999.78,stimulus,1,506,,,PerfumeSession
1630286000.28,fixation,1,506,,,PerfumeSession
1630286000.31,stimulus,2,16,,,PracticeSession
1630286000.81,fixation,2,16,,,PracticeSession
1630286001.78,stimulus,1,507,,,PerfumeSession
1630286002.28,fixation,1,507,,,PerfumeSession
1630286002.31,stimulus,2,17,,,PracticeSession
1630286002.81,fixation,2,17,,,PracticeSession
1630286003.78,stimulus,1,508,,,PerfumeSession
1630286004.28,fixation,1,508,,,PerfumeSession
1630286004.31,stimulus,2,18,,,PracticeSession
1630286004.81,fixation,2,18,,,PracticeSession
1630286005.78,stimulus,1,509,,,PerfumeSession
1630286006.28,fixation,1,509,,,PerfumeSession
1630286006.31,stimulus,2,19,,,PracticeSession
1630286006.81,fixation,2,19,,,PracticeSession
1630286007.78,stimulus,1,510,,,PerfumeSession
1630286008.28,fixation,1,510,,,PerfumeSession
1630286008.31,stimulus,2,20,,,PracticeSession
1630286008.81,fixation,2,20,,,PracticeSession
1630286009.78,stimulus,1,511,,,PerfumeSession
1630286010.28,fixation,1,511,,,PerfumeSession
1630286010.31,stimulus,2,21,,,PracticeSession
1630286010.81,fixation,2,21,,,PracticeSession
1630286011.78,stimulus,1,512,,,PerfumeSession
1630286012.28,fixation,1,512,,,PerfumeSession
1630286012.31,stimulus,2,22,,,PracticeSession
1630286012.81,fixation,2,22,,,PracticeSession
1630286013.78,stimulus,1,513,,,PerfumeSession
1630286014.28,fixation,1,513,,,PerfumeSession
1630286014.31,stimulus,2,23,,,PracticeSession
1630286014.81,fixation,2,23,,,PracticeSession
1630286015.78,stimulus,1,514,,,PerfumeSession
1630286016.28,fixation,1,514,,,PerfumeSession
1630286016.31,stimulus,2,24,,,PracticeSession
1630286016.81,fixation,2,24,,,PracticeSession
1630286017.78,stimulus,1,515,,,PerfumeSession
1630286018.28,fixation,1,515,,,PerfumeSession
1630286018.31,stimulus,2,25,,,PracticeSession
1630286018.81,fixation,2,25,,,PracticeSession
1630286019.78,stimulus,1,516,,,PerfumeSession
1630286020.28,fixation,1,516,,,PerfumeSession
1630286020.31,stimulus,2,26,,,PracticeSession
1630286020.81,fixation,2,26,,,PracticeSession
1630286021.78,stimulus,1,517,,,PerfumeSession
1630286022.28,fixation,1,517,,,PerfumeSession
1630286022.31,stimulus,2,27,,,PracticeSession
1630286022.81,fixation,2,27,,,PracticeSession
1630286023.78,stimulus,1,518,,,PerfumeSession
1630286024.28,fixation,1,518,,,PerfumeSession
1630286024.31,stimulus,2,28,,,PracticeSession
1630286024.81,fixation,2,28,,,PracticeSession
1630286025.78,stimulus,1,519,,,PerfumeSession
1630286026.28,fixation,1,519,,,PerfumeSession
1630286026.31,stimulus,2,29,,,PracticeSession
1630286026.81,fixation,2,29,,,PracticeSession
1630286027.78,stimulus,1,520,,,PerfumeSession
1630286028.28,fixation,1,520,,,PerfumeSession
1630286028.31,stimulus,2,30,,,PracticeSession
1630286028.81,fixation,2,30,,,PracticeSession
1630286029.78,stimulus,1,521,,,PerfumeSession
1630286030.28,fixation,1,521,,,PerfumeSession
1630286030.31,stimulus,2,31,,,PracticeSession
1630286030.81,fixation,2,31,,,PracticeSession
1630286031.78,stimulus,1,522,,,PerfumeSession
1630286032.28,fixation,1,522,,,PerfumeSession
1630286032.31,stimulus,2,32,,,PracticeSession
1630286032.81,fixation,2,32,,,PracticeSession
1630286033.78,stimulus,1,523,,,PerfumeSession
1630286034.28,fixation,1,523,,,PerfumeSession
1630286034.31,stimulus,2,33,,,PracticeSession
1630286034.81,fixation,2,33,,,PracticeSession
1630286035.78,stimulus,1,524,,,PerfumeSession
1630286036.28,fixation,1,524,,,PerfumeSession
1630286036.31,stimulus,2,34,,,PracticeSession
1630286036.81,fixation,2,34,,,PracticeSession
1630286037.78,stimulus,1,525,,,PerfumeSession
1630286038.28,fixation,1,525,,,PerfumeSession
1630286038.31,stimulus,2,35,,,PracticeSession
1630286038.81,fixation,2,35,,,PracticeSession
1630286039.78,stimulus,1,526,,,PerfumeSession
1630286040.28,fixation,1,526,,,PerfumeSession
1630286040.31,stimulus,2,36,,,PracticeSession
1630286040.81,fixation,2,36,,,PracticeSession
1630286041.78,stimulus,1,527,,,PerfumeSession
1630286042.28,fixation,1,527,,,PerfumeSession
1630286042.31,stimulus,2,37,,,PracticeSession
1630286042.81,fixation,2,37,,,PracticeSession
1630286043.78,stimulus,1,528,,,PerfumeSession
1630286044.28,fixation,1,528,,,PerfumeSession
1630286044.31,stimulus,2,38,,,PracticeSession
1630286044.81,fixation,2,38,,,PracticeSession
1630286045.78,stimulus,1,529,,,PerfumeSession
1630286046.28,fixation,1,529,,,PerfumeSession
1630286046.31,stimulus,2,39,,,PracticeSession
1630286046.81,fixation,2,39,,,PracticeSession
1630286047.78,stimulus,1,530,,,PerfumeSession
1630286048.28,fixation,1,530,,,PerfumeSession
1630286048.31,stimulus,2,40,,,PracticeSession
1630286048.81,fixation,2,40,,,PracticeSession
1630286049.78,stimulus,1,531,,,PerfumeSession
1630286050.28,fixation,1,531,,,PerfumeSession
1630286050.31,stimulus,2,41,,,PracticeSession
1630286050.81,fixation,2,41,,,PracticeSession
1630286051.78,stimulus,1,532,,,PerfumeSession
1630286052.28,fixation,1,532,,,PerfumeSession
1630286052.31,stimulus,2,42,,,PracticeSession
1630286052.81,fixation,2,42,,,PracticeSession
1630286053.78,stimulus,1,533,,,PerfumeSession
1630286054.28,fixation,1,533,,,PerfumeSession
1630286054.31,stimulus,2,43,,,PracticeSession
1630286054.81,fixation,2,43,,,PracticeSession
1630286055.78,stimulus,1,534,,,PerfumeSession
1630286056.28,fixation,1,534,,,PerfumeSession
1630286056.31,stimulus,2,44,,,PracticeSession
1630286056.81,fixation,2,44,,,PracticeSession
1630286057.78,stimulus,1,535,,,PerfumeSession
1630286058.28,fixation,1,535,,,PerfumeSession
1630286058.31,stimulus,2,45,,,NoAct
1630286058.81,fixation,2,45,,,NoAct
1630286059.78,stimulus,1,536,,,PerfumeSession
1630286060.28,fixation,1,536,,,PerfumeSession
1630286060.31,stimulus,2,46,,,NoAct
1630286060.81,fixation,2,46,,,NoAct
1630286061.78,stimulus,1,537,,,PerfumeSession
1630286062.28,fixation,1,537,,,PerfumeSession
1630286062.31,stimulus,2,47,,,NoAct
1630286062.81,fixation,2,47,,,NoAct
1630286063.78,stimulus,1,538,,,PerfumeSession
1630286064.28,fixation,1,538,,,PerfumeSession
1630286064.31,stimulus,2,48,,,NoAct
1630286064.81,fixation,2,48,,,NoAct
1630286065.78,stimulus,1,539,,,PerfumeSession
1630286066.28,fixation,1,539,,,PerfumeSession
1630286066.31,stimulus,2,49,,,NoAct
1630286066.81,fixation,2,49,,,NoAct
1630286067.78,stimulus,1,540,,,PerfumeSession
1630286068.28,fixation,1,540,,,PerfumeSession
1630286068.31,stimulus,2,50,,,NoAct
1630286068.81,fixation,2,50,,,NoAct
1630286069.78,stimulus,1,541,,,PerfumeSession
1630286070.28,fixation,1,541,,,PerfumeSession
1630286070.31,stimulus,2,51,,,NoAct
1630286070.81,fixation,2,51,,,NoAct
1630286071.78,stimulus,1,542,,,PerfumeSession
1630286072.28,fixation,1,542,,,PerfumeSession
1630286072.31,stimulus,2,52,,,NoAct
1630286072.81,fixation,2,52,,,NoAct
1630286073.78,stimulus,1,543,,,PerfumeSession
1630286074.28,fixation,1,543,,,PerfumeSession
1630286074.31,stimulus,2,53,,,NoAct
1630286074.81,fixation,2,53,,,NoAct
1630286075.78,stimulus,1,544,,,PerfumeSession
1630286076.28,fixation,1,544,,,PerfumeSession
1630286076.31,stimulus,2,54,,,NoAct
1630286076.81,fixation,2,54,,,NoAct
1630286077.78,stimulus,1,545,,,PerfumeSession
1630286078.28,fixation,1,545,,,PerfumeSession
1630286078.31,stimulus,2,55,,,NoAct
1630286078.81,fixation,2,55,,,NoAct
1630286079.78,stimulus,1,546,,,PerfumeSession
1630286080.28,fixation,1,546,,,PerfumeSession
1630286080.31,stimulus,2,56,,,NoAct
1630286080.81,fixation,2,56,,,NoAct
1630286081.78,stimulus,1,547,,,PerfumeSession
1630286082.28,fixation,1,547,,,PerfumeSession
1630286082.31,stimulus,2,57,,,NoAct
1630286082.81,fixation,2,57,,,NoAct
1630286083.78,stimulus,1,548,,,PerfumeSession
1630286084.28,fixation,1,548,,,PerfumeSession
1630286084.31,stimulus,2,58,,,NoAct
1630286084.81,fixation,2,58,,,NoAct
1630286085.78,stimulus,1,549,,,PerfumeSession
1630286086.28,fixation,1,549,,,PerfumeSession
1630286086.31,stimulus,2,59,,,NoAct
1630286086.81,fixation,2,59,,,NoAct
1630286087.78,stimulus,1,550,,,PerfumeSession
1630286088.28,fixation,1,550,,,PerfumeSession
1630286088.31,stimulus,2,60,,,NoAct
1630286088.81,fixation,2,60,,,NoAct
1630286089.78,stimulus,1,551,,,PerfumeSession
1630286090.28,fixation,1,551,,,PerfumeSession
1630286090.31,stimulus,2,61,,,NoAct
1630286090.81,fixation,2,61,,,NoAct
1630286091.78,stimulus,1,552,,,PerfumeSession
1630286092.28,fixation,1,552,,,PerfumeSession
1630286092.31,stimulus,2,62,,,NoAct
1630286092.81,fixation,2,62,,,NoAct
1630286093.78,stimulus,1,553,,,PerfumeSession
1630286094.28,fixation,1,553,,,PerfumeSession
1630286094.31,stimulus,2,63,,,NoAct
1630286094.81,fixation,2,63,,,NoAct
1630286095.78,stimulus,1,554,,,PerfumeSession
1630286096.28,fixation,1,554,,,PerfumeSession
1630286096.31,stimulus,2,64,,,NoAct
1630286096.81,fixation,2,64,,,NoAct
1630286097.78,stimulus,1,555,,,PerfumeSession
1630286098.28,fixation,1,555,,,PerfumeSession
1630286098.31,stimulus,2,65,,,NoAct
1630286098.81,fixation,2,65,,,NoAct
1630286099.78,stimulus,1,556,,,PerfumeSession
1630286100.28,fixation,1,556,,,PerfumeSession
1630286100.31,stimulus,2,66,,,NoAct
1630286100.81,fixation,2,66,,,NoAct
1630286101.78,stimulus,1,557,,,PerfumeSession
1630286102.28,fixation,1,557,,,PerfumeSession
1630286102.31,stimulus,2,67,,,NoAct
1630286102.81,fixation,2,67,,,NoAct
1630286103.78,stimulus,1,558,,,PerfumeSession
1630286104.28,fixation,1,558,,,PerfumeSession
1630286104.31,stimulus,2,68,,,NoAct
1630286104.81,fixation,2,68,,,NoAct
1630286105.78,stimulus,1,559,,,PerfumeSession
1630286106.28,fixation,1,559,,,PerfumeSession
1630286106.31,stimulus,2,69,,,NoAct
1630286106.81,fixation,2,69,,,NoAct
1630286107.78,stimulus,1,560,,,PerfumeSession
1630286108.28,fixation,1,560,,,PerfumeSession
1630286108.31,stimulus,2,70,,,NoAct
1630286108.81,fixation,2,70,,,NoAct
1630286109.78,stimulus,1,561,,,PerfumeSession
1630286110.28,fixation,1,561,,,PerfumeSession
1630286110.31,stimulus,2,71,,,NoAct
1630286110.81,fixation,2,71,,,NoAct
1630286111.78,stimulus,1,562,,,PerfumeSession
1630286112.28,fixation,1,562,,,PerfumeSession
1630286112.31,stimulus,2,72,,,NoAct
1630286112.81,fixation,2,72,,,NoAct
1630286113.78,stimulus,1,563,,,PerfumeSession
1630286114.28,fixation,1,563,,,PerfumeSession
1630286114.31,stimulus,2,73,,,NoAct
1630286114.81,fixation,2,73,,,NoAct
1630286115.78,stimulus,1,564,,,PerfumeSession
1630286116.28,fixation,1,564,,,PerfumeSession
1630286116.31,stimulus,2,74,,,NoAct
1630286116.81,fixation,2,74,,,NoAct
1630286117.78,stimulus,1,565,,,PerfumeSession
1630286118.28,fixation,1,565,,,PerfumeSession
1630286118.31,stimulus,2,75,,,NoAct
1630286118.81,fixation,2,75,,,NoAct
1630286119.78,stimulus,1,566,,,PerfumeSession
1630286120.28,fixation,1,566,,,PerfumeSession
1630286120.31,stimulus,2,76,,,NoAct
1630286120.81,fixation,2,76,,,NoAct
1630286121.78,stimulus,1,567,,,PerfumeSession
1630286122.28,fixation,1,567,,,PerfumeSession
1630286122.31,stimulus,2,77,,,NoAct
1630286122.81,fixation,2,77,,,NoAct
1630286123.78,stimulus,1,568,,,PerfumeSession
1630286124.28,fixation,1,568,,,PerfumeSession
1630286124.31,stimulus,2,78,,,NoAct
1630286124.81,fixation,2,78,,,NoAct
1630286125.78,stimulus,1,569,,,PerfumeSession
1630286126.28,fixation,1,569,,,PerfumeSession
1630286126.31,stimulus,2,79,,,NoAct
1630286126.81,fixation,2,79,,,NoAct
1630286127.78,stimulus,1,570,,,PerfumeSession
1630286128.28,fixation,1,570,,,PerfumeSession
1630286128.31,stimulus,2,80,,,NoAct
1630286128.81,fixation,2,80,,,NoAct
1630286129.78,stimulus,1,571,,,PerfumeSession
1630286130.28,fixation,1,571,,,PerfumeSession
1630286130.31,stimulus,2,81,,,NoAct
1630286130.81,fixation,2,81,,,NoAct
1630286131.78,stimulus,1,572,,,PerfumeSession
1630286132.28,fixation,1,572,,,PerfumeSession
1630286132.31,stimulus,2,82,,,NoAct
1630286132.81,fixation,2,82,,,NoAct
1630286133.78,stimulus,1,573,,,PerfumeSession
1630286134.28,fixation,1,573,,,PerfumeSession
1630286134.31,stimulus,2,83,,,NoAct
1630286134.81,fixation,2,83,,,NoAct
1630286135.78,stimulus,1,574,,,PerfumeSession
1630286136.28,fixation,1,574,,,PerfumeSession
1630286136.31,stimulus,2,84,,,NoAct
1630286136.81,fixation,2,84,,,NoAct
1630286137.78,stimulus,1,575,,,PerfumeSession
1630286138.28,fixation,1,575,,,PerfumeSession
1630286138.31,stimulus,2,85,,,NoAct
1630286138.81,fixation,2,85,,,NoAct
1630286139.78,stimulus,1,576,,,PerfumeSession
1630286140.28,fixation,1,576,,,PerfumeSession
1630286140.31,stimulus,2,86,,,NoAct
1630286140.81,fixation,2,86,,,NoAct
1630286141.78,stimulus,1,577,,,PerfumeSession
1630286142.28,fixation,1,577,,,PerfumeSession
1630286142.31,stimulus,2,87,,,NoAct
1630286142.81,fixation,2,87,,,NoAct
1630286143.78,stimulus,1,578,,,PerfumeSession
1630286144.28,fixation,1,578,,,PerfumeSession
1630286144.31,stimulus,2,88,,,NoAct
1630286144.81,fixation,2,88,,,NoAct
1630286145.78,stimulus,1,579,,,PerfumeSession
1630286146.28,fixation,1,579,,,PerfumeSession
1630286146.31,stimulus,2,89,,,NoAct
1630286146.81,fixation,2,89,,,NoAct
1630286147.78,stimulus,1,580,,,PerfumeSession
1630286148.28,fixation,1,580,,,PerfumeSession
1630286148.31,stimulus,2,90,,,NoAct
1630286148.81,fixation,2,90,,,NoAct
1630286149.78,stimulus,1,581,,,PerfumeSession
1630286150.28,fixation,1,581,,,PerfumeSession
1630286150.31,stimulus,2,91,,,NoAct
1630286150.81,fixation,2,91,,,NoAct
1630286151.78,stimulus,1,582,,,PerfumeSession
1630286152.28,fixation,1,582,,,PerfumeSession
1630286152.31,stimulus,2,92,,,NoAct
1630286152.81,fixation,2,92,,,NoAct
1630286153.78,stimulus,1,583,,,PerfumeSession
1630286154.28,fixation,1,583,,,PerfumeSession
1630286154.31,stimulus,2,93,,,NoAct
1630286154.81,fixation,2,93,,,NoAct
1630286155.78,stimulus,1,584,,,PerfumeSession
1630286156.28,fixation,1,584,,,PerfumeSession
1630286156.31,stimulus,2,94,,,NoAct
1630286156.81,fixation,2,94,,,NoAct
1630286157.78,stimulus,1,585,,,PerfumeSession
1630286158.28,fixation,1,585,,,PerfumeSession
1630286158.31,stimulus,2,95,,,NoAct
1630286158.81,fixation,2,95,,,NoAct
1630286159.78,stimulus,1,586,,,PerfumeSession
1630286160.28,fixation,1,586,,,PerfumeSession
1630286160.31,stimulus,2,96,,,NoAct
1630286160.81,fixation,2,96,,,NoAct
1630286161.78,stimulus,1,587,,,PerfumeSession
1630286162.28,fixation,1,587,,,PerfumeSession
1630286162.31,stimulus,2,97,,,NoAct
1630286162.81,fixation,2,97,,,NoAct
1630286163.78,stimulus,1,588,,,PerfumeSession
1630286164.28,fixation,1,588,,,PerfumeSession
1630286164.31,stimulus,2,98,,,NoAct
1630286164.81,fixation,2,98,,,NoAct
1630286165.78,stimulus,1,589,,,PerfumeSession
1630286166.28,fixation,1,589,,,PerfumeSession
1630286166.31,stimulus,2,99,,,NoAct
1630286166.81,fixation,2,99,,,NoAct
1630286167.78,stimulus,1,590,,,PerfumeSession
1630286168.28,fixation,1,590,,,PerfumeSession
1630286168.31,stimulus,2,100,,,NoAct
1630286168.81,fixation,2,100,,,NoAct
1630286169.78,stimulus,1,591,,,PerfumeSession
1630286170.28,fixation,1,591,,,PerfumeSession
1630286170.31,stimulus,2,101,,,NoAct
1630286170.81,fixation,2,101,,,NoAct
1630286171.78,stimulus,1,592,,,PerfumeSession
1630286172.28,fixation,1,592,,,PerfumeSession
1630286172.31,stimulus,2,102,,,NoAct
1630286172.81,fixation,2,102,,,NoAct
1630286173.78,stimulus,1,593,,,PerfumeSession
1630286174.28,fixation,1,593,,,PerfumeSession
1630286174.31,stimulus,2,103,,,NoAct
1630286174.81,fixation,2,103,,,NoAct
1630286175.78,stimulus,1,594,,,PerfumeSession
1630286176.28,fixation,1,594,,,PerfumeSession
1630286176.31,stimulus,2,104,,,NoAct
1630286176.81,fixation,2,104,,,NoAct
1630286177.78,stimulus,1,595,,,PerfumeSession
1630286178.28,fixation,1,595,,,PerfumeSession
1630286178.31,stimulus,2,105,,,NoAct
1630286178.81,fixation,2,105,,,NoAct
1630286179.78,stimulus,1,596,,,PerfumeSession
1630286180.28,fixation,1,596,,,PerfumeSession
1630286180.31,stimulus,2,106,,,NoAct
1630286180.81,fixation,2,106,,,NoAct
1630286181.78,stimulus,1,597,,,PerfumeSession
1630286182.28,fixation,1,597,,,PerfumeSession
1630286182.31,stimulus,2,107,,,NoAct
1630286182.81,fixation,2,107,,,NoAct
1630286183.78,stimulus,1,598,,,PerfumeSession
1630286184.28,fixation,1,598,,,PerfumeSession
1630286184.31,stimulus,2,108,,,NoAct
1630286184.81,fixation,2,108,,,NoAct
1630286185.78,stimulus,1,599,,,PerfumeSession
1630286186.28,fixation,1,599,,,PerfumeSession
1630286186.31,stimulus,2,109,,,NoAct
1630286186.81,fixation,2,109,,,NoAct
1630286187.78,stimulus,1,600,,,PerfumeSession
1630286188.28,fixation,1,600,,,PerfumeSession
1630286188.31,stimulus,2,110,,,NoAct
1630286188.81,fixation,2,110,,,NoAct
1630286189.78,stimulus,1,601,,,PerfumeSession
1630286190.28,fixation,1,601,,,PerfumeSession
1630286190.31,stimulus,2,111,,,NoAct
1630286190.81,fixation,2,111,,,NoAct
1630286191.78,stimulus,1,602,,,PerfumeSession
1630286192.28,fixation,1,602,,,PerfumeSession
1630286192.31,stimulus,2,112,,,NoAct
1630286192.81,fixation,2,112,,,NoAct
1630286193.78,stimulus,1,603,,,PerfumeSession
1630286194.28,fixation,1,603,,,PerfumeSession
1630286194.31,stimulus,2,113,,,NoAct
1630286194.81,fixation,2,113,,,NoAct
1630286195.78,stimulus,1,604,,,PerfumeSession
1630286196.28,fixation,1,604,,,PerfumeSession
1630286196.31,stimulus,2,114,,,NoAct
1630286196.81,fixation,2,114,,,NoAct
1630286197.78,stimulus,1,605,,,PerfumeSession
1630286198.28,fixation,1,605,,,PerfumeSession
1630286198.31,stimulus,2,115,,,NoAct
1630286198.81,fixation,2,115,,,NoAct
1630286199.78,stimulus,1,606,,,PerfumeSession
1630286200.28,fixation,1,606,,,PerfumeSession
1630286200.31,stimulus,2,116,,,NoAct
1630286200.81,fixation,2,116,,,NoAct
1630286201.78,stimulus,1,607,,,PerfumeSession
1630286202.28,fixation,1,607,,,PerfumeSession
1630286202.31,stimulus,2,117,,,NoAct
1630286202.81,fixation,2,117,,,NoAct
1630286203.78,stimulus,1,608,,,PerfumeSession
1630286204.28,fixation,1,608,,,PerfumeSession
1630286204.31,stimulus,2,118,,,NoAct
1630286204.81,fixation,2,118,,,NoAct
1630286205.78,stimulus,1,609,,,PerfumeSession
1630286206.28,fixation,1,609,,,PerfumeSession
1630286206.31,stimulus,2,119,,,NoAct
1630286206.81,fixation,2,119,,,NoAct
1630286207.78,stimulus,1,610,,,PerfumeSession
1630286208.28,fixation,1,610,,,PerfumeSession
1630286208.31,stimulus,2,120,,,NoAct
1630286208.81,fixation,2,120,,,NoAct
1630286209.78,stimulus,1,611,,,PerfumeSession
1630286210.28,fixation,1,611,,,PerfumeSession
1630286210.31,stimulus,2,121,,,NoAct
1630286210.81,fixation,2,121,,,NoAct
1630286211.78,stimulus,1,612,,,PerfumeSession
1630286212.28,fixation,1,612,,,PerfumeSession
1630286212.31,stimulus,2,122,,,NoAct
1630286212.81,fixation,2,122,,,NoAct
1630286213.78,stimulus,1,613,,,PerfumeSession
1630286214.28,fixation,1,613,,,PerfumeSession
1630286214.31,stimulus,2,123,,,NoAct
1630286214.81,fixation,2,123,,,NoAct
1630286215.78,stimulus,1,614,,,PerfumeSession
1630286216.28,fixation,1,614,,,PerfumeSession
1630286216.31,stimulus,2,124,,,NoAct
1630286216.81,fixation,2,124,,,NoAct
1630286217.78,stimulus,1,615,,,PerfumeSession
1630286218.28,fixation,1,615,,,PerfumeSession
1630286218.31,stimulus,2,125,,,NoAct
1630286218.81,fixation,2,125,,,NoAct
1630286219.78,stimulus,1,616,,,PerfumeSession
1630286220.28,fixation,1,616,,,PerfumeSession
1630286220.31,stimulus,2,126,,,NoAct
1630286220.81,fixation,2,126,,,NoAct
1630286221.78,stimulus,1,617,,,PerfumeSession
1630286222.28,fixation,1,617,,,PerfumeSession
1630286222.31,stimulus,2,127,,,NoAct
1630286222.81,fixation,2,127,,,NoAct
1630286223.78,stimulus,1,618,,,PerfumeSession
1630286224.28,fixation,1,618,,,PerfumeSession
1630286224.31,stimulus,2,128,,,NoAct
1630286224.81,fixation,2,128,,,NoAct
1630286225.78,stimulus,1,619,,,PerfumeSession
1630286226.28,fixation,1,619,,,PerfumeSession
1630286226.31,stimulus,2,129,,,NoAct
1630286226.81,fixation,2,129,,,NoAct
1630286227.78,stimulus,1,620,,,PerfumeSession
1630286228.28,fixation,1,620,,,PerfumeSession
1630286228.31,stimulus,2,130,,,NoAct
1630286228.81,fixation,2,130,,,NoAct
1630286229.78,stimulus,1,621,,,PerfumeSession
1630286230.28,fixation,1,621,,,PerfumeSession
1630286230.31,stimulus,2,131,,,NoAct
1630286230.81,fixation,2,131,,,NoAct
1630286231.78,stimulus,1,622,,,PerfumeSession
1630286232.28,fixation,1,622,,,PerfumeSession
1630286232.31,stimulus,2,132,,,NoAct
1630286232.81,fixation,2,132,,,NoAct
1630286233.78,stimulus,1,623,,,PerfumeSession
1630286234.28,fixation,1,623,,,PerfumeSession
1630286234.31,stimulus,2,133,,,NoAct
1630286234.81,fixation,2,133,,,NoAct
1630286235.78,stimulus,1,624,,,PerfumeSession
1630286236.28,fixation,1,624,,,PerfumeSession
1630286236.31,stimulus,2,134,,,NoAct
1630286236.81,fixation,2,134,,,NoAct
1630286237.78,stimulus,1,625,,,PerfumeSession
1630286238.28,fixation,1,625,,,PerfumeSession
1630286238.31,stimulus,2,135,,,NoAct
1630286238.81,fixation,2,135,,,NoAct
1630286239.78,stimulus,1,626,,,PerfumeSession
1630286240.28,fixation,1,626,,,PerfumeSession
1630286240.31,stimulus,2,136,,,NoAct
1630286240.81,fixation,2,136,,,NoAct
1630286241.78,stimulus,1,627,,,PerfumeSession
1630286242.28,fixation,1,627,,,PerfumeSession
1630286242.31,stimulus,2,137,,,NoAct
1630286242.81,fixation,2,137,,,NoAct
1630286243.78,stimulus,1,628,,,PerfumeSession
1630286244.28,fixation,1,628,,,PerfumeSession
1630286244.31,stimulus,2,138,,,NoAct
1630286244.81,fixation,2,138,,,NoAct
1630286245.78,stimulus,1,629,,,PerfumeSession
1630286246.28,fixation,1,629,,,PerfumeSession
1630286246.31,stimulus,2,139,,,NoAct
1630286246.81,fixation,2,139,,,NoAct
1630286247.78,stimulus,1,630,,,PerfumeSession
1630286248.28,fixation,1,630,,,PerfumeSession
1630286248.31,stimulus,2,140,,,NoAct
1630286248.81,fixation,2,140,,,NoAct
1630286249.78,stimulus,1,631,,,PerfumeSession
1630286250.28,fixation,1,631,,,PerfumeSession
1630286250.31,stimulus,2,141,,,NoAct
1630286250.81,fixation,2,141,,,NoAct
1630286251.78,stimulus,1,632,,,PerfumeSession
1630286252.28,fixation,1,632,,,PerfumeSession
1630286252.31,stimulus,2,142,,,NoAct
1630286252.81,fixation,2,142,,,NoAct
1630286253.78,stimulus,1,633,,,PerfumeSession
1630286254.28,fixation,1,633,,,PerfumeSession
1630286254.31,stimulus,2,143,,,NoAct
1630286254.81,fixation,2,143,,,NoAct
1630286255.78,stimulus,1,634,,,PerfumeSession
1630286256.28,fixation,1,634,,,PerfumeSession
1630286256.31,stimulus,2,144,,,NoAct
1630286256.81,fixation,2,144,,,NoAct
1630286257.78,stimulus,1,635,,,PerfumeSession
1630286258.28,fixation,1,635,,,PerfumeSession
1630286258.31,stimulus,2,145,,,NoAct
1630286258.81,fixation,2,145,,,NoAct
1630286259.78,stimulus,1,636,,,PerfumeSession
1630286260.28,fixation,1,636,,,PerfumeSession
1630286260.31,stimulus,2,146,,,NoAct
1630286260.81,fixation,2,146,,,NoAct
1630286261.78,stimulus,1,637,,,PerfumeSession
1630286262.28,fixation,1,637,,,PerfumeSession
1630286262.31,stimulus,2,147,,,NoAct
1630286262.81,fixation,2,147,,,NoAct
1630286263.78,stimulus,1,638,,,PerfumeSession
1630286264.28,fixation,1,638,,,PerfumeSession
1630286264.31,stimulus,2,148,,,NoAct
1630286264.81,fixation,2,148,,,NoAct
1630286265.78,stimulus,1,639,,,PerfumeSession
1630286266.28,fixation,1,639,,,PerfumeSession
1630286266.31,stimulus,2,149,,,NoAct
1630286266.81,fixation,2,149,,,NoAct
1630286267.78,stimulus,1,640,,,PerfumeSession
1630286268.28,fixation,1,640,,,PerfumeSession
1630286268.31,stimulus,2,150,,,NoAct
1630286268.81,fixation,2,150,,,NoAct
1630286269.78,stimulus,1,641,,,PerfumeSession
1630286270.28,fixation,1,641,,,PerfumeSession
1630286270.31,stimulus,2,151,,,NoAct
1630286270.81,fixation,2,151,,,NoAct
1630286271.78,stimulus,1,642,,,PerfumeSession
1630286272.28,fixation,1,642,,,PerfumeSession
1630286272.31,stimulus,2,152,,,NoAct
1630286272.81,fixation,2,152,,,NoAct
1630286273.78,stimulus,1,643,,,PerfumeSession
1630286274.28,fixation,1,643,,,PerfumeSession
1630286274.31,stimulus,2,153,,,NoAct
1630286274.81,fixation,2,153,,,NoAct
1630286275.78,stimulus,1,644,,,PerfumeSession
1630286276.28,fixation,1,644,,,PerfumeSession
1630286276.31,stimulus,2,154,,,NoAct
1630286276.81,fixation,2,154,,,NoAct
1630286277.78,stimulus,1,645,,,PerfumeSession
1630286278.28,fixation,1,645,,,PerfumeSession
1630286278.31,stimulus,2,155,,,NoAct
1630286278.81,fixation,2,155,,,NoAct
1630286279.78,stimulus,1,646,,,PerfumeSession
1630286280.28,fixation,1,646,,,PerfumeSession
1630286280.31,stimulus,2,156,,,NoAct
1630286280.81,fixation,2,156,,,NoAct
1630286281.78,stimulus,1,647,,,PerfumeSession
1630286282.28,fixation,1,647,,,PerfumeSession
1630286282.31,stimulus,2,157,,,NoAct
1630286282.81,fixation,2,157,,,NoAct
1630286283.78,stimulus,1,648,,,PerfumeSession
1630286284.28,fixation,1,648,,,PerfumeSession
1630286284.31,stimulus,2,158,,,NoAct
1630286284.81,fixation,2,158,,,NoAct
1630286285.78,stimulus,1,649,,,PerfumeSession
1630286286.28,fixation,1,649,,,PerfumeSession
1630286286.31,stimulus,2,159,,,NoAct
1630286286.81,fixation,2,159,,,NoAct
1630286287.78,stimulus,1,650,,,PerfumeSession
1630286288.28,fixation,1,650,,,PerfumeSession
1630286288.31,stimulus,2,160,,,NoAct
1630286288.81,fixation,2,160,,,NoAct
1630286289.78,stimulus,1,651,,,PerfumeSession
1630286290.28,fixation,1,651,,,PerfumeSession
1630286290.31,stimulus,2,161,,,NoAct
1630286290.81,fixation,2,161,,,NoAct
1630286291.78,stimulus,1,652,,,PerfumeSession
1630286292.28,fixation,1,652,,,PerfumeSession
1630286292.31,stimulus,2,162,,,NoAct
1630286292.81,fixation,2,162,,,NoAct
1630286293.78,stimulus,1,653,,,PerfumeSession
1630286294.28,fixation,1,653,,,PerfumeSession
1630286294.31,stimulus,2,163,,,NoAct
1630286294.81,fixation,2,163,,,NoAct
1630286295.78,stimulus,1,654,,,PerfumeSession
1630286296.28,fixation,1,654,,,PerfumeSession
1630286296.31,stimulus,2,164,,,NoAct
1630286296.81,fixation,2,164,,,NoAct
1630286297.78,stimulus,1,655,,,PerfumeSession
1630286298.28,fixation,1,655,,,PerfumeSession
1630286298.31,stimulus,2,165,,,NoAct
1630286298.81,fixation,2,165,,,NoAct
1630286299.78,stimulus,1,656,,,PerfumeSession
1630286300.28,fixation,1,656,,,PerfumeSession
1630286300.31,stimulus,2,166,,,NoAct
1630286300.81,fixation,2,166,,,NoAct
1630286301.78,stimulus,1,657,,,PerfumeSession
1630286302.28,fixation,1,657,,,PerfumeSession
1630286302.31,stimulus,2,167,,,NoAct
1630286302.81,fixation,2,167,,,NoAct
1630286303.78,stimulus,1,658,,,PerfumeSession
1630286304.28,fixation,1,658,,,PerfumeSession
1630286304.31,stimulus,2,168,,,NoAct
1630286304.81,fixation,2,168,,,NoAct
1630286305.78,stimulus,1,659,,,PerfumeSession
1630286306.28,fixation,1,659,,,PerfumeSession
1630286306.31,stimulus,2,169,,,NoAct
1630286306.81,fixation,2,169,,,NoAct
1630286307.78,stimulus,1,660,,,PerfumeSession
1630286308.28,fixation,1,660,,,PerfumeSession
1630286308.31,stimulus,2,170,,,NoAct
1630286308.81,fixation,2,170,,,NoAct
1630286309.78,stimulus,1,661,,,PerfumeSession
1630286310.28,fixation,1,661,,,PerfumeSession
1630286310.31,stimulus,2,171,,,NoAct
1630286310.81,fixation,2,171,,,NoAct
1630286311.78,stimulus,1,662,,,PerfumeSession
1630286312.28,fixation,1,662,,,PerfumeSession
1630286312.31,stimulus,2,172,,,NoAct
1630286312.81,fixation,2,172,,,NoAct
1630286313.78,stimulus,1,663,,,PerfumeSession
1630286314.28,fixation,1,663,,,PerfumeSession
1630286314.31,stimulus,2,173,,,NoAct
1630286314.81,fixation,2,173,,,NoAct
1630286315.78,stimulus,1,664,,,PerfumeSession
1630286316.28,fixation,1,664,,,PerfumeSession
1630286316.31,stimulus,2,174,,,NoAct
1630286316.81,fixation,2,174,,,NoAct
1630286317.78,stimulus,1,665,,,PerfumeSession
1630286318.28,fixation,1,665,,,PerfumeSession
1630286318.31,stimulus,2,175,,,NoAct
1630286318.81,fixation,2,175,,,NoAct
1630286319.78,stimulus,1,666,,,PerfumeSession
1630286320.28,fixation,1,666,,,PerfumeSession
1630286320.31,stimulus,2,176,,,NoAct
1630286320.81,fixation,2,176,,,NoAct
1630286321.78,stimulus,1,667,,,PerfumeSession
1630286322.28,fixation,1,667,,,PerfumeSession
1630286322.31,stimulus,2,177,,,NoAct
1630286322.81,fixation,2,177,,,NoAct
1630286323.78,stimulus,1,668,,,PerfumeSession
1630286324.28,fixation,1,668,,,PerfumeSession
1630286324.31,stimulus,2,178,,,NoAct
1630286324.81,fixation,2,178,,,NoAct
1630286325.78,stimulus,1,669,,,PerfumeSession
1630286326.28,fixation,1,669,,,PerfumeSession
1630286326.31,stimulus,2,179,,,NoAct
1630286326.81,fixation,2,179,,,NoAct
1630286327.78,stimulus,1,670,,,PerfumeSession
1630286328.28,fixation,1,670,,,PerfumeSession
1630286328.31,stimulus,2,180,,,NoAct
1630286328.81,fixation,2,180,,,NoAct
1630286329.78,stimulus,1,671,,,PerfumeSession
1630286330.28,fixation,1,671,,,PerfumeSession
1630286330.31,stimulus,2,181,,,NoAct
1630286330.81,fixation,2,181,,,NoAct
1630286331.78,stimulus,1,672,,,PerfumeSession
1630286332.28,fixation,1,672,,,PerfumeSession
1630286332.31,stimulus,2,182,,,NoAct
1630286332.81,fixation,2,182,,,NoAct
1630286333.78,stimulus,1,673,,,PerfumeSession
1630286334.28,fixation,1,673,,,PerfumeSession
1630286334.31,stimulus,2,183,,,NoAct
1630286334.81,fixation,2,183,,,NoAct
1630286335.78,stimulus,1,674,,,PerfumeSession
1630286335.89,stimulus,3,1,,,PracticeSession
1630286336.28,fixation,1,674,,,PerfumeSession
1630286336.31,stimulus,2,184,,,NoAct
1630286336.39,fixation,3,1,,,PracticeSession
1630286336.81,fixation,2,184,,,NoAct
1630286337.78,stimulus,1,675,,,PerfumeSession
1630286337.89,stimulus,3,2,,,PracticeSession
1630286338.28,fixation,1,675,,,PerfumeSession
1630286338.31,stimulus,2,185,,,NoAct
1630286338.39,fixation,3,2,,,PracticeSession
1630286338.81,fixation,2,185,,,NoAct
1630286339.78,stimulus,1,676,,,PerfumeSession
1630286339.89,stimulus,3,3,,,PracticeSession
1630286340.28,fixation,1,676,,,PerfumeSession
1630286340.31,stimulus,2,186,,,NoAct
1630286340.39,fixation,3,3,,,PracticeSession
1630286340.81,fixation,2,186,,,NoAct
1630286341.78,stimulus,1,677,,,PerfumeSession
1630286341.89,stimulus,3,4,,,PracticeSession
1630286342.28,fixation,1,677,,,PerfumeSession
1630286342.31,stimulus,2,187,,,NoAct
1630286342.39,fixation,3,4,,,PracticeSession
1630286342.81,fixation,2,187,,,NoAct
1630286343.78,stimulus,1,678,,,PerfumeSession
1630286343.89,stimulus,3,5,,,PracticeSession
1630286344.28,fixation,1,678,,,PerfumeSession
1630286344.31,stimulus,2,188,,,NoAct
1630286344.39,fixation,3,5,,,PracticeSession
1630286344.81,fixation,2,188,,,NoAct
1630286345.78,stimulus,1,679,,,PerfumeSession
1630286345.89,stimulus,3,6,,,PracticeSession
1630286346.28,fixation,1,679,,,PerfumeSession
1630286346.31,stimulus,2,189,,,NoAct
1630286346.39,fixation,3,6,,,PracticeSession
1630286346.81,fixation,2,189,,,NoAct
1630286347.78,stimulus,1,680,,,PerfumeSession
1630286347.89,stimulus,3,7,,,PracticeSession
1630286348.28,fixation,1,680,,,PerfumeSession
1630286348.31,stimulus,2,190,,,NoAct
1630286348.39,fixation,3,7,,,PracticeSession
1630286348.81,fixation,2,190,,,NoAct
1630286349.78,stimulus,1,681,,,PerfumeSession
1630286349.89,stimulus,3,8,,,PracticeSession
1630286350.28,fixation,1,681,,,PerfumeSession
1630286350.31,stimulus,2,191,,,NoAct
1630286350.39,fixation,3,8,,,PracticeSession
1630286350.81,fixation,2,191,,,NoAct
1630286351.78,stimulus,1,682,,,PerfumeSession
1630286351.89,stimulus,3,9,,,PracticeSession
1630286352.28,fixation,1,682,,,PerfumeSession
1630286352.31,stimulus,2,192,,,NoAct
1630286352.39,fixation,3,9,,,PracticeSession
1630286352.81,fixation,2,192,,,NoAct
1630286353.78,stimulus,1,683,,,PerfumeSession
1630286353.89,stimulus,3,10,,,PracticeSession
1630286354.28,fixation,1,683,,,PerfumeSession
1630286354.31,stimulus,2,193,,,NoAct
1630286354.39,fixation,3,10,,,PracticeSession
1630286354.81,fixation,2,193,,,NoAct
1630286355.78,stimulus,1,684,,,PerfumeSession
1630286355.89,stimulus,3,11,,,PracticeSession
1630286356.28,fixation,1,684,,,PerfumeSession
1630286356.31,stimulus,2,194,,,NoAct
1630286356.39,fixation,3,11,,,PracticeSession
1630286356.81,fixation,2,194,,,NoAct
1630286357.78,stimulus,1,685,,,PerfumeSession
1630286357.89,stimulus,3,12,,,PracticeSession
1630286358.28,fixation,1,685,,,PerfumeSession
1630286358.31,stimulus,2,195,,,NoAct
1630286358.39,fixation,3,12,,,PracticeSession
1630286358.81,fixation,2,195,,,NoAct
1630286359.78,stimulus,1,686,,,PerfumeSession
1630286359.89,stimulus,3,13,,,PracticeSession
1630286360.28,fixation,1,686,,,PerfumeSession
1630286360.31,stimulus,2,196,,,NoAct
1630286360.39,fixation,3,13,,,PracticeSession
1630286360.81,fixation,2,196,,,NoAct
1630286361.78,stimulus,1,687,,,PerfumeSession
1630286361.89,stimulus,3,14,,,PracticeSession
1630286362.28,fixation,1,687,,,PerfumeSession
1630286362.31,stimulus,2,197,,,NoAct
1630286362.39,fixation,3,14,,,PracticeSession
1630286362.81,fixation,2,197,,,NoAct
1630286363.78,stimulus,1,688,,,PerfumeSession
1630286363.89,stimulus,3,15,,,PracticeSession
1630286364.28,fixation,1,688,,,PerfumeSession
1630286364.31,stimulus,2,198,,,NoAct
1630286364.39,fixation,3,15,,,PracticeSession
1630286364.81,fixation,2,198,,,NoAct
1630286365.78,stimulus,1,689,,,PerfumeSession
1630286365.89,stimulus,3,16,,,PracticeSession
1630286366.28,fixation,1,689,,,PerfumeSession
1630286366.31,stimulus,2,199,,,NoAct
1630286366.39,fixation,3,16,,,PracticeSession
1630286366.81,fixation,2,199,,,NoAct
1630286367.78,stimulus,1,690,,,PerfumeSession
1630286367.89,stimulus,3,17,,,PracticeSession
1630286368.28,fixation,1,690,,,PerfumeSession
1630286368.31,stimulus,2,200,,,NoAct
1630286368.39,fixation,3,17,,,PracticeSession
1630286368.81,fixation,2,200,,,NoAct
1630286369.78,stimulus,1,691,,,PerfumeSession
1630286369.89,stimulus,3,18,,,PracticeSession
1630286370.28,fixation,1,691,,,PerfumeSession
1630286370.31,stimulus,2,201,,,NoAct
1630286370.39,fixation,3,18,,,PracticeSession
1630286370.81,fixation,2,201,,,NoAct
1630286371.78,stimulus,1,692,,,PerfumeSession
1630286371.89,stimulus,3,19,,,PracticeSession
1630286372.28,fixation,1,692,,,PerfumeSession
1630286372.31,stimulus,2,202,,,NoAct
1630286372.39,fixation,3,19,,,PracticeSession
1630286372.81,fixation,2,202,,,NoAct
1630286373.78,stimulus,1,693,,,PerfumeSession
1630286373.89,stimulus,3,20,,,PracticeSession
1630286374.28,fixation,1,693,,,PerfumeSession
1630286374.31,stimulus,2,203,,,NoAct
1630286374.39,fixation,3,20,,,PracticeSession
1630286374.81,fixation,2,203,,,NoAct
1630286375.78,stimulus,1,694,,,PerfumeSession
1630286375.89,stimulus,3,21,,,PracticeSession
1630286376.28,fixation,1,694,,,PerfumeSession
1630286376.31,stimulus,2,204,,,NoAct
1630286376.39,fixation,3,21,,,PracticeSession
1630286376.81,fixation,2,204,,,NoAct
1630286377.78,stimulus,1,695,,,PerfumeSession
1630286377.89,stimulus,3,22,,,PracticeSession
1630286378.28,fixation,1,695,,,PerfumeSession
1630286378.31,stimulus,2,205,,,NoAct
1630286378.39,fixation,3,22,,,PracticeSession
1630286378.81,fixation,2,205,,,NoAct
1630286379.78,stimulus,1,696,,,PerfumeSession
1630286379.89,stimulus,3,23,,,PracticeSession
1630286380.28,fixation,1,696,,,PerfumeSession
1630286380.31,stimulus,2,206,,,NoAct
1630286380.39,fixation,3,23,,,PracticeSession
1630286380.81,fixation,2,206,,,NoAct
1630286381.78,stimulus,1,697,,,PerfumeSession
1630286381.89,stimulus,3,24,,,PracticeSession
1630286382.28,fixation,1,697,,,PerfumeSession
1630286382.31,stimulus,2,207,,,NoAct
1630286382.39,fixation,3,24,,,PracticeSession
1630286382.81,fixation,2,207,,,NoAct
1630286383.78,stimulus,1,698,,,PerfumeSession
1630286383.89,stimulus,3,25,,,PracticeSession
1630286384.28,fixation,1,698,,,PerfumeSession
1630286384.31,stimulus,2,208,,,NoAct
1630286384.39,fixation,3,25,,,PracticeSession
1630286384.81,fixation,2,208,,,NoAct
1630286385.78,stimulus,1,699,,,PerfumeSession
1630286385.89,stimulus,3,26,,,PracticeSession
1630286386.28,fixation,1,699,,,PerfumeSession
1630286386.31,stimulus,2,209,,,NoAct
1630286386.39,fixation,3,26,,,PracticeSession
1630286386.81,fixation,2,209,,,NoAct
1630286387.78,stimulus,1,700,,,PerfumeSession
1630286387.89,stimulus,3,27,,,PracticeSession
1630286388.28,fixation,1,700,,,PerfumeSession
1630286388.31,stimulus,2,210,,,NoAct
1630286388.39,fixation,3,27,,,PracticeSession
1630286388.81,fixation,2,210,,,NoAct
1630286389.78,stimulus,1,701,,,PerfumeSession
1630286389.89,stimulus,3,28,,,PracticeSession
1630286390.28,fixation,1,701,,,PerfumeSession
1630286390.31,stimulus,2,211,,,NoAct
1630286390.39,fixation,3,28,,,PracticeSession
1630286390.81,fixation,2,211,,,NoAct
1630286391.78,stimulus,1,702,,,PerfumeSession
1630286391.89,stimulus,3,29,,,PracticeSession
1630286392.28,fixation,1,702,,,PerfumeSession
1630286392.31,stimulus,2,212,,,NoAct
1630286392.39,fixation,3,29,,,PracticeSession
1630286392.81,fixation,2,212,,,NoAct
1630286393.78,stimulus,1,703,,,PerfumeSession
1630286393.89,stimulus,3,30,,,PracticeSession
1630286394.28,fixation,1,703,,,PerfumeSession
1630286394.31,stimulus,2,213,,,NoAct
1630286394.39,fixation,3,30,,,PracticeSession
1630286394.81,fixation,2,213,,,NoAct
1630286395.78,stimulus,1,704,,,PerfumeSession
1630286395.89,stimulus,3,31,,,PracticeSession
1630286396.28,fixation,1,704,,,PerfumeSession
1630286396.31,stimulus,2,214,,,NoAct
1630286396.39,fixation,3,31,,,PracticeSession
1630286396.81,fixation,2,214,,,NoAct
1630286397.78,stimulus,1,705,,,PerfumeSession
1630286397.89,stimulus,3,32,,,PracticeSession
1630286398.28,fixation,1,705,,,PerfumeSession
1630286398.31,stimulus,2,215,,,NoAct
1630286398.39,fixation,3,32,,,PracticeSession
1630286398.81,fixation,2,215,,,NoAct
1630286399.78,stimulus,1,706,,,PerfumeSession
1630286399.89,stimulus,3,33,,,PracticeSession
1630286400.28,fixation,1,706,,,PerfumeSession
1630286400.31,stimulus,2,216,,,NoAct
1630286400.39,fixation,3,33,,,PracticeSession
1630286400.81,fixation,2,216,,,NoAct
1630286401.78,stimulus,1,707,,,PerfumeSession
1630286401.89,stimulus,3,34,,,PracticeSession
1630286402.28,fixation,1,707,,,PerfumeSession
1630286402.31,stimulus,2,217,,,NoAct
1630286402.39,fixation,3,34,,,PracticeSession
1630286402.81,fixation,2,217,,,NoAct
1630286403.78,stimulus,1,708,,,PerfumeSession
1630286403.89,stimulus,3,35,,,PracticeSession
1630286404.28,fixation,1,708,,,PerfumeSession
1630286404.31,stimulus,2,218,,,NoAct
1630286404.39,fixation,3,35,,,PracticeSession
1630286404.81,fixation,2,218,,,NoAct
1630286405.78,stimulus,1,709,,,PerfumeSession
1630286405.89,stimulus,3,36,,,PracticeSession
1630286406.28,fixation,1,709,,,PerfumeSession
1630286406.31,stimulus,2,219,,,NoAct
1630286406.39,fixation,3,36,,,PracticeSession
1630286406.81,fixation,2,219,,,NoAct
1630286407.78,stimulus,1,710,,,PerfumeSession
1630286407.89,stimulus,3,37,,,PracticeSession
1630286408.28,fixation,1,710,,,PerfumeSession
1630286408.31,stimulus,2,220,,,NoAct
1630286408.39,fixation,3,37,,,PracticeSession
1630286408.81,fixation,2,220,,,NoAct
1630286409.78,stimulus,1,711,,,PerfumeSession
1630286409.89,stimulus,3,38,,,PracticeSession
1630286410.28,fixation,1,711,,,PerfumeSession
1630286410.31,stimulus,2,221,,,NoAct
1630286410.39,fixation,3,38,,,PracticeSession
1630286410.81,fixation,2,221,,,NoAct
1630286411.78,stimulus,1,712,,,PerfumeSession
1630286411.89,stimulus,3,39,,,PracticeSession
1630286412.28,fixation,1,712,,,PerfumeSession
1630286412.31,stimulus,2,222,,,NoAct
1630286412.39,fixation,3,39,,,PracticeSession
1630286412.81,fixation,2,222,,,NoAct
1630286413.78,stimulus,1,713,,,PerfumeSession
1630286413.89,stimulus,3,40,,,PracticeSession
1630286414.28,fixation,1,713,,,PerfumeSession
1630286414.31,stimulus,2,223,,,NoAct
1630286414.39,fixation,3,40,,,PracticeSession
1630286414.81,fixation,2,223,,,NoAct
1630286415.78,stimulus,1,714,,,PerfumeSession
1630286415.89,stimulus,3,41,,,PracticeSession
1630286416.28,fixation,1,714,,,PerfumeSession
1630286416.31,stimulus,2,224,,,NoAct
1630286416.39,fixation,3,41,,,PracticeSession
1630286416.81,fixation,2,224,,,NoAct
1630286417.78,stimulus,1,715,,,PerfumeSession
1630286417.89,stimulus,3,42,,,PracticeSession
1630286418.28,fixation,1,715,,,PerfumeSession
1630286418.31,stimulus,2,225,,,NoAct
1630286418.39,fixation,3,42,,,PracticeSession
1630286418.81,fixation,2,225,,,NoAct
1630286419.78,stimulus,1,716,,,PerfumeSession
1630286419.89,stimulus,3,43,,,PracticeSession
1630286420.28,fixation,1,716,,,PerfumeSession
1630286420.31,stimulus,2,226,,,NoAct
1630286420.39,fixation,3,43,,,PracticeSession
1630286420.81,fixation,2,226,,,NoAct
1630286421.78,stimulus,1,717,,,PerfumeSession
1630286421.89,stimulus,3,44,,,PracticeSession
1630286422.28,fixation,1,717,,,PerfumeSession
1630286422.31,stimulus,2,227,,,NoAct
1630286422.39,fixation,3,44,,,PracticeSession
1630286422.81,fixation,2,227,,,NoAct
1630286423.78,stimulus,1,718,,,PerfumeSession
1630286423.89,stimulus,3,45,,,NoAct
1630286424.28,fixation,1,718,,,PerfumeSession
1630286424.31,stimulus,2,228,,,NoAct
1630286424.39,fixation,3,45,,,NoAct
1630286424.81,fixation,2,228,,,NoAct
1630286425.78,stimulus,1,719,,,PerfumeSession
1630286425.89,stimulus,3,46,,,NoAct
1630286426.28,fixation,1,719,,,PerfumeSession
1630286426.31,stimulus,2,229,,,NoAct
1630286426.39,fixation,3,46,,,NoAct
1630286426.81,fixation,2,229,,,NoAct
1630286427.78,stimulus,1,720,,,PerfumeSession
1630286427.89,stimulus,3,47,,,NoAct
1630286428.28,fixation,1,720,,,PerfumeSession
1630286428.31,stimulus,2,230,,,NoAct
1630286428.39,fixation,3,47,,,NoAct
1630286428.81,fixation,2,230,,,NoAct
1630286429.78,stimulus,1,721,,,PerfumeSession
1630286429.89,stimulus,3,48,,,NoAct
1630286430.28,fixation,1,721,,,PerfumeSession
1630286430.31,stimulus,2,231,,,NoAct
1630286430.39,fixation,3,48,,,NoAct
1630286430.81,fixation,2,231,,,NoAct
1630286431.78,stimulus,1,722,,,PerfumeSession
1630286431.89,stimulus,3,49,,,NoAct
1630286432.28,fixation,1,722,,,PerfumeSession
1630286432.31,stimulus,2,232,,,NoAct
1630286432.39,fixation,3,49,,,NoAct
1630286432.81,fixation,2,232,,,NoAct
1630286433.78,stimulus,1,723,,,PerfumeSession
1630286433.89,stimulus,3,50,,,NoAct
1630286434.28,fixation,1,723,,,PerfumeSession
1630286434.31,stimulus,2,233,,,NoAct
1630286434.39,fixation,3,50,,,NoAct
1630286434.81,fixation,2,233,,,NoAct
1630286435.78,stimulus,1,724,,,PerfumeSession
1630286435.89,stimulus,3,51,,,NoAct
1630286436.28,fixation,1,724,,,PerfumeSession
1630286436.31,stimulus,2,234,,,NoAct
1630286436.39,fixation,3,51,,,NoAct
1630286436.81,fixation,2,234,,,NoAct
1630286437.78,stimulus,1,725,,,PerfumeSession
1630286437.89,stimulus,3,52,,,NoAct
1630286438.28,fixation,1,725,,,PerfumeSession
1630286438.31,stimulus,2,235,,,NoAct
1630286438.39,fixation,3,52,,,NoAct
1630286438.81,fixation,2,235,,,NoAct
1630286439.78,stimulus,1,726,,,PerfumeSession
1630286439.89,stimulus,3,53,,,NoAct
1630286440.28,fixation,1,726,,,PerfumeSession
1630286440.31,stimulus,2,236,,,NoAct
1630286440.39,fixation,3,53,,,NoAct
1630286440.81,fixation,2,236,,,NoAct
1630286441.78,stimulus,1,727,,,PerfumeSession
1630286441.89,stimulus,3,54,,,NoAct
1630286442.28,fixation,1,727,,,PerfumeSession
1630286442.31,stimulus,2,237,,,NoAct
1630286442.39,fixation,3,54,,,NoAct
1630286442.81,fixation,2,237,,,NoAct
1630286443.78,stimulus,1,728,,,PerfumeSession
1630286443.89,stimulus,3,55,,,NoAct
1630286444.28,fixation,1,728,,,PerfumeSession
1630286444.31,stimulus,2,238,,,NoAct
1630286444.39,fixation,3,55,,,NoAct
1630286444.81,fixation,2,238,,,NoAct
1630286445.78,stimulus,1,729,,,PerfumeSession
1630286445.89,stimulus,3,56,,,NoAct
1630286446.28,fixation,1,729,,,PerfumeSession
1630286446.31,stimulus,2,239,,,NoAct
1630286446.39,fixation,3,56,,,NoAct
1630286446.81,fixation,2,239,,,NoAct
1630286447.78,stimulus,1,730,,,PerfumeSession
1630286447.89,stimulus,3,57,,,NoAct
1630286448.28,fixation,1,730,,,PerfumeSession
1630286448.31,stimulus,2,240,,,NoAct
1630286448.39,fixation,3,57,,,NoAct
1630286448.81,fixation,2,240,,,NoAct
1630286449.78,stimulus,1,731,,,PerfumeSession
1630286449.89,stimulus,3,58,,,NoAct
1630286450.28,fixation,1,731,,,PerfumeSession
1630286450.31,stimulus,2,241,,,NoAct
1630286450.39,fixation,3,58,,,NoAct
1630286450.81,fixation,2,241,,,NoAct
1630286451.78,stimulus,1,732,,,PerfumeSession
1630286451.89,stimulus,3,59,,,NoAct
1630286452.28,fixation,1,732,,,PerfumeSession
1630286452.31,stimulus,2,242,,,NoAct
1630286452.39,fixation,3,59,,,NoAct
1630286452.81,fixation,2,242,,,NoAct
1630286453.78,stimulus,1,733,,,PerfumeSession
1630286453.89,stimulus,3,60,,,NoAct
1630286454.28,fixation,1,733,,,PerfumeSession
1630286454.31,stimulus,2,243,,,NoAct
1630286454.39,fixation,3,60,,,NoAct
1630286454.81,fixation,2,243,,,NoAct
1630286455.78,stimulus,1,734,,,PerfumeSession
1630286455.89,stimulus,3,61,,,NoAct
1630286456.28,fixation,1,734,,,PerfumeSession
1630286456.31,stimulus,2,244,,,NoAct
1630286456.39,fixation,3,61,,,NoAct
1630286456.81,fixation,2,244,,,NoAct
1630286457.78,stimulus,1,735,,,PerfumeSession
1630286457.89,stimulus,3,62,,,NoAct
1630286458.28,fixation,1,735,,,PerfumeSession
1630286458.31,stimulus,2,245,,,NoAct
1630286458.39,fixation,3,62,,,NoAct
1630286458.81,fixation,2,245,,,NoAct
1630286459.78,stimulus,1,736,,,PerfumeSession
1630286459.89,stimulus,3,63,,,NoAct
1630286460.28,fixation,1,736,,,PerfumeSession
1630286460.31,stimulus,2,246,,,NoAct
1630286460.39,fixation,3,63,,,NoAct
1630286460.81,fixation,2,246,,,NoAct
1630286461.78,stimulus,1,737,,,PerfumeSession
1630286461.89,stimulus,3,64,,,NoAct
1630286462.28,fixation,1,737,,,PerfumeSession
1630286462.31,stimulus,2,247,,,NoAct
1630286462.39,fixation,3,64,,,NoAct
1630286462.81,fixation,2,247,,,NoAct
1630286463.78,stimulus,1,738,,,PerfumeSession
1630286463.89,stimulus,3,65,,,NoAct
1630286464.28,fixation,1,738,,,PerfumeSession
1630286464.31,stimulus,2,248,,,NoAct
1630286464.39,fixation,3,65,,,NoAct
1630286464.81,fixation,2,248,,,NoAct
1630286465.78,stimulus,1,739,,,PerfumeSession
1630286465.89,stimulus,3,66,,,NoAct
1630286466.28,fixation,1,739,,,PerfumeSession
1630286466.31,stimulus,2,249,,,NoAct
1630286466.39,fixation,3,66,,,NoAct
1630286466.81,fixation,2,249,,,NoAct
1630286467.78,stimulus,1,740,,,PerfumeSession
1630286467.89,stimulus,3,67,,,NoAct
1630286468.28,fixation,1,740,,,PerfumeSession
1630286468.31,stimulus,2,250,,,NoAct
1630286468.39,fixation,3,67,,,NoAct
1630286468.81,fixation,2,250,,,NoAct
1630286469.78,stimulus,1,741,,,PerfumeSession
1630286469.89,stimulus,3,68,,,NoAct
1630286470.28,fixation,1,741,,,PerfumeSession
1630286470.31,stimulus,2,251,,,NoAct
1630286470.39,fixation,3,68,,,NoAct
1630286470.81,fixation,2,251,,,NoAct
1630286471.78,stimulus,1,742,,,PerfumeSession
1630286471.89,stimulus,3,69,,,NoAct
1630286472.28,fixation,1,742,,,PerfumeSession
1630286472.31,stimulus,2,252,,,NoAct
1630286472.39,fixation,3,69,,,NoAct
1630286472.81,fixation,2,252,,,NoAct
1630286473.78,stimulus,1,743,,,PerfumeSession
1630286473.89,stimulus,3,70,,,NoAct
1630286474.28,fixation,1,743,,,PerfumeSession
1630286474.31,stimulus,2,253,,,NoAct
1630286474.39,fixation,3,70,,,NoAct
1630286474.81,fixation,2,253,,,NoAct
1630286475.78,stimulus,1,744,,,PerfumeSession
1630286475.89,stimulus,3,71,,,NoAct
1630286476.28,fixation,1,744,,,PerfumeSession
1630286476.31,stimulus,2,254,,,NoAct
1630286476.39,fixation,3,71,,,NoAct
1630286476.81,fixation,2,254,,,NoAct
1630286477.78,stimulus,1,745,,,PerfumeSession
1630286477.89,stimulus,3,72,,,NoAct
1630286478.28,fixation,1,745,,,PerfumeSession
1630286478.31,stimulus,2,255,,,NoAct
1630286478.39,fixation,3,72,,,NoAct
1630286478.81,fixation,2,255,,,NoAct
1630286479.78,stimulus,1,746,,,PerfumeSession
1630286479.89,stimulus,3,73,,,NoAct
1630286480.28,fixation,1,746,,,PerfumeSession
1630286480.31,stimulus,2,256,,,NoAct
1630286480.39,fixation,3,73,,,NoAct
1630286480.81,fixation,2,256,,,NoAct
1630286481.78,stimulus,1,747,,,PerfumeSession
1630286481.89,stimulus,3,74,,,NoAct
1630286482.28,fixation,1,747,,,PerfumeSession
1630286482.31,stimulus,2,257,,,NoAct
1630286482.39,fixation,3,74,,,NoAct
1630286482.81,fixation,2,257,,,NoAct
1630286483.78,stimulus,1,748,,,PerfumeSession
1630286483.89,stimulus,3,75,,,NoAct
1630286484.28,fixation,1,748,,,PerfumeSession
1630286484.31,stimulus,2,258,,,NoAct
1630286484.39,fixation,3,75,,,NoAct
1630286484.81,fixation,2,258,,,NoAct
1630286485.78,stimulus,1,749,,,PerfumeSession
1630286485.89,stimulus,3,76,,,NoAct
1630286486.28,fixation,1,749,,,PerfumeSession
1630286486.31,stimulus,2,259,,,NoAct
1630286486.39,fixation,3,76,,,NoAct
1630286486.81,fixation,2,259,,,NoAct
1630286487.78,stimulus,1,750,,,PerfumeSession
1630286487.89,stimulus,3,77,,,NoAct
1630286488.28,fixation,1,750,,,PerfumeSession
1630286488.31,stimulus,2,260,,,NoAct
1630286488.39,fixation,3,77,,,NoAct
1630286488.81,fixation,2,260,,,NoAct
1630286489.78,stimulus,1,751,,,CoffeeSession
1630286489.89,stimulus,3,78,,,NoAct
1630286490.28,fixation,1,751,,,CoffeeSession
1630286490.31,stimulus,2,261,,,NoAct
1630286490.39,fixation,3,78,,,NoAct
1630286490.81,fixation,2,261,,,NoAct
1630286491.78,stimulus,1,752,,,CoffeeSession
1630286491.89,stimulus,3,79,,,NoAct
1630286492.28,fixation,1,752,,,CoffeeSession
1630286492.31,stimulus,2,262,,,NoAct
1630286492.39,fixation,3,79,,,NoAct
1630286492.81,fixation,2,262,,,NoAct
1630286493.78,stimulus,1,753,,,CoffeeSession
1630286493.89,stimulus,3,80,,,NoAct
1630286494.28,fixation,1,753,,,CoffeeSession
1630286494.31,stimulus,2,263,,,NoAct
1630286494.39,fixation,3,80,,,NoAct
1630286494.81,fixation,2,263,,,NoAct
1630286495.78,stimulus,1,754,,,CoffeeSession
1630286495.89,stimulus,3,81,,,NoAct
1630286496.28,fixation,1,754,,,CoffeeSession
1630286496.31,stimulus,2,264,,,NoAct
1630286496.39,fixation,3,81,,,NoAct
1630286496.81,fixation,2,264,,,NoAct
1630286497.78,stimulus,1,755,,,CoffeeSession
1630286497.89,stimulus,3,82,,,NoAct
1630286498.28,fixation,1,755,,,CoffeeSession
1630286498.31,stimulus,2,265,,,NoAct
1630286498.39,fixation,3,82,,,NoAct
1630286498.81,fixation,2,265,,,NoAct
1630286499.78,stimulus,1,756,,,CoffeeSession
1630286499.89,stimulus,3,83,,,NoAct
1630286500.28,fixation,1,756,,,CoffeeSession
1630286500.31,stimulus,2,266,,,NoAct
1630286500.39,fixation,3,83,,,NoAct
1630286500.81,fixation,2,266,,,NoAct
1630286501.78,stimulus,1,757,,,CoffeeSession
1630286501.89,stimulus,3,84,,,NoAct
1630286502.28,fixation,1,757,,,CoffeeSession
1630286502.31,stimulus,2,267,,,NoAct
1630286502.39,fixation,3,84,,,NoAct
1630286502.81,fixation,2,267,,,NoAct
1630286503.78,stimulus,1,758,,,CoffeeSession
1630286503.89,stimulus,3,85,,,NoAct
1630286504.28,fixation,1,758,,,CoffeeSession
1630286504.31,stimulus,2,268,,,NoAct
1630286504.39,fixation,3,85,,,NoAct
1630286504.81,fixation,2,268,,,NoAct
1630286505.78,stimulus,1,759,,,CoffeeSession
1630286505.89,stimulus,3,86,,,NoAct
1630286506.28,fixation,1,759,,,CoffeeSession
1630286506.31,stimulus,2,269,,,NoAct
1630286506.39,fixation,3,86,,,NoAct
1630286506.81,fixation,2,269,,,NoAct
1630286507.78,stimulus,1,760,,,CoffeeSession
1630286507.89,stimulus,3,87,,,NoAct
1630286508.28,fixation,1,760,,,CoffeeSession
1630286508.31,stimulus,2,270,,,NoAct
1630286508.39,fixation,3,87,,,NoAct
1630286508.81,fixation,2,270,,,NoAct
1630286509.78,stimulus,1,761,,,CoffeeSession
1630286509.89,stimulus,3,88,,,NoAct
1630286510.28,fixation,1,761,,,CoffeeSession
1630286510.31,stimulus,2,271,,,NoAct
1630286510.39,fixation,3,88,,,NoAct
1630286510.81,fixation,2,271,,,NoAct
1630286511.78,stimulus,1,762,,,CoffeeSession
1630286511.89,stimulus,3,89,,,NoAct
1630286512.28,fixation,1,762,,,CoffeeSession
1630286512.31,stimulus,2,272,,,NoAct
1630286512.39,fixation,3,89,,,NoAct
1630286512.81,fixation,2,272,,,NoAct
1630286513.78,stimulus,1,763,,,CoffeeSession
1630286513.89,stimulus,3,90,,,NoAct
1630286514.28,fixation,1,763,,,CoffeeSession
1630286514.31,stimulus,2,273,,,NoAct
1630286514.39,fixation,3,90,,,NoAct
1630286514.81,fixation,2,273,,,NoAct
1630286515.78,stimulus,1,764,,,CoffeeSession
1630286515.89,stimulus,3,91,,,NoAct
1630286516.28,fixation,1,764,,,CoffeeSession
1630286516.31,stimulus,2,274,,,NoAct
1630286516.39,fixation,3,91,,,NoAct
1630286516.81,fixation,2,274,,,NoAct
1630286517.78,stimulus,1,765,,,CoffeeSession
1630286517.89,stimulus,3,92,,,NoAct
1630286518.28,fixation,1,765,,,CoffeeSession
1630286518.31,stimulus,2,275,,,NoAct
1630286518.39,fixation,3,92,,,NoAct
1630286518.81,fixation,2,275,,,NoAct
1630286519.78,stimulus,1,766,,,CoffeeSession
1630286519.89,stimulus,3,93,,,NoAct
1630286520.28,fixation,1,766,,,CoffeeSession
1630286520.31,stimulus,2,276,,,NoAct
1630286520.39,fixation,3,93,,,NoAct
1630286520.81,fixation,2,276,,,NoAct
1630286521.78,stimulus,1,767,,,CoffeeSession
1630286521.89,stimulus,3,94,,,NoAct
1630286522.28,fixation,1,767,,,CoffeeSession
1630286522.31,stimulus,2,277,,,NoAct
1630286522.39,fixation,3,94,,,NoAct
1630286522.81,fixation,2,277,,,NoAct
1630286523.78,stimulus,1,768,,,CoffeeSession
1630286523.89,stimulus,3,95,,,NoAct
1630286524.28,fixation,1,768,,,CoffeeSession
1630286524.31,stimulus,2,278,,,NoAct
1630286524.39,fixation,3,95,,,NoAct
1630286524.81,fixation,2,278,,,NoAct
1630286525.78,stimulus,1,769,,,CoffeeSession
1630286525.89,stimulus,3,96,,,NoAct
1630286526.28,fixation,1,769,,,CoffeeSession
1630286526.31,stimulus,2,279,,,NoAct
1630286526.39,fixation,3,96,,,NoAct
1630286526.81,fixation,2,279,,,NoAct
1630286527.78,stimulus,1,770,,,CoffeeSession
1630286527.89,stimulus,3,97,,,NoAct
1630286528.28,fixation,1,770,,,CoffeeSession
1630286528.31,stimulus,2,280,,,NoAct
1630286528.39,fixation,3,97,,,NoAct
1630286528.81,fixation,2,280,,,NoAct
1630286529.78,stimulus,1,771,,,CoffeeSession
1630286529.89,stimulus,3,98,,,NoAct
1630286530.28,fixation,1,771,,,CoffeeSession
1630286530.31,stimulus,2,281,,,NoAct
1630286530.39,fixation,3,98,,,NoAct
1630286530.81,fixation,2,281,,,NoAct
1630286531.78,stimulus,1,772,,,CoffeeSession
1630286531.89,stimulus,3,99,,,NoAct
1630286532.28,fixation,1,772,,,CoffeeSession
1630286532.31,stimulus,2,282,,,NoAct
1630286532.39,fixation,3,99,,,NoAct
1630286532.81,fixation,2,282,,,NoAct
1630286533.78,stimulus,1,773,,,CoffeeSession
1630286533.89,stimulus,3,100,,,NoAct
1630286534.28,fixation,1,773,,,CoffeeSession
1630286534.31,stimulus,2,283,,,NoAct
1630286534.39,fixation,3,100,,,NoAct
1630286534.81,fixation,2,283,,,NoAct
1630286535.78,stimulus,1,774,,,CoffeeSession
1630286535.89,stimulus,3,101,,,NoAct
1630286536.28,fixation,1,774,,,CoffeeSession
1630286536.31,stimulus,2,284,,,NoAct
1630286536.39,fixation,3,101,,,NoAct
1630286536.81,fixation,2,284,,,NoAct
1630286537.78,stimulus,1,775,,,CoffeeSession
1630286537.89,stimulus,3,102,,,NoAct
1630286538.28,fixation,1,775,,,CoffeeSession
1630286538.31,stimulus,2,285,,,NoAct
1630286538.39,fixation,3,102,,,NoAct
1630286538.81,fixation,2,285,,,NoAct
1630286539.78,stimulus,1,776,,,CoffeeSession
1630286539.89,stimulus,3,103,,,NoAct
1630286540.28,fixation,1,776,,,CoffeeSession
1630286540.31,stimulus,2,286,,,NoAct
1630286540.39,fixation,3,103,,,NoAct
1630286540.81,fixation,2,286,,,NoAct
1630286541.78,stimulus,1,777,,,CoffeeSession
1630286541.89,stimulus,3,104,,,NoAct
1630286542.28,fixation,1,777,,,CoffeeSession
1630286542.31,stimulus,2,287,,,NoAct
1630286542.39,fixation,3,104,,,NoAct
1630286542.81,fixation,2,287,,,NoAct
1630286543.78,stimulus,1,778,,,CoffeeSession
1630286543.89,stimulus,3,105,,,NoAct
1630286544.28,fixation,1,778,,,CoffeeSession
1630286544.31,stimulus,2,288,,,NoAct
1630286544.39,fixation,3,105,,,NoAct
1630286544.81,fixation,2,288,,,NoAct
1630286545.78,stimulus,1,779,,,CoffeeSession
1630286545.89,stimulus,3,106,,,NoAct
1630286546.28,fixation,1,779,,,CoffeeSession
1630286546.31,stimulus,2,289,,,NoAct
1630286546.39,fixation,3,106,,,NoAct
1630286546.81,fixation,2,289,,,NoAct
1630286547.78,stimulus,1,780,,,CoffeeSession
1630286547.89,stimulus,3,107,,,NoAct
1630286548.28,fixation,1,780,,,CoffeeSession
1630286548.31,stimulus,2,290,,,NoAct
