event_time_s,trial_type,session_idx,trial_idx,RT_s,ACC,session_type
1625340692.47,stimulus,1,1,,,PracticeSession
1625340692.97,fixation,1,1,,,PracticeSession
1625340694.47,stimulus,1,2,,,PracticeSession
1625340694.97,fixation,1,2,,,PracticeSession
1625340696.47,stimulus,1,3,,,PracticeSession
1625340696.97,fixation,1,3,,,PracticeSession
1625340698.47,stimulus,1,4,,,PracticeSession
1625340698.97,fixation,1,4,,,PracticeSession
1625340700.47,stimulus,1,5,,,PracticeSession
1625340700.97,fixation,1,5,,,PracticeSession
1625340702.47,stimulus,1,6,,,PracticeSession
1625340702.97,fixation,1,6,,,PracticeSession
1625340704.47,stimulus,1,7,,,PracticeSession
1625340704.97,fixation,1,7,,,PracticeSession
1625340706.47,stimulus,1,8,,,PracticeSession
1625340706.97,fixation,1,8,,,PracticeSession
1625340708.47,stimulus,1,9,,,PracticeSession
1625340708.97,fixation,1,9,,,PracticeSession
1625340710.47,stimulus,1,10,,,PracticeSession
1625340710.97,fixation,1,10,,,PracticeSession
1625340712.47,stimulus,1,11,,,PracticeSession
1625340712.97,fixation,1,11,,,PracticeSession
1625340714.47,stimulus,1,12,,,PracticeSession
1625340714.97,fixation,1,12,,,PracticeSession
1625340716.47,stimulus,1,13,,,PracticeSession
1625340716.97,fixation,1,13,,,PracticeSession
1625340718.47,stimulus,1,14,,,PracticeSession
1625340718.97,fixation,1,14,,,PracticeSession
1625340720.47,stimulus,1,15,,,PracticeSession
1625340720.97,fixation,1,15,,,PracticeSession
1625340722.47,stimulus,1,16,,,PracticeSession
1625340722.97,fixation,1,16,,,PracticeSession
1625340724.47,stimulus,1,17,,,PracticeSession
1625340724.97,fixation,1,17,,,PracticeSession
1625340726.47,stimulus,1,18,,,PracticeSession
1625340726.97,fixation,1,18,,,PracticeSession
1625340728.47,stimulus,1,19,,,PracticeSession
1625340728.97,fixation,1,19,,,PracticeSession
1625340730.47,stimulus,1,20,,,PracticeSession
1625340730.97,fixation,1,20,,,PracticeSession
1625340732.47,stimulus,1,21,,,PracticeSession
1625340732.97,fixation,1,21,,,PracticeSession
1625340734.47,stimulus,1,22,,,PracticeSession
1625340734.97,fixation,1,22,,,PracticeSession
1625340736.47,stimulus,1,23,,,PracticeSession
1625340736.97,fixation,1,23,,,PracticeSession
1625340738.47,stimulus,1,24,,,PracticeSession
1625340738.97,fixation,1,24,,,PracticeSession
1625340740.47,stimulus,1,25,,,PracticeSession
1625340740.97,fixation,1,25,,,PracticeSession
1625340742.47,stimulus,1,26,,,PracticeSession
1625340742.97,fixation,1,26,,,PracticeSession
1625340744.47,stimulus,1,27,,,PracticeSession
1625340744.97,fixation,1,27,,,PracticeSession
1625340746.47,stimulus,1,28,,,PracticeSession
1625340746.97,fixation,1,28,,,PracticeSession
1625340748.47,stimulus,1,29,,,PracticeSession
1625340748.97,fixation,1,29,,,PracticeSession
1625340750.47,stimulus,1,30,,,PracticeSession
1625340750.97,fixation,1,30,,,PracticeSession
1625340752.47,stimulus,1,31,,,PracticeSession
1625340752.97,fixation,1,31,,,PracticeSession
1625340754.47,stimulus,1,32,,,PracticeSession
1625340754.97,fixation,1,32,,,PracticeSession
1625340756.47,stimulus,1,33,,,PracticeSession
1625340756.97,fixation,1,33,,,PracticeSession
1625340758.47,stimulus,1,34,,,PracticeSession
1625340758.97,fixation,1,34,,,PracticeSession
1625340760.47,stimulus,1,35,,,PracticeSession
1625340760.97,fixation,1,35,,,PracticeSession
1625340762.47,stimulus,1,36,,,PracticeSession
1625340762.97,fixation,1,36,,,PracticeSession
1625340764.47,stimulus,1,37,,,PracticeSession
1625340764.97,fixation,1,37,,,PracticeSession
1625340766.47,stimulus,1,38,,,PracticeSession
1625340766.97,fixation,1,38,,,PracticeSession
1625340768.47,stimulus,1,39,,,PracticeSession
1625340768.97,fixation,1,39,,,PracticeSession
1625340770.47,stimulus,1,40,,,PracticeSession
1625340770.97,fixation,1,40,,,PracticeSession
1625340772.47,stimulus,1,41,,,PracticeSession
1625340772.97,fixation,1,41,,,PracticeSession
1625340774.47,stimulus,1,42,,,PracticeSession
1625340774.97,fixation,1,42,,,PracticeSession
1625340776.47,stimulus,1,43,,,PracticeSession
1625340776.97,fixation,1,43,,,PracticeSession
1625340778.47,stimulus,1,44,,,PracticeSession
1625340778.97,fixation,1,44,,,PracticeSession
1625340780.47,stimulus,1,45,,0.0,NoAct
1625340781.25,fixation,1,45,0.28,1.0,NoAct
1625340782.914,stimulus,1,46,0.444,1.0,NoAct
1625340782.97,fixation,1,46,,0.0,NoAct
1625340784.786,stimulus,1,47,0.316,1.0,NoAct
1625340784.97,fixation,1,47,,0.0,NoAct
1625340786.47,stimulus,1,48,,0.0,NoAct
1625340787.069,fixation,1,48,0.099,1.0,NoAct
1625340788.47,stimulus,1,49,,0.0,NoAct
1625340788.971,fixation,1,49,0.001,1.0,NoAct
1625340790.889,stimulus,1,50,0.419,1.0,NoAct
1625340790.97,fixation,1,50,,0.0,NoAct
1625340792.959,stimulus,1,51,0.489,0.0,NoAct
1625340792.97,fixation,1,51,,0.0,NoAct
1625340794.927,stimulus,1,52,0.457,1.0,NoAct
1625340794.97,fixation,1,52,,0.0,NoAct
1625340796.855,stimulus,1,53,0.385,1.0,NoAct
1625340796.97,fixation,1,53,,0.0,NoAct
1625340798.47,stimulus,1,54,,0.0,NoAct
1625340799.25,fixation,1,54,0.28,1.0,NoAct
1625340800.47,stimulus,1,55,,0.0,NoAct
1625340801.101,fixation,1,55,0.131,1.0,NoAct
1625340802.901,stimulus,1,56,0.431,1.0,NoAct
1625340802.97,fixation,1,56,,0.0,NoAct
1625340804.901,stimulus,1,57,0.431,1.0,NoAct
1625340804.97,fixation,1,57,,0.0,NoAct
1625340806.9520001,stimulus,1,58,0.482,1.0,NoAct
1625340806.97,fixation,1,58,,0.0,NoAct
1625340808.965,stimulus,1,59,0.495,1.0,NoAct
1625340808.97,fixation,1,59,,0.0,NoAct
1625340810.835,stimulus,1,60,0.365,1.0,NoAct
1625340810.97,fixation,1,60,,0.0,NoAct
1625340812.47,stimulus,1,61,,0.0,NoAct
1625340813.009,fixation,1,61,0.039,1.0,NoAct
1625340814.882,stimulus,1,62,0.412,1.0,NoAct
1625340814.97,fixation,1,62,,0.0,NoAct
1625340816.47,stimulus,1,63,,0.0,NoAct
1625340817.163,fixation,1,63,0.193,1.0,NoAct
1625340818.922,stimulus,1,64,0.452,1.0,NoAct
1625340818.97,fixation,1,64,,0.0,NoAct
1625340820.881,stimulus,1,65,0.411,1.0,NoAct
1625340820.97,fixation,1,65,,0.0,NoAct
1625340822.862,stimulus,1,66,0.392,1.0,NoAct
1625340822.97,fixation,1,66,,0.0,NoAct
1625340824.47,stimulus,1,67,,0.0,NoAct
1625340824.984,fixation,1,67,0.014,1.0,NoAct
1625340826.785,stimulus,1,68,0.315,1.0,NoAct
1625340826.97,fixation,1,68,,0.0,NoAct
1625340828.8370001,stimulus,1,69,0.367,1.0,NoAct
1625340828.97,fixation,1,69,,0.0,NoAct
1625340830.877,stimulus,1,70,0.407,1.0,NoAct
1625340830.97,fixation,1,70,,0.0,NoAct
1625340832.834,stimulus,1,71,0.364,1.0,NoAct
1625340832.97,fixation,1,71,,0.0,NoAct
1625340834.47,stimulus,1,72,,0.0,NoAct
1625340834.978,fixation,1,72,0.008,1.0,NoAct
1625340836.8730001,stimulus,1,73,0.403,0.0,NoAct
1625340836.97,fixation,1,73,,0.0,NoAct
1625340838.864,stimulus,1,74,0.394,1.0,NoAct
1625340838.97,fixation,1,74,,0.0,NoAct
1625340840.866,stimulus,1,75,0.396,1.0,NoAct
1625340840.97,fixation,1,75,,0.0,NoAct
1625340842.803,stimulus,1,76,0.333,0.0,NoAct
1625340842.97,fixation,1,76,,0.0,NoAct
1625340844.8830001,stimulus,1,77,0.413,0.0,NoAct
1625340844.97,fixation,1,77,,0.0,NoAct
1625340846.944,stimulus,1,78,0.474,1.0,NoAct
1625340846.97,fixation,1,78,,0.0,NoAct
1625340848.47,stimulus,1,79,,0.0,NoAct
1625340849.013,fixation,1,79,0.043,1.0,NoAct
1625340850.888,stimulus,1,80,0.418,1.0,NoAct
1625340850.97,fixation,1,80,,0.0,NoAct
1625340852.9060001,stimulus,1,81,0.436,1.0,NoAct
1625340852.97,fixation,1,81,,0.0,NoAct
1625340854.945,stimulus,1,82,0.475,0.0,NoAct
1625340854.97,fixation,1,82,,0.0,NoAct
1625340856.845,stimulus,1,83,0.375,1.0,NoAct
1625340856.97,fixation,1,83,,0.0,NoAct
1625340858.47,stimulus,1,84,,0.0,NoAct
1625340859.058,fixation,1,84,0.088,1.0,NoAct
1625340860.869,stimulus,1,85,0.399,1.0,NoAct
1625340860.97,fixation,1,85,,0.0,NoAct
1625340862.954,stimulus,1,86,0.484,1.0,NoAct
1625340862.97,fixation,1,86,,0.0,NoAct
1625340864.819,stimulus,1,87,0.349,1.0,NoAct
1625340864.97,fixation,1,87,,0.0,NoAct
1625340866.47,stimulus,1,88,,0.0,NoAct
1625340866.984,fixation,1,88,0.014,1.0,NoAct
1625340868.47,stimulus,1,89,,0.0,NoAct
1625340869.381,fixation,1,89,0.411,1.0,NoAct
1625340870.815,stimulus,1,90,0.345,1.0,NoAct
1625340870.97,fixation,1,90,,0.0,NoAct
1625340872.752,stimulus,1,91,0.282,1.0,NoAct
1625340872.97,fixation,1,91,,0.0,NoAct
1625340874.815,stimulus,1,92,0.345,1.0,NoAct
1625340874.97,fixation,1,92,,0.0,NoAct
1625340876.881,stimulus,1,93,0.411,1.0,NoAct
1625340876.97,fixation,1,93,,0.0,NoAct
1625340878.7910001,stimulus,1,94,0.321,1.0,NoAct
1625340878.97,fixation,1,94,,0.0,NoAct
1625340880.869,stimulus,1,95,0.399,1.0,NoAct
1625340880.97,fixation,1,95,,0.0,NoAct
1625340882.47,stimulus,1,96,,0.0,NoAct
1625340882.97,fixation,1,96,,0.0,NoAct
1625340884.47,stimulus,1,97,,0.0,NoAct
1625340885.0640001,fixation,1,97,0.094,1.0,NoAct
1625340886.47,stimulus,1,98,,0.0,NoAct
1625340887.1560001,fixation,1,98,0.186,1.0,NoAct
1625340888.47,stimulus,1,99,,0.0,NoAct
1625340889.042,fixation,1,99,0.072,1.0,NoAct
1625340890.47,stimulus,1,100,,0.0,NoAct
1625340891.098,fixation,1,100,0.128,1.0,NoAct
1625340892.47,stimulus,1,101,,0.0,NoAct
1625340893.03,fixation,1,101,0.06,1.0,NoAct
1625340894.8370001,stimulus,1,102,0.367,0.0,NoAct
1625340894.97,fixation,1,102,,0.0,NoAct
1625340896.954,stimulus,1,103,0.484,1.0,NoAct
1625340896.97,fixation,1,103,,0.0,NoAct
1625340898.47,stimulus,1,104,,0.0,NoAct
1625340898.982,fixation,1,104,0.012,0.0,NoAct
1625340900.47,stimulus,1,105,,0.0,NoAct
1625340901.0210001,fixation,1,105,0.051,1.0,NoAct
1625340902.47,stimulus,1,106,,0.0,NoAct
1625340903.069,fixation,1,106,0.099,1.0,NoAct
1625340904.47,stimulus,1,107,,0.0,NoAct
1625340904.971,fixation,1,107,0.001,0.0,NoAct
1625340906.963,stimulus,1,108,0.493,1.0,NoAct
1625340906.97,fixation,1,108,,0.0,NoAct
1625340908.47,stimulus,1,109,,0.0,NoAct
1625340909.125,fixation,1,109,0.155,1.0,NoAct
1625340910.47,stimulus,1,110,,0.0,NoAct
1625340911.066,fixation,1,110,0.096,1.0,NoAct
1625340912.47,stimulus,1,111,,0.0,NoAct
1625340913.2810001,fixation,1,111,0.311,1.0,NoAct
1625340914.47,stimulus,1,112,,0.0,NoAct
1625340914.981,fixation,1,112,0.011,1.0,NoAct
1625340916.853,stimulus,1,113,0.383,1.0,NoAct
1625340916.97,fixation,1,113,,0.0,NoAct
1625340918.849,stimulus,1,114,0.379,1.0,NoAct
1625340918.97,fixation,1,114,,0.0,NoAct
1625340920.829,stimulus,1,115,0.359,1.0,NoAct
1625340920.97,fixation,1,115,,0.0,NoAct
1625340922.802,stimulus,1,116,0.332,1.0,NoAct
1625340922.97,fixation,1,116,,0.0,NoAct
1625340924.721,stimulus,1,117,0.251,1.0,NoAct
1625340924.97,fixation,1,117,,0.0,NoAct
1625340926.47,stimulus,1,118,,0.0,NoAct
1625340927.051,fixation,1,118,0.081,1.0,NoAct
1625340928.47,stimulus,1,119,,0.0,NoAct
1625340929.098,fixation,1,119,0.128,1.0,NoAct
1625340930.95,stimulus,1,120,0.48,1.0,NoAct
1625340930.97,fixation,1,120,,0.0,NoAct
1625340932.47,stimulus,1,121,,0.0,NoAct
1625340933.0,fixation,1,121,0.03,1.0,NoAct
1625340934.47,stimulus,1,122,,0.0,NoAct
1625340935.115,fixation,1,122,0.145,1.0,NoAct
1625340936.913,stimulus,1,123,0.443,1.0,NoAct
1625340936.97,fixation,1,123,,0.0,NoAct
1625340938.951,stimulus,1,124,0.481,1.0,NoAct
1625340938.97,fixation,1,124,,0.0,NoAct
1625340940.47,stimulus,1,125,,0.0,NoAct
1625340941.045,fixation,1,125,0.075,1.0,NoAct
1625340942.47,stimulus,1,126,,0.0,NoAct
1625340943.052,fixation,1,126,0.082,1.0,NoAct
1625340944.965,stimulus,1,127,0.495,1.0,NoAct
1625340944.97,fixation,1,127,,0.0,NoAct
1625340946.47,stimulus,1,128,,0.0,NoAct
1625340946.97,fixation,1,128,,0.0,NoAct
1625340948.956,stimulus,1,129,0.486,1.0,NoAct
1625340948.97,fixation,1,129,,0.0,NoAct
1625340950.47,stimulus,1,130,,0.0,NoAct
1625340951.128,fixation,1,130,0.158,1.0,NoAct
1625340952.964,stimulus,1,131,0.494,1.0,NoAct
1625340952.97,fixation,1,131,,0.0,NoAct
1625340954.903,stimulus,1,132,0.433,1.0,NoAct
1625340954.97,fixation,1,132,,0.0,NoAct
1625340956.47,stimulus,1,133,,0.0,NoAct
1625340957.197,fixation,1,133,0.227,1.0,NoAct
1625340958.755,stimulus,1,134,0.285,1.0,NoAct
1625340958.97,fixation,1,134,,0.0,NoAct
1625340960.931,stimulus,1,135,0.461,1.0,NoAct
1625340960.97,fixation,1,135,,0.0,NoAct
1625340962.93,stimulus,1,136,0.46,1.0,NoAct
1625340962.97,fixation,1,136,,0.0,NoAct
1625340964.874,stimulus,1,137,0.404,1.0,NoAct
1625340964.97,fixation,1,137,,0.0,NoAct
1625340966.47,stimulus,1,138,,0.0,NoAct
1625340967.04,fixation,1,138,0.07,1.0,NoAct
1625340968.47,stimulus,1,139,,0.0,NoAct
1625340969.081,fixation,1,139,0.111,0.0,NoAct
1625340970.47,stimulus,1,140,,0.0,NoAct
1625340971.16,fixation,1,140,0.19,1.0,NoAct
1625340972.47,stimulus,1,141,,0.0,NoAct
1625340973.234,fixation,1,141,0.264,0.0,NoAct
1625340974.901,stimulus,1,142,0.431,1.0,NoAct
1625340974.97,fixation,1,142,,0.0,NoAct
1625340976.828,stimulus,1,143,0.358,1.0,NoAct
1625340976.97,fixation,1,143,,0.0,NoAct
1625340978.47,stimulus,1,144,,0.0,NoAct
1625340979.1230001,fixation,1,144,0.153,1.0,NoAct
1625340980.47,stimulus,1,145,,0.0,NoAct
1625340981.113,fixation,1,145,0.143,0.0,NoAct
1625340982.47,stimulus,1,146,,0.0,NoAct
1625340983.4950001,fixation,1,146,0.525,1.0,NoAct
1625340984.47,stimulus,1,147,,0.0,NoAct
1625340986.263,fixation,1,147,1.293,1.0,NoAct
1625340986.47,stimulus,1,148,,0.0,NoAct
1625340987.401,fixation,1,148,0.431,1.0,NoAct
1625340988.47,stimulus,1,149,,0.0,NoAct
1625340989.005,fixation,1,149,0.035,1.0,NoAct
1625340990.812,stimulus,1,150,0.342,0.0,NoAct
1625340990.97,fixation,1,150,,0.0,NoAct
1625340992.8240001,stimulus,1,151,0.354,1.0,NoAct
1625340992.97,fixation,1,151,,0.0,NoAct
1625340994.83,stimulus,1,152,0.36,1.0,NoAct
1625340994.97,fixation,1,152,,0.0,NoAct
1625340996.895,stimulus,1,153,0.425,1.0,NoAct
1625340996.97,fixation,1,153,,0.0,NoAct
1625340998.47,stimulus,1,154,,0.0,NoAct
1625340999.163,fixation,1,154,0.193,1.0,NoAct
1625341000.913,stimulus,1,155,0.443,1.0,NoAct
1625341000.97,fixation,1,155,,0.0,NoAct
1625341002.941,stimulus,1,156,0.471,1.0,NoAct
1625341002.97,fixation,1,156,,0.0,NoAct
1625341004.754,stimulus,1,157,0.284,1.0,NoAct
1625341004.97,fixation,1,157,,0.0,NoAct
1625341006.898,stimulus,1,158,0.428,1.0,NoAct
1625341006.97,fixation,1,158,,0.0,NoAct
1625341008.892,stimulus,1,159,0.422,0.0,NoAct
1625341009.567,fixation,1,159,0.597,1.0,NoAct
1625341010.47,stimulus,1,160,,0.0,NoAct
1625341011.0310001,fixation,1,160,0.061,1.0,NoAct
1625341012.47,stimulus,1,161,,0.0,NoAct
1625341013.0210001,fixation,1,161,0.051,1.0,NoAct
1625341014.47,stimulus,1,162,,0.0,NoAct
1625341015.047,fixation,1,162,0.077,1.0,NoAct
1625341016.47,stimulus,1,163,,0.0,NoAct
1625341017.219,fixation,1,163,0.249,1.0,NoAct
1625341018.47,stimulus,1,164,,0.0,NoAct
1625341019.093,fixation,1,164,0.123,1.0,NoAct
1625341020.47,stimulus,1,165,,0.0,NoAct
1625341021.086,fixation,1,165,0.116,1.0,NoAct
1625341022.47,stimulus,1,166,,0.0,NoAct
1625341023.528,fixation,1,166,0.558,1.0,NoAct
1625341024.47,stimulus,1,167,,0.0,NoAct
1625341025.0410001,fixation,1,167,0.071,1.0,NoAct
1625341026.96,stimulus,1,168,0.49,1.0,NoAct
1625341026.97,fixation,1,168,,0.0,NoAct
1625341028.47,stimulus,1,169,,0.0,NoAct
1625341029.059,fixation,1,169,0.089,1.0,NoAct
1625341030.47,stimulus,1,170,,0.0,NoAct
1625341030.977,fixation,1,170,0.007,1.0,NoAct
1625341032.938,stimulus,1,171,0.468,1.0,NoAct
1625341032.97,fixation,1,171,,0.0,NoAct
1625341034.47,stimulus,1,172,,0.0,NoAct
1625341035.135,fixation,1,172,0.165,1.0,NoAct
1625341036.47,stimulus,1,173,,0.0,NoAct
1625341037.0310001,fixation,1,173,0.061,1.0,NoAct
1625341038.47,stimulus,1,174,,0.0,NoAct
1625341039.308,fixation,1,174,0.338,1.0,NoAct
1625341040.47,stimulus,1,175,,0.0,NoAct
1625341041.0310001,fixation,1,175,0.061,0.0,NoAct
1625341042.47,stimulus,1,176,,0.0,NoAct
1625341043.0310001,fixation,1,176,0.061,1.0,NoAct
1625341044.47,stimulus,1,177,,0.0,NoAct
1625341044.984,fixation,1,177,0.014,1.0,NoAct
1625341046.815,stimulus,1,178,0.345,1.0,NoAct
1625341046.97,fixation,1,178,,0.0,NoAct
1625341048.932,stimulus,1,179,0.462,1.0,NoAct
1625341048.97,fixation,1,179,,0.0,NoAct
1625341050.47,stimulus,1,180,,0.0,NoAct
1625341051.713,fixation,1,180,0.743,0.0,NoAct
1625341052.47,stimulus,1,181,,0.0,NoAct
1625341053.301,fixation,1,181,0.331,1.0,NoAct
1625341054.47,stimulus,1,182,,0.0,NoAct
1625341055.15,fixation,1,182,0.18,1.0,NoAct
1625341056.47,stimulus,1,183,,0.0,NoAct
1625341057.421,fixation,1,183,0.451,1.0,NoAct
1625341058.47,stimulus,1,184,,0.0,NoAct
1625341059.215,fixation,1,184,0.245,1.0,NoAct
1625341060.47,stimulus,1,185,,0.0,NoAct
1625341060.987,fixation,1,185,0.017,1.0,NoAct
1625341062.47,stimulus,1,186,,0.0,NoAct
1625341063.341,fixation,1,186,0.371,1.0,NoAct
1625341064.47,stimulus,1,187,,0.0,NoAct
1625341064.973,fixation,1,187,0.003,1.0,NoAct
1625341066.47,stimulus,1,188,,0.0,NoAct
1625341066.989,fixation,1,188,0.019,1.0,NoAct
1625341068.47,stimulus,1,189,,0.0,NoAct
1625341069.412,fixation,1,189,0.442,1.0,NoAct
1625341070.47,stimulus,1,190,,0.0,NoAct
1625341071.232,fixation,1,190,0.262,1.0,NoAct
1625341072.47,stimulus,1,191,,0.0,NoAct
1625341073.262,fixation,1,191,0.292,1.0,NoAct
1625341074.47,stimulus,1,192,,0.0,NoAct
1625341075.263,fixation,1,192,0.293,1.0,NoAct
1625341076.47,stimulus,1,193,,0.0,NoAct
1625341077.308,fixation,1,193,0.338,1.0,NoAct
1625341078.47,stimulus,1,194,,0.0,NoAct
1625341079.227,fixation,1,194,0.257,1.0,NoAct
1625341080.47,stimulus,1,195,,0.0,NoAct
1625341081.236,fixation,1,195,0.266,1.0,NoAct
1625341082.47,stimulus,1,196,,0.0,NoAct
1625341083.228,fixation,1,196,0.258,1.0,NoAct
1625341084.47,stimulus,1,197,,0.0,NoAct
1625341085.261,fixation,1,197,0.291,1.0,NoAct
1625341086.47,stimulus,1,198,,0.0,NoAct
1625341087.31,fixation,1,198,0.34,1.0,NoAct
1625341088.47,stimulus,1,199,,0.0,NoAct
1625341089.099,fixation,1,199,0.129,1.0,NoAct
1625341090.8370001,stimulus,1,200,0.367,1.0,NoAct
1625341090.97,fixation,1,200,,0.0,NoAct
1625341092.47,stimulus,1,201,,0.0,NoAct
1625341093.602,fixation,1,201,0.632,1.0,NoAct
1625341094.47,stimulus,1,202,,0.0,NoAct
1625341096.194,fixation,1,202,1.224,1.0,NoAct
1625341096.47,stimulus,1,203,,0.0,NoAct
1625341098.467,fixation,1,203,1.497,0.0,NoAct
1625341098.47,stimulus,1,204,,0.0,NoAct
1625341099.78,fixation,1,204,0.81,1.0,NoAct
1625341100.47,stimulus,1,205,,0.0,NoAct
1625341101.3040001,fixation,1,205,0.334,1.0,NoAct
1625341102.47,stimulus,1,206,,0.0,NoAct
1625341104.142,fixation,1,206,1.172,1.0,NoAct
1625341104.47,stimulus,1,207,,0.0,NoAct
1625341105.3600001,fixation,1,207,0.39,0.0,NoAct
1625341106.47,stimulus,1,208,,0.0,NoAct
1625341107.1560001,fixation,1,208,0.186,0.0,NoAct
1625341108.47,stimulus,1,209,,0.0,NoAct
1625341109.085,fixation,1,209,0.115,1.0,NoAct
1625341110.47,stimulus,1,210,,0.0,NoAct
1625341111.418,fixation,1,210,0.448,1.0,NoAct
1625341112.47,stimulus,1,211,,0.0,NoAct
1625341113.26,fixation,1,211,0.29,1.0,NoAct
1625341114.47,stimulus,1,212,,0.0,NoAct
1625341115.108,fixation,1,212,0.138,1.0,NoAct
1625341116.47,stimulus,1,213,,0.0,NoAct
1625341117.1200001,fixation,1,213,0.15,1.0,NoAct
1625341118.47,stimulus,1,214,,0.0,NoAct
1625341119.525,fixation,1,214,0.555,1.0,NoAct
1625341120.47,stimulus,1,215,,0.0,NoAct
1625341121.226,fixation,1,215,0.256,1.0,NoAct
1625341122.47,stimulus,1,216,,0.0,NoAct
1625341123.081,fixation,1,216,0.111,1.0,NoAct
1625341124.47,stimulus,1,217,,0.0,NoAct
1625341125.069,fixation,1,217,0.099,1.0,NoAct
1625341126.47,stimulus,1,218,,0.0,NoAct
1625341127.106,fixation,1,218,0.136,1.0,NoAct
1625341128.47,stimulus,1,219,,0.0,NoAct
1625341129.302,fixation,1,219,0.332,1.0,NoAct
1625341130.47,stimulus,1,220,,0.0,NoAct
1625341131.134,fixation,1,220,0.164,1.0,NoAct
1625341132.47,stimulus,1,221,,,NoAct
1625341132.97,fixation,1,221,,,NoAct
1625341134.47,stimulus,1,222,,0.0,NoAct
1625341135.609,fixation,1,222,0.639,1.0,NoAct
1625341136.47,stimulus,1,223,,0.0,NoAct
1625341137.178,fixation,1,223,0.208,1.0,NoAct
1625341138.47,stimulus,1,224,,0.0,NoAct
1625341139.089,fixation,1,224,0.119,1.0,NoAct
1625341140.47,stimulus,1,225,,0.0,NoAct
1625341141.226,fixation,1,225,0.256,1.0,NoAct
1625341142.47,stimulus,1,226,,0.0,NoAct
1625341143.3040001,fixation,1,226,0.334,1.0,NoAct
1625341144.47,stimulus,1,227,,0.0,NoAct
1625341145.26,fixation,1,227,0.29,1.0,NoAct
1625341146.47,stimulus,1,228,,0.0,NoAct
1625341147.224,fixation,1,228,0.254,1.0,NoAct
1625341148.47,stimulus,1,229,,0.0,NoAct
1625341149.153,fixation,1,229,0.183,1.0,NoAct
1625341150.47,stimulus,1,230,,0.0,NoAct
1625341151.925,fixation,1,230,0.955,1.0,NoAct
1625341152.47,stimulus,1,231,,0.0,NoAct
1625341153.389,fixation,1,231,0.419,0.0,NoAct
1625341154.47,stimulus,1,232,,0.0,NoAct
1625341155.306,fixation,1,232,0.336,1.0,NoAct
1625341156.47,stimulus,1,233,,0.0,NoAct
1625341157.082,fixation,1,233,0.112,1.0,NoAct
1625341158.47,stimulus,1,234,,0.0,NoAct
1625341159.2710001,fixation,1,234,0.301,0.0,NoAct
1625341160.47,stimulus,1,235,,0.0,NoAct
1625341161.096,fixation,1,235,0.126,0.0,NoAct
1625341162.47,stimulus,1,236,,0.0,NoAct
1625341163.032,fixation,1,236,0.062,0.0,NoAct
1625341164.47,stimulus,1,237,,0.0,NoAct
1625341165.8370001,fixation,1,237,0.867,1.0,NoAct
1625341166.47,stimulus,1,238,,0.0,NoAct
1625341167.128,fixation,1,238,0.158,0.0,NoAct
1625341168.47,stimulus,1,239,,0.0,NoAct
1625341170.185,fixation,1,239,1.215,1.0,NoAct
1625341170.47,stimulus,1,240,,0.0,NoAct
1625341172.389,fixation,1,240,1.419,1.0,NoAct
1625341172.47,stimulus,1,241,,0.0,NoAct
1625341172.97,fixation,1,241,,0.0,NoAct
1625341174.47,stimulus,1,242,,0.0,NoAct
1625341175.233,fixation,1,242,0.263,1.0,NoAct
1625341176.47,stimulus,1,243,,0.0,NoAct
1625341176.97,fixation,1,243,,0.0,NoAct
1625341178.47,stimulus,1,244,,0.0,NoAct
1625341179.364,fixation,1,244,0.394,1.0,NoAct
1625341180.47,stimulus,1,245,,0.0,NoAct
1625341181.411,fixation,1,245,0.441,1.0,NoAct
1625341182.47,stimulus,1,246,,0.0,NoAct
1625341183.107,fixation,1,246,0.137,1.0,NoAct
1625341184.47,stimulus,1,247,,0.0,NoAct
1625341185.1330001,fixation,1,247,0.163,1.0,NoAct
1625341186.47,stimulus,1,248,,0.0,NoAct
1625341187.1990001,fixation,1,248,0.229,1.0,NoAct
1625341188.47,stimulus,1,249,,0.0,NoAct
1625341189.161,fixation,1,249,0.191,1.0,NoAct
1625341190.47,stimulus,1,250,,0.0,NoAct
1625341191.0740001,fixation,1,250,0.104,1.0,NoAct
1625341192.47,stimulus,1,251,,0.0,NoAct
1625341193.086,fixation,1,251,0.116,1.0,NoAct
1625341194.902,stimulus,1,252,0.432,1.0,NoAct
1625341194.97,fixation,1,252,,0.0,NoAct
1625341196.47,stimulus,1,253,,0.0,NoAct
1625341197.131,fixation,1,253,0.161,1.0,NoAct
1625341198.908,stimulus,1,254,0.438,1.0,NoAct
1625341198.97,fixation,1,254,,0.0,NoAct
1625341200.958,stimulus,1,255,0.488,1.0,NoAct
1625341200.97,fixation,1,255,,0.0,NoAct
1625341202.907,stimulus,1,256,0.437,1.0,NoAct
1625341202.97,fixation,1,256,,0.0,NoAct
1625341204.47,stimulus,1,257,,0.0,NoAct
1625341204.999,fixation,1,257,0.029,1.0,NoAct
1625341206.47,stimulus,1,258,,0.0,NoAct
1625341207.061,fixation,1,258,0.091,1.0,NoAct
1625341208.47,stimulus,1,259,,0.0,NoAct
1625341209.254,fixation,1,259,0.284,1.0,NoAct
1625341210.47,stimulus,1,260,,0.0,NoAct
1625341210.973,fixation,1,260,0.003,1.0,NoAct
1625341212.47,stimulus,1,261,,0.0,NoAct
1625341213.014,fixation,1,261,0.044,1.0,NoAct
1625341214.47,stimulus,1,262,,0.0,NoAct
1625341215.075,fixation,1,262,0.105,1.0,NoAct
1625341216.47,stimulus,1,263,,0.0,NoAct
1625341217.1460001,fixation,1,263,0.176,1.0,NoAct
1625341218.47,stimulus,1,264,,0.0,NoAct
1625341219.1200001,fixation,1,264,0.15,1.0,NoAct
1625341220.47,stimulus,1,265,,0.0,NoAct
1625341221.002,fixation,1,265,0.032,1.0,NoAct
1625341222.47,stimulus,1,266,,0.0,NoAct
1625341223.084,fixation,1,266,0.114,1.0,NoAct
1625341224.47,stimulus,1,267,,0.0,NoAct
1625341224.9720001,fixation,1,267,0.002,1.0,NoAct
1625341226.47,stimulus,1,268,,0.0,NoAct
1625341226.9980001,fixation,1,268,0.028,1.0,NoAct
1625341228.47,stimulus,1,269,,0.0,NoAct
1625341229.076,fixation,1,269,0.106,1.0,NoAct
1625341230.8960001,stimulus,1,270,0.426,1.0,NoAct
1625341230.97,fixation,1,270,,0.0,NoAct
1625341232.958,stimulus,1,271,0.488,1.0,NoAct
1625341232.97,fixation,1,271,,0.0,NoAct
1625341234.47,stimulus,1,272,,0.0,NoAct
1625341235.1460001,fixation,1,272,0.176,1.0,NoAct
1625341236.47,stimulus,1,273,,0.0,NoAct
1625341237.141,fixation,1,273,0.171,1.0,NoAct
1625341238.47,stimulus,1,274,,0.0,NoAct
1625341239.057,fixation,1,274,0.087,1.0,NoAct
1625341240.47,stimulus,1,275,,0.0,NoAct
1625341241.092,fixation,1,275,0.122,1.0,NoAct
1625341242.47,stimulus,1,276,,0.0,NoAct
1625341243.0210001,fixation,1,276,0.051,1.0,NoAct
1625341244.47,stimulus,1,277,,0.0,NoAct
1625341245.057,fixation,1,277,0.087,1.0,NoAct
1625341246.47,stimulus,1,278,,0.0,NoAct
1625341247.08,fixation,1,278,0.11,1.0,NoAct
1625341248.47,stimulus,1,279,,0.0,NoAct
1625341249.249,fixation,1,279,0.279,0.0,NoAct
1625341250.917,stimulus,1,280,0.447,1.0,NoAct
1625341250.97,fixation,1,280,,0.0,NoAct
1625341252.47,stimulus,1,281,,0.0,NoAct
1625341252.973,fixation,1,281,0.003,1.0,NoAct
1625341254.47,stimulus,1,282,,0.0,NoAct
1625341255.1000001,fixation,1,282,0.13,1.0,NoAct
1625341256.47,stimulus,1,283,,0.0,NoAct
1625341257.076,fixation,1,283,0.106,1.0,NoAct
1625341258.47,stimulus,1,284,,0.0,NoAct
1625341259.114,fixation,1,284,0.144,1.0,NoAct
1625341260.47,stimulus,1,285,,0.0,NoAct
1625341261.172,fixation,1,285,0.202,1.0,NoAct
1625341262.946,stimulus,1,286,0.476,1.0,NoAct
1625341262.97,fixation,1,286,,0.0,NoAct
1625341264.47,stimulus,1,287,,0.0,NoAct
1625341264.983,fixation,1,287,0.013,1.0,NoAct
1625341266.47,stimulus,1,288,,0.0,NoAct
1625341267.444,fixation,1,288,0.474,1.0,NoAct
1625341268.849,stimulus,1,289,0.379,1.0,NoAct
1625341268.97,fixation,1,289,,0.0,NoAct
1625341270.47,stimulus,1,290,,0.0,NoAct
1625341270.99,fixation,1,290,0.02,1.0,NoAct
1625341272.47,stimulus,1,291,,0.0,NoAct
1625341273.034,fixation,1,291,0.064,1.0,NoAct
1625341274.47,stimulus,1,292,,0.0,NoAct
1625341275.274,fixation,1,292,0.304,1.0,NoAct
1625341276.47,stimulus,1,293,,0.0,NoAct
1625341277.1200001,fixation,1,293,0.15,1.0,NoAct
1625341278.931,stimulus,1,294,0.461,0.0,NoAct
1625341278.97,fixation,1,294,,0.0,NoAct
1625341280.47,stimulus,1,295,,0.0,NoAct
1625341281.1100001,fixation,1,295,0.14,0.0,NoAct
1625341282.47,stimulus,1,296,,0.0,NoAct
1625341283.103,fixation,1,296,0.133,0.0,NoAct
1625341284.47,stimulus,1,297,,0.0,NoAct
1625341285.295,fixation,1,297,0.325,1.0,NoAct
1625341286.47,stimulus,1,298,,0.0,NoAct
1625341288.329,fixation,1,298,1.359,1.0,NoAct
1625341288.47,stimulus,1,299,,0.0,NoAct
1625341289.923,fixation,1,299,0.953,1.0,NoAct
1625341290.47,stimulus,1,300,,0.0,NoAct
1625341291.228,fixation,1,300,0.258,1.0,NoAct
1625341292.47,stimulus,1,301,,0.0,NoAct
1625341293.2120001,fixation,1,301,0.242,1.0,NoAct
1625341294.47,stimulus,1,302,,0.0,NoAct
1625341295.239,fixation,1,302,0.269,1.0,NoAct
1625341296.47,stimulus,1,303,,0.0,NoAct
1625341297.32,fixation,1,303,0.35,1.0,NoAct
1625341298.47,stimulus,1,304,,0.0,NoAct
1625341299.479,fixation,1,304,0.509,1.0,NoAct
1625341300.47,stimulus,1,305,,0.0,NoAct
1625341301.713,fixation,1,305,0.743,1.0,NoAct
1625341302.47,stimulus,1,306,,0.0,NoAct
1625341303.365,fixation,1,306,0.395,1.0,NoAct
1625341304.47,stimulus,1,307,,0.0,NoAct
1625341305.044,fixation,1,307,0.074,1.0,NoAct
1625341306.47,stimulus,1,308,,0.0,NoAct
1625341307.206,fixation,1,308,0.236,1.0,NoAct
1625341308.47,stimulus,1,309,,0.0,NoAct
1625341309.121,fixation,1,309,0.151,1.0,NoAct
1625341310.47,stimulus,1,310,,0.0,NoAct
1625341311.191,fixation,1,310,0.221,1.0,NoAct
1625341312.47,stimulus,1,311,,0.0,NoAct
1625341313.129,fixation,1,311,0.159,1.0,NoAct
1625341314.894,stimulus,1,312,0.424,1.0,NoAct
1625341314.97,fixation,1,312,,0.0,NoAct
1625341316.47,stimulus,1,313,,0.0,NoAct
1625341317.254,fixation,1,313,0.284,1.0,NoAct
1625341318.47,stimulus,1,314,,0.0,NoAct
1625341319.375,fixation,1,314,0.405,0.0,NoAct
1625341320.47,stimulus,1,315,,0.0,NoAct
1625341321.617,fixation,1,315,0.647,1.0,NoAct
1625341322.47,stimulus,1,316,,0.0,NoAct
1625341324.4060001,fixation,1,316,1.436,1.0,NoAct
1625341324.47,stimulus,1,317,,0.0,NoAct
1625341325.514,fixation,1,317,0.544,1.0,NoAct
1625341326.47,stimulus,1,318,,0.0,NoAct
1625341327.444,fixation,1,318,0.474,1.0,NoAct
1625341328.47,stimulus,1,319,,0.0,NoAct
1625341329.461,fixation,1,319,0.491,0.0,NoAct
1625341330.47,stimulus,1,320,,0.0,NoAct
1625341331.414,fixation,1,320,0.444,1.0,NoAct
1625341332.47,stimulus,1,321,,0.0,NoAct
1625341333.086,fixation,1,321,0.116,1.0,NoAct
1625341334.47,stimulus,1,322,,0.0,NoAct
1625341335.209,fixation,1,322,0.239,1.0,NoAct
1625341336.47,stimulus,1,323,,0.0,NoAct
1625341337.341,fixation,1,323,0.371,1.0,NoAct
1625341338.47,stimulus,1,324,,0.0,NoAct
1625341339.1990001,fixation,1,324,0.229,0.0,NoAct
1625341340.47,stimulus,1,325,,0.0,NoAct
1625341341.147,fixation,1,325,0.177,1.0,NoAct
1625341342.47,stimulus,1,326,,0.0,NoAct
1625341343.038,fixation,1,326,0.068,1.0,NoAct
1625341344.47,stimulus,1,327,,0.0,NoAct
1625341345.301,fixation,1,327,0.331,1.0,NoAct
1625341346.47,stimulus,1,328,,0.0,NoAct
1625341347.338,fixation,1,328,0.368,0.0,NoAct
1625341348.47,stimulus,1,329,,0.0,NoAct
1625341349.618,fixation,1,329,0.648,1.0,NoAct
1625341350.47,stimulus,1,330,,0.0,NoAct
1625341351.218,fixation,1,330,0.248,1.0,NoAct
1625341352.47,stimulus,1,331,,0.0,NoAct
1625341353.063,fixation,1,331,0.093,1.0,NoAct
1625341354.47,stimulus,1,332,,0.0,NoAct
1625341355.231,fixation,1,332,0.261,1.0,NoAct
1625341356.938,stimulus,1,333,0.468,1.0,NoAct
1625341356.97,fixation,1,333,,0.0,NoAct
1625341358.47,stimulus,1,334,,0.0,NoAct
1625341358.979,fixation,1,334,0.009,1.0,NoAct
1625341360.47,stimulus,1,335,,0.0,NoAct
1625341361.134,fixation,1,335,0.164,1.0,NoAct
1625341362.47,stimulus,1,336,,0.0,NoAct
1625341362.999,fixation,1,336,0.029,1.0,NoAct
1625341364.958,stimulus,1,337,0.488,1.0,NoAct
1625341364.97,fixation,1,337,,0.0,NoAct
1625341366.47,stimulus,1,338,,0.0,NoAct
1625341367.229,fixation,1,338,0.259,1.0,NoAct
1625341368.852,stimulus,1,339,0.382,0.0,NoAct
1625341368.97,fixation,1,339,,0.0,NoAct
1625341370.966,stimulus,1,340,0.496,1.0,NoAct
1625341370.97,fixation,1,340,,0.0,NoAct
1625341372.47,stimulus,1,341,,0.0,NoAct
1625341373.165,fixation,1,341,0.195,1.0,NoAct
1625341374.47,stimulus,1,342,,0.0,NoAct
1625341375.129,fixation,1,342,0.159,1.0,NoAct
1625341376.47,stimulus,1,343,,0.0,NoAct
1625341377.02,fixation,1,343,0.05,1.0,NoAct
1625341378.47,stimulus,1,344,,0.0,NoAct
1625341379.1460001,fixation,1,344,0.176,1.0,NoAct
1625341380.47,stimulus,1,345,,0.0,NoAct
1625341381.647,fixation,1,345,0.677,1.0,NoAct
1625341382.47,stimulus,1,346,,0.0,NoAct
1625341383.236,fixation,1,346,0.266,1.0,NoAct
1625341384.47,stimulus,1,347,,0.0,NoAct
1625341385.174,fixation,1,347,0.204,1.0,NoAct
1625341386.47,stimulus,1,348,,0.0,NoAct
1625341387.186,fixation,1,348,0.216,0.0,NoAct
1625341388.47,stimulus,1,349,,0.0,NoAct
1625341389.367,fixation,1,349,0.397,1.0,NoAct
1625341390.47,stimulus,1,350,,0.0,NoAct
1625341391.328,fixation,1,350,0.358,1.0,NoAct
1625341392.47,stimulus,1,351,,0.0,NoAct
1625341393.785,fixation,1,351,0.815,1.0,NoAct
1625341394.47,stimulus,1,352,,0.0,NoAct
1625341395.075,fixation,1,352,0.105,1.0,NoAct
1625341396.47,stimulus,1,353,,0.0,NoAct
1625341397.011,fixation,1,353,0.041,1.0,NoAct
1625341398.47,stimulus,1,354,,0.0,NoAct
1625341399.7910001,fixation,1,354,0.821,1.0,NoAct
1625341400.47,stimulus,1,355,,0.0,NoAct
1625341401.253,fixation,1,355,0.283,1.0,NoAct
1625341402.47,stimulus,1,356,,0.0,NoAct
1625341403.706,fixation,1,356,0.736,1.0,NoAct
1625341404.47,stimulus,1,357,,0.0,NoAct
1625341406.139,fixation,1,357,1.169,1.0,NoAct
1625341406.47,stimulus,1,358,,0.0,NoAct
1625341407.977,fixation,1,358,1.007,0.0,NoAct
1625341408.47,stimulus,1,359,,0.0,NoAct
1625341409.465,fixation,1,359,0.495,1.0,NoAct
1625341410.47,stimulus,1,360,,0.0,NoAct
1625341411.2350001,fixation,1,360,0.265,1.0,NoAct
1625341412.47,stimulus,1,361,,0.0,NoAct
1625341414.137,fixation,1,361,1.167,1.0,NoAct
1625341414.47,stimulus,1,362,,0.0,NoAct
1625341415.229,fixation,1,362,0.259,1.0,NoAct
1625341416.47,stimulus,1,363,,0.0,NoAct
1625341417.397,fixation,1,363,0.427,1.0,NoAct
1625341418.47,stimulus,1,364,,0.0,NoAct
1625341419.3830001,fixation,1,364,0.413,0.0,NoAct
1625341420.47,stimulus,1,365,,0.0,NoAct
1625341421.279,fixation,1,365,0.309,1.0,NoAct
1625341422.47,stimulus,1,366,,0.0,NoAct
1625341423.289,fixation,1,366,0.319,1.0,NoAct
1625341424.47,stimulus,1,367,,0.0,NoAct
1625341425.319,fixation,1,367,0.349,0.0,NoAct
1625341426.47,stimulus,1,368,,0.0,NoAct
1625341427.5310001,fixation,1,368,0.561,1.0,NoAct
1625341428.47,stimulus,1,369,,0.0,NoAct
1625341429.382,fixation,1,369,0.412,1.0,NoAct
1625341430.47,stimulus,1,370,,0.0,NoAct
1625341431.297,fixation,1,370,0.327,1.0,NoAct
1625341432.47,stimulus,1,371,,0.0,NoAct
1625341433.194,fixation,1,371,0.224,1.0,NoAct
1625341434.47,stimulus,1,372,,0.0,NoAct
1625341435.491,fixation,1,372,0.521,1.0,NoAct
1625341436.47,stimulus,1,373,,0.0,NoAct
1625341437.237,fixation,1,373,0.267,1.0,NoAct
1625341438.47,stimulus,1,374,,0.0,NoAct
1625341439.303,fixation,1,374,0.333,0.0,NoAct
1625341440.47,stimulus,1,375,,0.0,NoAct
1625341441.205,fixation,1,375,0.235,1.0,NoAct
1625341442.47,stimulus,1,376,,0.0,NoAct
1625341443.1330001,fixation,1,376,0.163,1.0,NoAct
1625341444.47,stimulus,1,377,,0.0,NoAct
1625341445.069,fixation,1,377,0.099,1.0,NoAct
1625341446.47,stimulus,1,378,,0.0,NoAct
1625341447.0740001,fixation,1,378,0.104,1.0,NoAct
1625341448.872,stimulus,1,379,0.402,1.0,NoAct
1625341448.97,fixation,1,379,,0.0,NoAct
1625341450.924,stimulus,1,380,0.454,1.0,NoAct
1625341450.97,fixation,1,380,,0.0,NoAct
1625341452.47,stimulus,1,381,,0.0,NoAct
1625341452.982,fixation,1,381,0.012,1.0,NoAct
1625341454.47,stimulus,1,382,,0.0,NoAct
1625341455.279,fixation,1,382,0.309,1.0,NoAct
1625341456.47,stimulus,1,383,,0.0,NoAct
1625341457.209,fixation,1,383,0.239,1.0,NoAct
1625341458.47,stimulus,1,384,,0.0,NoAct
1625341459.105,fixation,1,384,0.135,1.0,NoAct
1625341460.47,stimulus,1,385,,0.0,NoAct
1625341461.063,fixation,1,385,0.093,1.0,NoAct
1625341462.47,stimulus,1,386,,0.0,NoAct
1625341463.062,fixation,1,386,0.092,1.0,NoAct
1625341464.47,stimulus,1,387,,0.0,NoAct
1625341465.076,fixation,1,387,0.106,1.0,NoAct
1625341466.47,stimulus,1,388,,0.0,NoAct
1625341467.065,fixation,1,388,0.095,1.0,NoAct
1625341468.47,stimulus,1,389,,0.0,NoAct
1625341469.25,fixation,1,389,0.28,1.0,NoAct
1625341470.47,stimulus,1,390,,0.0,NoAct
1625341471.201,fixation,1,390,0.231,1.0,NoAct
1625341472.47,stimulus,1,391,,0.0,NoAct
1625341472.996,fixation,1,391,0.026,1.0,NoAct
1625341474.47,stimulus,1,392,,0.0,NoAct
1625341475.0540001,fixation,1,392,0.084,1.0,NoAct
1625341476.47,stimulus,1,393,,0.0,NoAct
1625341477.122,fixation,1,393,0.152,1.0,NoAct
1625341478.913,stimulus,1,394,0.443,1.0,NoAct
1625341478.97,fixation,1,394,,0.0,NoAct
1625341480.47,stimulus,1,395,,0.0,NoAct
1625341480.9720001,fixation,1,395,0.002,1.0,NoAct
1625341482.47,stimulus,1,396,,0.0,NoAct
1625341483.148,fixation,1,396,0.178,1.0,NoAct
1625341484.47,stimulus,1,397,,0.0,NoAct
1625341484.97,fixation,1,397,,0.0,NoAct
1625341486.47,stimulus,1,398,,,PerfumeSession
1625341486.97,fixation,1,398,,,PerfumeSession
1625341488.47,stimulus,1,399,,,PerfumeSession
1625341488.97,fixation,1,399,,,PerfumeSession
1625341490.47,stimulus,1,400,,,PerfumeSession
1625341490.97,fixation,1,400,,,PerfumeSession
1625341492.47,stimulus,1,401,,,PerfumeSession
1625341492.97,fixation,1,401,,,PerfumeSession
1625341494.47,stimulus,1,402,,,PerfumeSession
1625341494.97,fixation,1,402,,,PerfumeSession
1625341496.47,stimulus,1,403,,,PerfumeSession
1625341496.97,fixation,1,403,,,PerfumeSession
1625341498.47,stimulus,1,404,,,PerfumeSession
1625341498.97,fixation,1,404,,,PerfumeSession
1625341500.47,stimulus,1,405,,,PerfumeSession
1625341500.97,fixation,1,405,,,PerfumeSession
1625341502.47,stimulus,1,406,,,PerfumeSession
1625341502.97,fixation,1,406,,,PerfumeSession
1625341504.47,stimulus,1,407,,,PerfumeSession
1625341504.97,fixation,1,407,,,PerfumeSession
1625341506.47,stimulus,1,408,,,PerfumeSession
1625341506.97,fixation,1,408,,,PerfumeSession
1625341508.47,stimulus,1,409,,,PerfumeSession
1625341508.97,fixation,1,409,,,PerfumeSession
1625341510.47,stimulus,1,410,,,PerfumeSession
1625341510.97,fixation,1,410,,,PerfumeSession
1625341512.47,stimulus,1,411,,,PerfumeSession
1625341512.97,fixation,1,411,,,PerfumeSession
1625341514.47,stimulus,1,412,,,PerfumeSession
1625341514.97,fixation,1,412,,,PerfumeSession
1625341516.47,stimulus,1,413,,,PerfumeSession
1625341516.97,fixation,1,413,,,PerfumeSession
1625341518.47,stimulus,1,414,,,PerfumeSession
1625341518.97,fixation,1,414,,,PerfumeSession
1625341520.47,stimulus,1,415,,,PerfumeSession
1625341520.97,fixation,1,415,,,PerfumeSession
1625341522.47,stimulus,1,416,,,PerfumeSession
1625341522.97,fixation,1,416,,,PerfumeSession
1625341524.47,stimulus,1,417,,,PerfumeSession
1625341524.97,fixation,1,417,,,PerfumeSession
1625341526.47,stimulus,1,418,,,PerfumeSession
1625341526.97,fixation,1,418,,,PerfumeSession
1625341528.47,stimulus,1,419,,,PerfumeSession
1625341528.97,fixation,1,419,,,PerfumeSession
1625341530.47,stimulus,1,420,,,PerfumeSession
1625341530.97,fixation,1,420,,,PerfumeSession
1625341532.47,stimulus,1,421,,,PerfumeSession
1625341532.97,fixation,1,421,,,PerfumeSession
1625341534.47,stimulus,1,422,,,PerfumeSession
1625341534.97,fixation,1,422,,,PerfumeSession
1625341536.47,stimulus,1,423,,,PerfumeSession
1625341536.97,fixation,1,423,,,PerfumeSession
1625341538.47,stimulus,1,424,,,PerfumeSession
1625341538.97,fixation,1,424,,,PerfumeSession
1625341540.47,stimulus,1,425,,,PerfumeSession
1625341540.97,fixation,1,425,,,PerfumeSession
1625341542.47,stimulus,1,426,,,PerfumeSession
1625341542.97,fixation,1,426,,,PerfumeSession
1625341544.47,stimulus,1,427,,,PerfumeSession
1625341544.97,fixation,1,427,,,PerfumeSession
1625341546.47,stimulus,1,428,,,PerfumeSession
1625341546.97,fixation,1,428,,,PerfumeSession
1625341548.47,stimulus,1,429,,,PerfumeSession
1625341548.97,fixation,1,429,,,PerfumeSession
1625341550.47,stimulus,1,430,,,PerfumeSession
1625341550.97,fixation,1,430,,,PerfumeSession
1625341552.47,stimulus,1,431,,,PerfumeSession
1625341552.97,fixation,1,431,,,PerfumeSession
1625341554.47,stimulus,1,432,,,PerfumeSession
1625341554.97,fixation,1,432,,,PerfumeSession
1625341556.47,stimulus,1,433,,,PerfumeSession
1625341556.97,fixation,1,433,,,PerfumeSession
1625341558.47,stimulus,1,434,,,PerfumeSession
1625341558.97,fixation,1,434,,,PerfumeSession
1625341560.47,stimulus,1,435,,,PerfumeSession
1625341560.97,fixation,1,435,,,PerfumeSession
1625341562.47,stimulus,1,436,,,PerfumeSession
1625341562.97,fixation,1,436,,,PerfumeSession
1625341564.47,stimulus,1,437,,,PerfumeSession
1625341564.97,fixation,1,437,,,PerfumeSession
1625341566.47,stimulus,1,438,,,PerfumeSession
1625341566.97,fixation,1,438,,,PerfumeSession
1625341568.47,stimulus,1,439,,,PerfumeSession
1625341568.97,fixation,1,439,,,PerfumeSession
1625341570.47,stimulus,1,440,,,PerfumeSession
1625341570.97,fixation,1,440,,,PerfumeSession
1625341572.47,stimulus,1,441,,,PerfumeSession
1625341572.97,fixation,1,441,,,PerfumeSession
1625341574.47,stimulus,1,442,,,PerfumeSession
1625341574.97,fixation,1,442,,,PerfumeSession
1625341576.47,stimulus,1,443,,,PerfumeSession
1625341576.97,fixation,1,443,,,PerfumeSession
1625341578.47,stimulus,1,444,,,PerfumeSession
1625341578.97,fixation,1,444,,,PerfumeSession
1625341580.47,stimulus,1,445,,,PerfumeSession
1625341580.97,fixation,1,445,,,PerfumeSession
1625341582.47,stimulus,1,446,,,PerfumeSession
1625341582.97,fixation,1,446,,,PerfumeSession
1625341584.47,stimulus,1,447,,,PerfumeSession
1625341584.97,fixation,1,447,,,PerfumeSession
1625341586.47,stimulus,1,448,,,PerfumeSession
1625341586.97,fixation,1,448,,,PerfumeSession
1625341588.47,stimulus,1,449,,,PerfumeSession
1625341588.97,fixation,1,449,,,PerfumeSession
1625341590.47,stimulus,1,450,,,PerfumeSession
1625341590.97,fixation,1,450,,,PerfumeSession
1625341592.47,stimulus,1,451,,,PerfumeSession
1625341592.97,fixation,1,451,,,PerfumeSession
1625341594.47,stimulus,1,452,,,PerfumeSession
1625341594.97,fixation,1,452,,,PerfumeSession
1625341596.47,stimulus,1,453,,,PerfumeSession
1625341596.97,fixation,1,453,,,PerfumeSession
1625341598.47,stimulus,1,454,,,PerfumeSession
1625341598.97,fixation,1,454,,,PerfumeSession
1625341600.47,stimulus,1,455,,,PerfumeSession
1625341600.97,fixation,1,455,,,PerfumeSession
1625341602.47,stimulus,1,456,,,PerfumeSession
1625341602.97,fixation,1,456,,,PerfumeSession
1625341604.47,stimulus,1,457,,,PerfumeSession
1625341604.97,fixation,1,457,,,PerfumeSession
1625341606.47,stimulus,1,458,,,PerfumeSession
1625341606.97,fixation,1,458,,,PerfumeSession
1625341608.47,stimulus,1,459,,,PerfumeSession
1625341608.97,fixation,1,459,,,PerfumeSession
1625341610.47,stimulus,1,460,,,PerfumeSession
1625341610.97,fixation,1,460,,,PerfumeSession
1625341612.47,stimulus,1,461,,,PerfumeSession
1625341612.97,fixation,1,461,,,PerfumeSession
1625341614.47,stimulus,1,462,,,PerfumeSession
1625341614.97,fixation,1,462,,,PerfumeSession
1625341616.47,stimulus,1,463,,,PerfumeSession
1625341616.97,fixation,1,463,,,PerfumeSession
1625341618.47,stimulus,1,464,,,PerfumeSession
1625341618.97,fixation,1,464,,,PerfumeSession
1625341620.47,stimulus,1,465,,,PerfumeSession
1625341620.97,fixation,1,465,,,PerfumeSession
1625341622.47,stimulus,1,466,,,PerfumeSession
1625341622.97,fixation,1,466,,,PerfumeSession
1625341624.47,stimulus,1,467,,,PerfumeSession
1625341624.97,fixation,1,467,,,PerfumeSession
1625341626.47,stimulus,1,468,,,PerfumeSession
1625341626.97,fixation,1,468,,,PerfumeSession
1625341628.47,stimulus,1,469,,,PerfumeSession
1625341628.97,fixation,1,469,,,PerfumeSession
1625341630.47,stimulus,1,470,,,PerfumeSession
1625341630.97,fixation,1,470,,,PerfumeSession
1625341632.47,stimulus,1,471,,,PerfumeSession
1625341632.97,fixation,1,471,,,PerfumeSession
1625341634.47,stimulus,1,472,,,PerfumeSession
1625341634.97,fixation,1,472,,,PerfumeSession
1625341636.47,stimulus,1,473,,,PerfumeSession
1625341636.97,fixation,1,473,,,PerfumeSession
1625341638.47,stimulus,1,474,,,PerfumeSession
1625341638.97,fixation,1,474,,,PerfumeSession
1625341640.47,stimulus,1,475,,,PerfumeSession
1625341640.97,fixation,1,475,,,PerfumeSession
1625341642.47,stimulus,1,476,,,PerfumeSession
1625341642.97,fixation,1,476,,,PerfumeSession
1625341644.47,stimulus,1,477,,,PerfumeSession
1625341644.97,fixation,1,477,,,PerfumeSession
1625341646.47,stimulus,1,478,,,PerfumeSession
1625341646.97,fixation,1,478,,,PerfumeSession
1625341648.47,stimulus,1,479,,,PerfumeSession
1625341648.97,fixation,1,479,,,PerfumeSession
1625341650.47,stimulus,1,480,,,PerfumeSession
1625341650.97,fixation,1,480,,,PerfumeSession
1625341652.47,stimulus,1,481,,,PerfumeSession
1625341652.97,fixation,1,481,,,PerfumeSession
1625341654.47,stimulus,1,482,,,PerfumeSession
1625341654.97,fixation,1,482,,,PerfumeSession
1625341656.47,stimulus,1,483,,,PerfumeSession
1625341656.97,fixation,1,483,,,PerfumeSession
1625341657.84,stimulus,2,1,,,PracticeSession
1625341658.34,fixation,2,1,,,PracticeSession
1625341658.47,stimulus,1,484,,,PerfumeSession
1625341658.97,fixation,1,484,,,PerfumeSession
1625341659.84,stimulus,2,2,,,PracticeSession
1625341660.34,fixation,2,2,,,PracticeSession
1625341660.47,stimulus,1,485,,,PerfumeSession
1625341660.97,fixation,1,485,,,PerfumeSession
1625341661.84,stimulus,2,3,,,PracticeSession
1625341662.34,fixation,2,3,,,PracticeSession
1625341662.47,stimulus,1,486,,,PerfumeSession
1625341662.97,fixation,1,486,,,PerfumeSession
1625341663.84,stimulus,2,4,,,PracticeSession
1625341664.34,fixation,2,4,,,PracticeSession
1625341664.47,stimulus,1,487,,,PerfumeSession
1625341664.97,fixation,1,487,,,PerfumeSession
1625341665.84,stimulus,2,5,,,PracticeSession
1625341666.34,fixation,2,5,,,PracticeSession
1625341666.47,stimulus,1,488,,,PerfumeSession
1625341666.97,fixation,1,488,,,PerfumeSession
1625341667.84,stimulus,2,6,,,PracticeSession
1625341668.34,fixation,2,6,,,PracticeSession
1625341668.47,stimulus,1,489,,,PerfumeSession
1625341668.97,fixation,1,489,,,PerfumeSession
1625341669.84,stimulus,2,7,,,PracticeSession
1625341670.34,fixation,2,7,,,PracticeSession
1625341670.47,stimulus,1,490,,,PerfumeSession
1625341670.97,fixation,1,490,,,PerfumeSession
1625341671.84,stimulus,2,8,,,PracticeSession
1625341672.34,fixation,2,8,,,PracticeSession
1625341672.47,stimulus,1,491,,,PerfumeSession
1625341672.97,fixation,1,491,,,PerfumeSession
1625341673.84,stimulus,2,9,,,PracticeSession
1625341674.34,fixation,2,9,,,PracticeSession
1625341674.47,stimulus,1,492,,,PerfumeSession
1625341674.97,fixation,1,492,,,PerfumeSession
1625341675.84,stimulus,2,10,,,PracticeSession
1625341676.34,fixation,2,10,,,PracticeSession
1625341676.47,stimulus,1,493,,,PerfumeSession
1625341676.97,fixation,1,493,,,PerfumeSession
1625341677.84,stimulus,2,11,,,PracticeSession
1625341678.34,fixation,2,11,,,PracticeSession
1625341678.47,stimulus,1,494,,,PerfumeSession
1625341678.97,fixation,1,494,,,PerfumeSession
1625341679.84,stimulus,2,12,,,PracticeSession
1625341680.34,fixation,2,12,,,PracticeSession
1625341680.47,stimulus,1,495,,,PerfumeSession
1625341680.97,fixation,1,495,,,PerfumeSession
1625341681.84,stimulus,2,13,,,PracticeSession
1625341682.34,fixation,2,13,,,PracticeSession
1625341682.47,stimulus,1,496,,,PerfumeSession
1625341682.97,fixation,1,496,,,PerfumeSession
1625341683.84,stimulus,2,14,,,PracticeSession
1625341684.34,fixation,2,14,,,PracticeSession
1625341684.47,stimulus,1,497,,,PerfumeSession
1625341684.97,fixation,1,497,,,PerfumeSession
1625341685.84,stimulus,2,15,,,PracticeSession
1625341686.34,fixation,2,15,,,PracticeSession
1625341686.47,stimulus,1,498,,,PerfumeSession
1625341686.97,fixation,1,498,,,PerfumeSession
1625341687.84,stimulus,2,16,,,PracticeSession
1625341688.34,fixation,2,16,,,PracticeSession
1625341688.47,stimulus,1,499,,,PerfumeSession
1625341688.97,fixation,1,499,,,PerfumeSession
1625341689.84,stimulus,2,17,,,PracticeSession
1625341690.34,fixation,2,17,,,PracticeSession
1625341690.47,stimulus,1,500,,,PerfumeSession
1625341690.97,fixation,1,500,,,PerfumeSession
1625341691.84,stimulus,2,18,,,PracticeSession
1625341692.34,fixation,2,18,,,PracticeSession
1625341692.47,stimulus,1,501,,,PerfumeSession
1625341692.97,fixation,1,501,,,PerfumeSession
1625341693.84,stimulus,2,19,,,PracticeSession
1625341694.34,fixation,2,19,,,PracticeSession
1625341694.47,stimulus,1,502,,,PerfumeSession
1625341694.97,fixation,1,502,,,PerfumeSession
1625341695.84,stimulus,2,20,,,PracticeSession
1625341696.34,fixation,2,20,,,PracticeSession
1625341696.47,stimulus,1,503,,,PerfumeSession
1625341696.97,fixation,1,503,,,PerfumeSession
1625341697.84,stimulus,2,21,,,PracticeSession
1625341698.34,fixation,2,21,,,PracticeSession
1625341698.47,stimulus,1,504,,,PerfumeSession
1625341698.97,fixation,1,504,,,PerfumeSession
1625341699.84,stimulus,2,22,,,PracticeSession
1625341700.34,fixation,2,22,,,PracticeSession
1625341700.47,stimulus,1,505,,,PerfumeSession
1625341700.97,fixation,1,505,,,PerfumeSession
1625341701.84,stimulus,2,23,,,PracticeSession
1625341702.34,fixation,2,23,,,PracticeSession
1625341702.47,stimulus,1,506,,,PerfumeSession
1625341702.97,fixation,1,506,,,PerfumeSession
1625341703.84,stimulus,2,24,,,PracticeSession
1625341704.34,fixation,2,24,,,PracticeSession
1625341704.47,stimulus,1,507,,,PerfumeSession
1625341704.97,fixation,1,507,,,PerfumeSession
1625341705.84,stimulus,2,25,,,PracticeSession
1625341706.34,fixation,2,25,,,PracticeSession
1625341706.47,stimulus,1,508,,,PerfumeSession
1625341706.97,fixation,1,508,,,PerfumeSession
1625341707.84,stimulus,2,26,,,PracticeSession
1625341708.34,fixation,2,26,,,PracticeSession
1625341708.47,stimulus,1,509,,,PerfumeSession
1625341708.97,fixation,1,509,,,PerfumeSession
1625341709.84,stimulus,2,27,,,PracticeSession
1625341710.34,fixation,2,27,,,PracticeSession
1625341710.47,stimulus,1,510,,,PerfumeSession
1625341710.97,fixation,1,510,,,PerfumeSession
1625341711.84,stimulus,2,28,,,PracticeSession
1625341712.34,fixation,2,28,,,PracticeSession
1625341712.47,stimulus,1,511,,,PerfumeSession
1625341712.97,fixation,1,511,,,PerfumeSession
1625341713.84,stimulus,2,29,,,PracticeSession
1625341714.34,fixation,2,29,,,PracticeSession
1625341714.47,stimulus,1,512,,,PerfumeSession
1625341714.97,fixation,1,512,,,PerfumeSession
1625341715.84,stimulus,2,30,,,PracticeSession
1625341716.34,fixation,2,30,,,PracticeSession
1625341716.47,stimulus,1,513,,,PerfumeSession
1625341716.97,fixation,1,513,,,PerfumeSession
1625341717.84,stimulus,2,31,,,PracticeSession
1625341718.34,fixation,2,31,,,PracticeSession
1625341718.47,stimulus,1,514,,,PerfumeSession
1625341718.97,fixation,1,514,,,PerfumeSession
1625341719.84,stimulus,2,32,,,PracticeSession
1625341720.34,fixation,2,32,,,PracticeSession
1625341720.47,stimulus,1,515,,,PerfumeSession
1625341720.97,fixation,1,515,,,PerfumeSession
1625341721.84,stimulus,2,33,,,PracticeSession
1625341722.34,fixation,2,33,,,PracticeSession
1625341722.47,stimulus,1,516,,,PerfumeSession
1625341722.97,fixation,1,516,,,PerfumeSession
1625341723.84,stimulus,2,34,,,PracticeSession
1625341724.34,fixation,2,34,,,PracticeSession
1625341724.47,stimulus,1,517,,,PerfumeSession
1625341724.97,fixation,1,517,,,PerfumeSession
1625341725.84,stimulus,2,35,,,PracticeSession
1625341726.34,fixation,2,35,,,PracticeSession
1625341726.47,stimulus,1,518,,,PerfumeSession
1625341726.97,fixation,1,518,,,PerfumeSession
1625341727.84,stimulus,2,36,,,PracticeSession
1625341728.34,fixation,2,36,,,PracticeSession
1625341728.47,stimulus,1,519,,,PerfumeSession
1625341728.97,fixation,1,519,,,PerfumeSession
1625341729.84,stimulus,2,37,,,PracticeSession
1625341730.34,fixation,2,37,,,PracticeSession
1625341730.47,stimulus,1,520,,,PerfumeSession
1625341730.97,fixation,1,520,,,PerfumeSession
1625341731.84,stimulus,2,38,,,PracticeSession
1625341732.34,fixation,2,38,,,PracticeSession
1625341732.47,stimulus,1,521,,,PerfumeSession
1625341732.97,fixation,1,521,,,PerfumeSession
1625341733.84,stimulus,2,39,,,PracticeSession
1625341734.34,fixation,2,39,,,PracticeSession
1625341734.47,stimulus,1,522,,,PerfumeSession
1625341734.97,fixation,1,522,,,PerfumeSession
1625341735.84,stimulus,2,40,,,PracticeSession
1625341736.34,fixation,2,40,,,PracticeSession
1625341736.47,stimulus,1,523,,,PerfumeSession
1625341736.97,fixation,1,523,,,PerfumeSession
1625341737.84,stimulus,2,41,,,PracticeSession
1625341738.34,fixation,2,41,,,PracticeSession
1625341738.47,stimulus,1,524,,,PerfumeSession
1625341738.97,fixation,1,524,,,PerfumeSession
1625341739.84,stimulus,2,42,,,PracticeSession
1625341740.34,fixation,2,42,,,PracticeSession
1625341740.47,stimulus,1,525,,,PerfumeSession
1625341740.97,fixation,1,525,,,PerfumeSession
1625341741.84,stimulus,2,43,,,PracticeSession
1625341742.34,fixation,2,43,,,PracticeSession
1625341742.47,stimulus,1,526,,,PerfumeSession
1625341742.97,fixation,1,526,,,PerfumeSession
1625341743.84,stimulus,2,44,,,PracticeSession
1625341744.34,fixation,2,44,,,PracticeSession
1625341744.47,stimulus,1,527,,,PerfumeSession
1625341744.97,fixation,1,527,,,PerfumeSession
1625341745.84,stimulus,2,45,,,NoAct
1625341746.34,fixation,2,45,,,NoAct
1625341746.47,stimulus,1,528,,,PerfumeSession
1625341746.97,fixation,1,528,,,PerfumeSession
1625341747.84,stimulus,2,46,,,NoAct
1625341748.34,fixation,2,46,,,NoAct
1625341748.47,stimulus,1,529,,,PerfumeSession
1625341748.97,fixation,1,529,,,PerfumeSession
1625341749.84,stimulus,2,47,,,NoAct
1625341750.34,fixation,2,47,,,NoAct
1625341750.47,stimulus,1,530,,,PerfumeSession
1625341750.97,fixation,1,530,,,PerfumeSession
1625341751.84,stimulus,2,48,,,NoAct
1625341752.34,fixation,2,48,,,NoAct
1625341752.47,stimulus,1,531,,,PerfumeSession
1625341752.97,fixation,1,531,,,PerfumeSession
1625341753.84,stimulus,2,49,,,NoAct
1625341754.34,fixation,2,49,,,NoAct
1625341754.47,stimulus,1,532,,,PerfumeSession
1625341754.97,fixation,1,532,,,PerfumeSession
1625341755.84,stimulus,2,50,,,NoAct
1625341756.34,fixation,2,50,,,NoAct
1625341756.47,stimulus,1,533,,,PerfumeSession
1625341756.97,fixation,1,533,,,PerfumeSession
1625341757.84,stimulus,2,51,,,NoAct
1625341758.34,fixation,2,51,,,NoAct
1625341758.47,stimulus,1,534,,,PerfumeSession
1625341758.97,fixation,1,534,,,PerfumeSession
1625341759.84,stimulus,2,52,,,NoAct
1625341760.34,fixation,2,52,,,NoAct
1625341760.47,stimulus,1,535,,,PerfumeSession
1625341760.97,fixation,1,535,,,PerfumeSession
1625341761.84,stimulus,2,53,,,NoAct
1625341762.34,fixation,2,53,,,NoAct
1625341762.47,stimulus,1,536,,,PerfumeSession
1625341762.97,fixation,1,536,,,PerfumeSession
1625341763.84,stimulus,2,54,,,NoAct
1625341764.34,fixation,2,54,,,NoAct
1625341764.47,stimulus,1,537,,,PerfumeSession
1625341764.97,fixation,1,537,,,PerfumeSession
1625341765.84,stimulus,2,55,,,NoAct
1625341766.34,fixation,2,55,,,NoAct
1625341766.47,stimulus,1,538,,,PerfumeSession
1625341766.97,fixation,1,538,,,PerfumeSession
1625341767.84,stimulus,2,56,,,NoAct
1625341768.34,fixation,2,56,,,NoAct
1625341768.47,stimulus,1,539,,,PerfumeSession
1625341768.97,fixation,1,539,,,PerfumeSession
1625341769.84,stimulus,2,57,,,NoAct
1625341770.34,fixation,2,57,,,NoAct
1625341770.47,stimulus,1,540,,,PerfumeSession
1625341770.97,fixation,1,540,,,PerfumeSession
1625341771.84,stimulus,2,58,,,NoAct
1625341772.34,fixation,2,58,,,NoAct
1625341772.47,stimulus,1,541,,,PerfumeSession
1625341772.97,fixation,1,541,,,PerfumeSession
1625341773.84,stimulus,2,59,,,NoAct
1625341774.34,fixation,2,59,,,NoAct
1625341774.47,stimulus,1,542,,,PerfumeSession
1625341774.97,fixation,1,542,,,PerfumeSession
1625341775.84,stimulus,2,60,,,NoAct
1625341776.34,fixation,2,60,,,NoAct
1625341776.47,stimulus,1,543,,,PerfumeSession
1625341776.97,fixation,1,543,,,PerfumeSession
1625341777.84,stimulus,2,61,,,NoAct
1625341778.34,fixation,2,61,,,NoAct
1625341778.47,stimulus,1,544,,,PerfumeSession
1625341778.97,fixation,1,544,,,PerfumeSession
1625341779.84,stimulus,2,62,,,NoAct
1625341780.34,fixation,2,62,,,NoAct
1625341780.47,stimulus,1,545,,,PerfumeSession
1625341780.97,fixation,1,545,,,PerfumeSession
1625341781.84,stimulus,2,63,,,NoAct
1625341782.34,fixation,2,63,,,NoAct
1625341782.47,stimulus,1,546,,,PerfumeSession
1625341782.97,fixation,1,546,,,PerfumeSession
1625341783.84,stimulus,2,64,,,NoAct
1625341784.34,fixation,2,64,,,NoAct
1625341784.47,stimulus,1,547,,,PerfumeSession
1625341784.97,fixation,1,547,,,PerfumeSession
1625341785.84,stimulus,2,65,,,NoAct
1625341786.34,fixation,2,65,,,NoAct
1625341786.47,stimulus,1,548,,,PerfumeSession
1625341786.97,fixation,1,548,,,PerfumeSession
1625341787.84,stimulus,2,66,,,NoAct
1625341788.34,fixation,2,66,,,NoAct
1625341788.47,stimulus,1,549,,,PerfumeSession
1625341788.97,fixation,1,549,,,PerfumeSession
1625341789.84,stimulus,2,67,,,NoAct
1625341790.34,fixation,2,67,,,NoAct
1625341790.47,stimulus,1,550,,,PerfumeSession
1625341790.97,fixation,1,550,,,PerfumeSession
1625341791.84,stimulus,2,68,,,NoAct
1625341792.34,fixation,2,68,,,NoAct
1625341792.47,stimulus,1,551,,,PerfumeSession
1625341792.97,fixation,1,551,,,PerfumeSession
1625341793.84,stimulus,2,69,,,NoAct
1625341794.34,fixation,2,69,,,NoAct
1625341794.47,stimulus,1,552,,,PerfumeSession
1625341794.97,fixation,1,552,,,PerfumeSession
1625341795.84,stimulus,2,70,,,NoAct
1625341796.34,fixation,2,70,,,NoAct
1625341796.47,stimulus,1,553,,,PerfumeSession
1625341796.97,fixation,1,553,,,PerfumeSession
1625341797.84,stimulus,2,71,,,NoAct
1625341798.34,fixation,2,71,,,NoAct
1625341798.47,stimulus,1,554,,,PerfumeSession
1625341798.97,fixation,1,554,,,PerfumeSession
1625341799.84,stimulus,2,72,,,NoAct
1625341800.34,fixation,2,72,,,NoAct
1625341800.47,stimulus,1,555,,,PerfumeSession
1625341800.97,fixation,1,555,,,PerfumeSession
1625341801.84,stimulus,2,73,,,NoAct
1625341802.34,fixation,2,73,,,NoAct
1625341802.47,stimulus,1,556,,,PerfumeSession
1625341802.97,fixation,1,556,,,PerfumeSession
1625341803.84,stimulus,2,74,,,NoAct
1625341804.34,fixation,2,74,,,NoAct
1625341804.47,stimulus,1,557,,,PerfumeSession
1625341804.97,fixation,1,557,,,PerfumeSession
1625341805.84,stimulus,2,75,,,NoAct
1625341806.34,fixation,2,75,,,NoAct
1625341806.47,stimulus,1,558,,,PerfumeSession
1625341806.97,fixation,1,558,,,PerfumeSession
1625341807.84,stimulus,2,76,,,NoAct
1625341808.34,fixation,2,76,,,NoAct
1625341808.47,stimulus,1,559,,,PerfumeSession
1625341808.97,fixation,1,559,,,PerfumeSession
1625341809.84,stimulus,2,77,,,NoAct
1625341810.34,fixation,2,77,,,NoAct
1625341810.47,stimulus,1,560,,,PerfumeSession
1625341810.97,fixation,1,560,,,PerfumeSession
1625341811.84,stimulus,2,78,,,NoAct
1625341812.34,fixation,2,78,,,NoAct
1625341812.47,stimulus,1,561,,,PerfumeSession
1625341812.97,fixation,1,561,,,PerfumeSession
1625341813.84,stimulus,2,79,,,NoAct
1625341814.34,fixation,2,79,,,NoAct
1625341814.47,stimulus,1,562,,,PerfumeSession
1625341814.97,fixation,1,562,,,PerfumeSession
1625341815.84,stimulus,2,80,,,NoAct
1625341816.34,fixation,2,80,,,NoAct
1625341816.47,stimulus,1,563,,,PerfumeSession
1625341816.97,fixation,1,563,,,PerfumeSession
1625341817.84,stimulus,2,81,,,NoAct
1625341818.34,fixation,2,81,,,NoAct
1625341818.47,stimulus,1,564,,,PerfumeSession
1625341818.97,fixation,1,564,,,PerfumeSession
1625341819.84,stimulus,2,82,,,NoAct
1625341820.34,fixation,2,82,,,NoAct
1625341820.47,stimulus,1,565,,,PerfumeSession
1625341820.97,fixation,1,565,,,PerfumeSession
1625341821.84,stimulus,2,83,,,NoAct
1625341822.34,fixation,2,83,,,NoAct
1625341822.47,stimulus,1,566,,,PerfumeSession
1625341822.97,fixation,1,566,,,PerfumeSession
1625341823.84,stimulus,2,84,,,NoAct
1625341824.34,fixation,2,84,,,NoAct
1625341824.47,stimulus,1,567,,,PerfumeSession
1625341824.97,fixation,1,567,,,PerfumeSession
1625341825.84,stimulus,2,85,,,NoAct
1625341826.34,fixation,2,85,,,NoAct
1625341826.47,stimulus,1,568,,,PerfumeSession
1625341826.97,fixation,1,568,,,PerfumeSession
1625341827.84,stimulus,2,86,,,NoAct
1625341828.34,fixation,2,86,,,NoAct
1625341828.47,stimulus,1,569,,,PerfumeSession
1625341828.97,fixation,1,569,,,PerfumeSession
1625341829.84,stimulus,2,87,,,NoAct
1625341830.34,fixation,2,87,,,NoAct
1625341830.47,stimulus,1,570,,,PerfumeSession
1625341830.97,fixation,1,570,,,PerfumeSession
1625341831.84,stimulus,2,88,,,NoAct
1625341832.34,fixation,2,88,,,NoAct
1625341832.47,stimulus,1,571,,,PerfumeSession
1625341832.97,fixation,1,571,,,PerfumeSession
1625341833.84,stimulus,2,89,,,NoAct
1625341834.34,fixation,2,89,,,NoAct
1625341834.47,stimulus,1,572,,,PerfumeSession
1625341834.97,fixation,1,572,,,PerfumeSession
1625341835.84,stimulus,2,90,,,NoAct
1625341836.34,fixation,2,90,,,NoAct
1625341836.47,stimulus,1,573,,,PerfumeSession
1625341836.97,fixation,1,573,,,PerfumeSession
1625341837.84,stimulus,2,91,,,NoAct
1625341838.34,fixation,2,91,,,NoAct
1625341838.47,stimulus,1,574,,,PerfumeSession
1625341838.97,fixation,1,574,,,PerfumeSession
1625341839.84,stimulus,2,92,,,NoAct
1625341840.34,fixation,2,92,,,NoAct
1625341840.47,stimulus,1,575,,,PerfumeSession
1625341840.97,fixation,1,575,,,PerfumeSession
1625341841.84,stimulus,2,93,,,NoAct
1625341842.34,fixation,2,93,,,NoAct
1625341842.47,stimulus,1,576,,,PerfumeSession
1625341842.97,fixation,1,576,,,PerfumeSession
1625341843.84,stimulus,2,94,,,NoAct
1625341844.34,fixation,2,94,,,NoAct
1625341844.47,stimulus,1,577,,,PerfumeSession
1625341844.97,fixation,1,577,,,PerfumeSession
1625341845.84,stimulus,2,95,,,NoAct
1625341846.34,fixation,2,95,,,NoAct
1625341846.47,stimulus,1,578,,,PerfumeSession
1625341846.97,fixation,1,578,,,PerfumeSession
1625341847.84,stimulus,2,96,,,NoAct
1625341848.34,fixation,2,96,,,NoAct
1625341848.47,stimulus,1,579,,,PerfumeSession
1625341848.97,fixation,1,579,,,PerfumeSession
1625341849.84,stimulus,2,97,,,NoAct
1625341850.34,fixation,2,97,,,NoAct
1625341850.47,stimulus,1,580,,,PerfumeSession
1625341850.97,fixation,1,580,,,PerfumeSession
1625341851.84,stimulus,2,98,,,NoAct
1625341852.34,fixation,2,98,,,NoAct
1625341852.47,stimulus,1,581,,,PerfumeSession
1625341852.97,fixation,1,581,,,PerfumeSession
1625341853.84,stimulus,2,99,,,NoAct
1625341854.34,fixation,2,99,,,NoAct
1625341854.47,stimulus,1,582,,,PerfumeSession
1625341854.97,fixation,1,582,,,PerfumeSession
1625341855.84,stimulus,2,100,,,NoAct
1625341856.34,fixation,2,100,,,NoAct
1625341856.47,stimulus,1,583,,,PerfumeSession
1625341856.97,fixation,1,583,,,PerfumeSession
1625341857.84,stimulus,2,101,,,NoAct
1625341858.34,fixation,2,101,,,NoAct
1625341858.47,stimulus,1,584,,,PerfumeSession
1625341858.97,fixation,1,584,,,PerfumeSession
1625341859.84,stimulus,2,102,,,NoAct
1625341860.34,fixation,2,102,,,NoAct
1625341860.47,stimulus,1,585,,,PerfumeSession
1625341860.97,fixation,1,585,,,PerfumeSession
1625341861.84,stimulus,2,103,,,NoAct
1625341862.34,fixation,2,103,,,NoAct
1625341862.47,stimulus,1,586,,,PerfumeSession
1625341862.97,fixation,1,586,,,PerfumeSession
1625341863.84,stimulus,2,104,,,NoAct
1625341864.34,fixation,2,104,,,NoAct
1625341864.47,stimulus,1,587,,,PerfumeSession
1625341864.97,fixation,1,587,,,PerfumeSession
1625341865.84,stimulus,2,105,,,NoAct
1625341866.34,fixation,2,105,,,NoAct
1625341866.47,stimulus,1,588,,,PerfumeSession
1625341866.97,fixation,1,588,,,PerfumeSession
1625341867.84,stimulus,2,106,,,NoAct
1625341868.34,fixation,2,106,,,NoAct
1625341868.47,stimulus,1,589,,,PerfumeSession
1625341868.97,fixation,1,589,,,PerfumeSession
1625341869.84,stimulus,2,107,,,NoAct
1625341870.34,fixation,2,107,,,NoAct
1625341870.47,stimulus,1,590,,,PerfumeSession
1625341870.97,fixation,1,590,,,PerfumeSession
1625341871.84,stimulus,2,108,,,NoAct
1625341872.34,fixation,2,108,,,NoAct
1625341872.47,stimulus,1,591,,,PerfumeSession
1625341872.97,fixation,1,591,,,PerfumeSession
1625341873.84,stimulus,2,109,,,NoAct
1625341874.34,fixation,2,109,,,NoAct
1625341874.47,stimulus,1,592,,,PerfumeSession
1625341874.97,fixation,1,592,,,PerfumeSession
1625341875.84,stimulus,2,110,,,NoAct
1625341876.34,fixation,2,110,,,NoAct
1625341876.47,stimulus,1,593,,,PerfumeSession
1625341876.97,fixation,1,593,,,PerfumeSession
1625341877.84,stimulus,2,111,,,NoAct
1625341878.34,fixation,2,111,,,NoAct
1625341878.47,stimulus,1,594,,,PerfumeSession
1625341878.97,fixation,1,594,,,PerfumeSession
1625341879.84,stimulus,2,112,,,NoAct
1625341880.34,fixation,2,112,,,NoAct
1625341880.47,stimulus,1,595,,,PerfumeSession
1625341880.97,fixation,1,595,,,PerfumeSession
1625341881.84,stimulus,2,113,,,NoAct
1625341882.34,fixation,2,113,,,NoAct
1625341882.47,stimulus,1,596,,,PerfumeSession
1625341882.97,fixation,1,596,,,PerfumeSession
1625341883.84,stimulus,2,114,,,NoAct
1625341884.34,fixation,2,114,,,NoAct
1625341884.47,stimulus,1,597,,,PerfumeSession
1625341884.97,fixation,1,597,,,PerfumeSession
1625341885.84,stimulus,2,115,,,NoAct
1625341886.34,fixation,2,115,,,NoAct
1625341886.47,stimulus,1,598,,,PerfumeSession
1625341886.97,fixation,1,598,,,PerfumeSession
1625341887.84,stimulus,2,116,,,NoAct
1625341888.34,fixation,2,116,,,NoAct
1625341888.47,stimulus,1,599,,,PerfumeSession
1625341888.97,fixation,1,599,,,PerfumeSession
1625341889.84,stimulus,2,117,,,NoAct
1625341890.34,fixation,2,117,,,NoAct
1625341890.47,stimulus,1,600,,,PerfumeSession
1625341890.97,fixation,1,600,,,PerfumeSession
1625341891.84,stimulus,2,118,,,NoAct
1625341892.34,fixation,2,118,,,NoAct
1625341892.47,stimulus,1,601,,,PerfumeSession
1625341892.97,fixation,1,601,,,PerfumeSession
1625341893.84,stimulus,2,119,,,NoAct
1625341894.34,fixation,2,119,,,NoAct
1625341894.47,stimulus,1,602,,,PerfumeSession
1625341894.97,fixation,1,602,,,PerfumeSession
1625341895.84,stimulus,2,120,,,NoAct
1625341896.34,fixation,2,120,,,NoAct
1625341896.47,stimulus,1,603,,,PerfumeSession
1625341896.97,fixation,1,603,,,PerfumeSession
1625341897.84,stimulus,2,121,,,NoAct
1625341898.34,fixation,2,121,,,NoAct
1625341898.47,stimulus,1,604,,,PerfumeSession
1625341898.97,fixation,1,604,,,PerfumeSession
1625341899.84,stimulus,2,122,,,NoAct
1625341900.34,fixation,2,122,,,NoAct
1625341900.47,stimulus,1,605,,,PerfumeSession
1625341900.97,fixation,1,605,,,PerfumeSession
1625341901.84,stimulus,2,123,,,NoAct
1625341902.34,fixation,2,123,,,NoAct
1625341902.47,stimulus,1,606,,,PerfumeSession
1625341902.97,fixation,1,606,,,PerfumeSession
1625341903.84,stimulus,2,124,,,NoAct
1625341904.34,fixation,2,124,,,NoAct
1625341904.47,stimulus,1,607,,,PerfumeSession
1625341904.97,fixation,1,607,,,PerfumeSession
1625341905.84,stimulus,2,125,,,NoAct
1625341906.34,fixation,2,125,,,NoAct
1625341906.47,stimulus,1,608,,,PerfumeSession
1625341906.97,fixation,1,608,,,PerfumeSession
1625341907.84,stimulus,2,126,,,NoAct
1625341908.34,fixation,2,126,,,NoAct
1625341908.47,stimulus,1,609,,,PerfumeSession
1625341908.97,fixation,1,609,,,PerfumeSession
1625341909.84,stimulus,2,127,,,NoAct
1625341910.34,fixation,2,127,,,NoAct
1625341910.47,stimulus,1,610,,,PerfumeSession
1625341910.97,fixation,1,610,,,PerfumeSession
1625341911.84,stimulus,2,128,,,NoAct
1625341912.34,fixation,2,128,,,NoAct
1625341912.47,stimulus,1,611,,,PerfumeSession
1625341912.97,fixation,1,611,,,PerfumeSession
1625341913.84,stimulus,2,129,,,NoAct
1625341914.34,fixation,2,129,,,NoAct
1625341914.47,stimulus,1,612,,,PerfumeSession
1625341914.97,fixation,1,612,,,PerfumeSession
1625341915.84,stimulus,2,130,,,NoAct
1625341916.34,fixation,2,130,,,NoAct
1625341916.47,stimulus,1,613,,,PerfumeSession
1625341916.97,fixation,1,613,,,PerfumeSession
1625341917.84,stimulus,2,131,,,NoAct
1625341918.34,fixation,2,131,,,NoAct
1625341918.47,stimulus,1,614,,,PerfumeSession
1625341918.97,fixation,1,614,,,PerfumeSession
1625341919.84,stimulus,2,132,,,NoAct
1625341920.34,fixation,2,132,,,NoAct
1625341920.47,stimulus,1,615,,,PerfumeSession
1625341920.97,fixation,1,615,,,PerfumeSession
1625341921.84,stimulus,2,133,,,NoAct
1625341922.34,fixation,2,133,,,NoAct
1625341922.47,stimulus,1,616,,,PerfumeSession
1625341922.97,fixation,1,616,,,PerfumeSession
1625341923.84,stimulus,2,134,,,NoAct
1625341924.34,fixation,2,134,,,NoAct
1625341924.47,stimulus,1,617,,,PerfumeSession
1625341924.97,fixation,1,617,,,PerfumeSession
1625341925.84,stimulus,2,135,,,NoAct
1625341926.34,fixation,2,135,,,NoAct
1625341926.47,stimulus,1,618,,,PerfumeSession
1625341926.97,fixation,1,618,,,PerfumeSession
1625341927.84,stimulus,2,136,,,NoAct
1625341928.34,fixation,2,136,,,NoAct
1625341928.47,stimulus,1,619,,,PerfumeSession
1625341928.97,fixation,1,619,,,PerfumeSession
1625341929.84,stimulus,2,137,,,NoAct
1625341930.34,fixation,2,137,,,NoAct
1625341930.47,stimulus,1,620,,,PerfumeSession
1625341930.97,fixation,1,620,,,PerfumeSession
1625341931.84,stimulus,2,138,,,NoAct
1625341932.34,fixation,2,138,,,NoAct
1625341932.47,stimulus,1,621,,,PerfumeSession
1625341932.97,fixation,1,621,,,PerfumeSession
1625341933.84,stimulus,2,139,,,NoAct
1625341934.34,fixation,2,139,,,NoAct
1625341934.47,stimulus,1,622,,,PerfumeSession
1625341934.97,fixation,1,622,,,PerfumeSession
1625341935.84,stimulus,2,140,,,NoAct
1625341936.34,fixation,2,140,,,NoAct
1625341936.47,stimulus,1,623,,,PerfumeSession
1625341936.97,fixation,1,623,,,PerfumeSession
1625341937.84,stimulus,2,141,,,NoAct
1625341938.34,fixation,2,141,,,NoAct
1625341938.47,stimulus,1,624,,,PerfumeSession
1625341938.97,fixation,1,624,,,PerfumeSession
1625341939.84,stimulus,2,142,,,NoAct
1625341940.34,fixation,2,142,,,NoAct
1625341940.47,stimulus,1,625,,,PerfumeSession
1625341940.97,fixation,1,625,,,PerfumeSession
1625341941.84,stimulus,2,143,,,NoAct
1625341942.34,fixation,2,143,,,NoAct
1625341942.47,stimulus,1,626,,,PerfumeSession
1625341942.97,fixation,1,626,,,PerfumeSession
1625341943.84,stimulus,2,144,,,NoAct
1625341944.34,fixation,2,144,,,NoAct
1625341944.47,stimulus,1,627,,,PerfumeSession
1625341944.97,fixation,1,627,,,PerfumeSession
1625341945.84,stimulus,2,145,,,NoAct
1625341946.34,fixation,2,145,,,NoAct
1625341946.47,stimulus,1,628,,,PerfumeSession
1625341946.97,fixation,1,628,,,PerfumeSession
1625341947.84,stimulus,2,146,,,NoAct
1625341948.34,fixation,2,146,,,NoAct
1625341948.47,stimulus,1,629,,,PerfumeSession
1625341948.97,fixation,1,629,,,PerfumeSession
1625341949.84,stimulus,2,147,,,NoAct
1625341950.34,fixation,2,147,,,NoAct
1625341950.47,stimulus,1,630,,,PerfumeSession
1625341950.97,fixation,1,630,,,PerfumeSession
1625341951.84,stimulus,2,148,,,NoAct
1625341952.34,fixation,2,148,,,NoAct
1625341952.47,stimulus,1,631,,,PerfumeSession
1625341952.97,fixation,1,631,,,PerfumeSession
1625341953.84,stimulus,2,149,,,NoAct
1625341954.34,fixation,2,149,,,NoAct
1625341954.47,stimulus,1,632,,,PerfumeSession
1625341954.97,fixation,1,632,,,PerfumeSession
1625341955.84,stimulus,2,150,,,NoAct
1625341956.34,fixation,2,150,,,NoAct
1625341956.47,stimulus,1,633,,,PerfumeSession
1625341956.97,fixation,1,633,,,PerfumeSession
1625341957.84,stimulus,2,151,,,NoAct
1625341958.34,fixation,2,151,,,NoAct
1625341958.47,stimulus,1,634,,,PerfumeSession
1625341958.97,fixation,1,634,,,PerfumeSession
1625341959.84,stimulus,2,152,,,NoAct
1625341960.34,fixation,2,152,,,NoAct
1625341960.47,stimulus,1,635,,,PerfumeSession
1625341960.97,fixation,1,635,,,PerfumeSession
1625341961.84,stimulus,2,153,,,NoAct
1625341962.34,fixation,2,153,,,NoAct
1625341962.47,stimulus,1,636,,,PerfumeSession
1625341962.97,fixation,1,636,,,PerfumeSession
1625341963.84,stimulus,2,154,,,NoAct
1625341964.34,fixation,2,154,,,NoAct
1625341964.47,stimulus,1,637,,,PerfumeSession
1625341964.97,fixation,1,637,,,PerfumeSession
1625341965.84,stimulus,2,155,,,NoAct
1625341966.34,fixation,2,155,,,NoAct
1625341966.47,stimulus,1,638,,,PerfumeSession
1625341966.97,fixation,1,638,,,PerfumeSession
1625341967.84,stimulus,2,156,,,NoAct
1625341968.34,fixation,2,156,,,NoAct
1625341968.47,stimulus,1,639,,,PerfumeSession
1625341968.97,fixation,1,639,,,PerfumeSession
1625341969.84,stimulus,2,157,,,NoAct
1625341970.34,fixation,2,157,,,NoAct
1625341970.47,stimulus,1,640,,,PerfumeSession
1625341970.97,fixation,1,640,,,PerfumeSession
1625341971.84,stimulus,2,158,,,NoAct
1625341972.34,fixation,2,158,,,NoAct
1625341972.47,stimulus,1,641,,,PerfumeSession
1625341972.97,fixation,1,641,,,PerfumeSession
1625341973.84,stimulus,2,159,,,NoAct
1625341974.34,fixation,2,159,,,NoAct
1625341974.47,stimulus,1,642,,,PerfumeSession
1625341974.97,fixation,1,642,,,PerfumeSession
1625341975.84,stimulus,2,160,,,NoAct
1625341976.34,fixation,2,160,,,NoAct
1625341976.47,stimulus,1,643,,,PerfumeSession
1625341976.97,fixation,1,643,,,PerfumeSession
1625341977.84,stimulus,2,161,,,NoAct
1625341978.34,fixation,2,161,,,NoAct
1625341978.47,stimulus,1,644,,,PerfumeSession
1625341978.97,fixation,1,644,,,PerfumeSession
1625341979.84,stimulus,2,162,,,NoAct
1625341980.34,fixation,2,162,,,NoAct
1625341980.47,stimulus,1,645,,,PerfumeSession
1625341980.97,fixation,1,645,,,PerfumeSession
1625341981.84,stimulus,2,163,,,NoAct
1625341982.34,fixation,2,163,,,NoAct
1625341982.47,stimulus,1,646,,,PerfumeSession
1625341982.97,fixation,1,646,,,PerfumeSession
1625341983.84,stimulus,2,164,,,NoAct
1625341984.34,fixation,2,164,,,NoAct
1625341984.47,stimulus,1,647,,,PerfumeSession
1625341984.97,fixation,1,647,,,PerfumeSession
1625341985.84,stimulus,2,165,,,NoAct
1625341986.34,fixation,2,165,,,NoAct
1625341986.47,stimulus,1,648,,,PerfumeSession
1625341986.97,fixation,1,648,,,PerfumeSession
1625341987.84,stimulus,2,166,,,NoAct
1625341988.34,fixation,2,166,,,NoAct
1625341988.47,stimulus,1,649,,,PerfumeSession
1625341988.97,fixation,1,649,,,PerfumeSession
1625341989.84,stimulus,2,167,,,NoAct
1625341990.34,fixation,2,167,,,NoAct
1625341990.47,stimulus,1,650,,,PerfumeSession
1625341990.97,fixation,1,650,,,PerfumeSession
1625341991.84,stimulus,2,168,,,NoAct
1625341992.34,fixation,2,168,,,NoAct
1625341992.47,stimulus,1,651,,,PerfumeSession
1625341992.97,fixation,1,651,,,PerfumeSession
1625341993.84,stimulus,2,169,,,NoAct
1625341994.34,fixation,2,169,,,NoAct
1625341994.47,stimulus,1,652,,,PerfumeSession
1625341994.97,fixation,1,652,,,PerfumeSession
1625341995.84,stimulus,2,170,,,NoAct
1625341996.34,fixation,2,170,,,NoAct
1625341996.47,stimulus,1,653,,,PerfumeSession
1625341996.97,fixation,1,653,,,PerfumeSession
1625341997.84,stimulus,2,171,,,NoAct
1625341998.34,fixation,2,171,,,NoAct
1625341998.47,stimulus,1,654,,,PerfumeSession
1625341998.97,fixation,1,654,,,PerfumeSession
1625341999.84,stimulus,2,172,,,NoAct
1625342000.34,fixation,2,172,,,NoAct
1625342000.47,stimulus,1,655,,,PerfumeSession
1625342000.97,fixation,1,655,,,PerfumeSession
1625342001.84,stimulus,2,173,,,NoAct
1625342002.34,fixation,2,173,,,NoAct
1625342002.47,stimulus,1,656,,,PerfumeSession
1625342002.97,fixation,1,656,,,PerfumeSession
1625342003.84,stimulus,2,174,,,NoAct
1625342004.34,fixation,2,174,,,NoAct
1625342004.47,stimulus,1,657,,,PerfumeSession
1625342004.97,fixation,1,657,,,PerfumeSession
1625342005.84,stimulus,2,175,,,NoAct
1625342006.34,fixation,2,175,,,NoAct
1625342006.47,stimulus,1,658,,,PerfumeSession
1625342006.97,fixation,1,658,,,PerfumeSession
1625342007.84,stimulus,2,176,,,NoAct
1625342008.34,fixation,2,176,,,NoAct
1625342008.47,stimulus,1,659,,,PerfumeSession
1625342008.97,fixation,1,659,,,PerfumeSession
1625342009.84,stimulus,2,177,,,NoAct
1625342010.34,fixation,2,177,,,NoAct
1625342010.47,stimulus,1,660,,,PerfumeSession
1625342010.97,fixation,1,660,,,PerfumeSession
1625342011.84,stimulus,2,178,,,NoAct
1625342012.34,fixation,2,178,,,NoAct
1625342012.47,stimulus,1,661,,,PerfumeSession
1625342012.97,fixation,1,661,,,PerfumeSession
1625342013.84,stimulus,2,179,,,NoAct
1625342014.34,fixation,2,179,,,NoAct
1625342014.47,stimulus,1,662,,,PerfumeSession
1625342014.97,fixation,1,662,,,PerfumeSession
1625342015.84,stimulus,2,180,,,NoAct
1625342016.34,fixation,2,180,,,NoAct
1625342016.47,stimulus,1,663,,,PerfumeSession
1625342016.97,fixation,1,663,,,PerfumeSession
1625342017.84,stimulus,2,181,,,NoAct
1625342018.34,fixation,2,181,,,NoAct
1625342018.47,stimulus,1,664,,,PerfumeSession
1625342018.97,fixation,1,664,,,PerfumeSession
1625342019.84,stimulus,2,182,,,NoAct
1625342020.34,fixation,2,182,,,NoAct
1625342020.47,stimulus,1,665,,,PerfumeSession
1625342020.97,fixation,1,665,,,PerfumeSession
1625342021.84,stimulus,2,183,,,NoAct
1625342022.34,fixation,2,183,,,NoAct
1625342022.47,stimulus,1,666,,,PerfumeSession
1625342022.97,fixation,1,666,,,PerfumeSession
1625342023.84,stimulus,2,184,,,NoAct
1625342024.34,fixation,2,184,,,NoAct
1625342024.47,stimulus,1,667,,,PerfumeSession
1625342024.97,fixation,1,667,,,PerfumeSession
1625342025.84,stimulus,2,185,,,NoAct
1625342026.34,fixation,2,185,,,NoAct
1625342026.47,stimulus,1,668,,,PerfumeSession
1625342026.97,fixation,1,668,,,PerfumeSession
1625342027.84,stimulus,2,186,,,NoAct
1625342028.34,fixation,2,186,,,NoAct
1625342028.47,stimulus,1,669,,,PerfumeSession
1625342028.97,fixation,1,669,,,PerfumeSession
1625342029.84,stimulus,2,187,,,NoAct
1625342030.34,fixation,2,187,,,NoAct
1625342030.47,stimulus,1,670,,,PerfumeSession
1625342030.97,fixation,1,670,,,PerfumeSession
1625342031.84,stimulus,2,188,,,NoAct
1625342032.34,fixation,2,188,,,NoAct
1625342032.47,stimulus,1,671,,,PerfumeSession
1625342032.97,fixation,1,671,,,PerfumeSession
1625342033.84,stimulus,2,189,,,NoAct
1625342034.34,fixation,2,189,,,NoAct
1625342034.47,stimulus,1,672,,,PerfumeSession
1625342034.97,fixation,1,672,,,PerfumeSession
1625342035.84,stimulus,2,190,,,NoAct
1625342036.34,fixation,2,190,,,NoAct
1625342036.47,stimulus,1,673,,,PerfumeSession
1625342036.97,fixation,1,673,,,PerfumeSession
1625342037.84,stimulus,2,191,,,NoAct
1625342038.34,fixation,2,191,,,NoAct
1625342038.47,stimulus,1,674,,,PerfumeSession
1625342038.97,fixation,1,674,,,PerfumeSession
1625342039.84,stimulus,2,192,,,NoAct
1625342040.34,fixation,2,192,,,NoAct
1625342040.47,stimulus,1,675,,,PerfumeSession
1625342040.97,fixation,1,675,,,PerfumeSession
1625342041.84,stimulus,2,193,,,NoAct
1625342042.34,fixation,2,193,,,NoAct
1625342042.47,stimulus,1,676,,,PerfumeSession
1625342042.97,fixation,1,676,,,PerfumeSession
1625342043.84,stimulus,2,194,,,NoAct
1625342044.34,fixation,2,194,,,NoAct
1625342044.47,stimulus,1,677,,,PerfumeSession
1625342044.97,fixation,1,677,,,PerfumeSession
1625342045.84,stimulus,2,195,,,NoAct
1625342046.34,fixation,2,195,,,NoAct
1625342046.47,stimulus,1,678,,,PerfumeSession
1625342046.97,fixation,1,678,,,PerfumeSession
1625342047.84,stimulus,2,196,,,NoAct
1625342048.34,fixation,2,196,,,NoAct
1625342048.47,stimulus,1,679,,,PerfumeSession
1625342048.97,fixation,1,679,,,PerfumeSession
1625342049.84,stimulus,2,197,,,NoAct
1625342050.34,fixation,2,197,,,NoAct
1625342050.47,stimulus,1,680,,,PerfumeSession
1625342050.97,fixation,1,680,,,PerfumeSession
1625342051.84,stimulus,2,198,,,NoAct
1625342052.34,fixation,2,198,,,NoAct
1625342052.47,stimulus,1,681,,,PerfumeSession
1625342052.97,fixation,1,681,,,PerfumeSession
1625342053.84,stimulus,2,199,,,NoAct
1625342054.34,fixation,2,199,,,NoAct
1625342054.47,stimulus,1,682,,,PerfumeSession
1625342054.97,fixation,1,682,,,PerfumeSession
1625342055.84,stimulus,2,200,,,NoAct
1625342056.34,fixation,2,200,,,NoAct
1625342056.47,stimulus,1,683,,,PerfumeSession
1625342056.97,fixation,1,683,,,PerfumeSession
1625342057.84,stimulus,2,201,,,NoAct
1625342058.34,fixation,2,201,,,NoAct
1625342058.47,stimulus,1,684,,,PerfumeSession
1625342058.97,fixation,1,684,,,PerfumeSession
1625342059.84,stimulus,2,202,,,NoAct
1625342060.34,fixation,2,202,,,NoAct
1625342060.47,stimulus,1,685,,,PerfumeSession
1625342060.97,fixation,1,685,,,PerfumeSession
1625342061.84,stimulus,2,203,,,NoAct
1625342062.34,fixation,2,203,,,NoAct
1625342062.47,stimulus,1,686,,,PerfumeSession
1625342062.97,fixation,1,686,,,PerfumeSession
1625342063.84,stimulus,2,204,,,NoAct
1625342064.34,fixation,2,204,,,NoAct
1625342064.47,stimulus,1,687,,,PerfumeSession
1625342064.97,fixation,1,687,,,PerfumeSession
1625342065.84,stimulus,2,205,,,NoAct
1625342066.34,fixation,2,205,,,NoAct
1625342066.47,stimulus,1,688,,,PerfumeSession
1625342066.97,fixation,1,688,,,PerfumeSession
1625342067.84,stimulus,2,206,,,NoAct
1625342068.34,fixation,2,206,,,NoAct
1625342068.47,stimulus,1,689,,,PerfumeSession
1625342068.97,fixation,1,689,,,PerfumeSession
1625342069.84,stimulus,2,207,,,NoAct
1625342070.34,fixation,2,207,,,NoAct
1625342070.47,stimulus,1,690,,,PerfumeSession
1625342070.97,fixation,1,690,,,PerfumeSession
1625342071.84,stimulus,2,208,,,NoAct
1625342072.34,fixation,2,208,,,NoAct
1625342072.47,stimulus,1,691,,,PerfumeSession
1625342072.97,fixation,1,691,,,PerfumeSession
1625342073.84,stimulus,2,209,,,NoAct
1625342074.34,fixation,2,209,,,NoAct
1625342074.47,stimulus,1,692,,,PerfumeSession
1625342074.53,stimulus,3,1,,,PracticeSession
1625342074.97,fixation,1,692,,,PerfumeSession
1625342075.03,fixation,3,1,,,PracticeSession
1625342075.84,stimulus,2,210,,,NoAct
1625342076.34,fixation,2,210,,,NoAct
1625342076.47,stimulus,1,693,,,PerfumeSession
1625342076.53,stimulus,3,2,,,PracticeSession
1625342076.97,fixation,1,693,,,PerfumeSession
1625342077.03,fixation,3,2,,,PracticeSession
1625342077.84,stimulus,2,211,,,NoAct
1625342078.34,fixation,2,211,,,NoAct
1625342078.47,stimulus,1,694,,,PerfumeSession
1625342078.53,stimulus,3,3,,,PracticeSession
1625342078.97,fixation,1,694,,,PerfumeSession
1625342079.03,fixation,3,3,,,PracticeSession
1625342079.84,stimulus,2,212,,,NoAct
1625342080.34,fixation,2,212,,,NoAct
1625342080.47,stimulus,1,695,,,PerfumeSession
1625342080.53,stimulus,3,4,,,PracticeSession
1625342080.97,fixation,1,695,,,PerfumeSession
1625342081.03,fixation,3,4,,,PracticeSession
1625342081.84,stimulus,2,213,,,NoAct
1625342082.34,fixation,2,213,,,NoAct
1625342082.47,stimulus,1,696,,,PerfumeSession
1625342082.53,stimulus,3,5,,,PracticeSession
1625342082.97,fixation,1,696,,,PerfumeSession
1625342083.03,fixation,3,5,,,PracticeSession
1625342083.84,stimulus,2,214,,,NoAct
1625342084.34,fixation,2,214,,,NoAct
1625342084.47,stimulus,1,697,,,PerfumeSession
1625342084.53,stimulus,3,6,,,PracticeSession
1625342084.97,fixation,1,697,,,PerfumeSession
1625342085.03,fixation,3,6,,,PracticeSession
1625342085.84,stimulus,2,215,,,NoAct
1625342086.34,fixation,2,215,,,NoAct
1625342086.47,stimulus,1,698,,,PerfumeSession
1625342086.53,stimulus,3,7,,,PracticeSession
1625342086.97,fixation,1,698,,,PerfumeSession
1625342087.03,fixation,3,7,,,PracticeSession
1625342087.84,stimulus,2,216,,,NoAct
1625342088.34,fixation,2,216,,,NoAct
1625342088.47,stimulus,1,699,,,PerfumeSession
1625342088.53,stimulus,3,8,,,PracticeSession
1625342088.97,fixation,1,699,,,PerfumeSession
1625342089.03,fixation,3,8,,,PracticeSession
1625342089.84,stimulus,2,217,,,NoAct
1625342090.34,fixation,2,217,,,NoAct
1625342090.47,stimulus,1,700,,,PerfumeSession
1625342090.53,stimulus,3,9,,,PracticeSession
1625342090.97,fixation,1,700,,,PerfumeSession
1625342091.03,fixation,3,9,,,PracticeSession
1625342091.84,stimulus,2,218,,,NoAct
1625342092.34,fixation,2,218,,,NoAct
1625342092.47,stimulus,1,701,,,PerfumeSession
1625342092.53,stimulus,3,10,,,PracticeSession
1625342092.97,fixation,1,701,,,PerfumeSession
1625342093.03,fixation,3,10,,,PracticeSession
1625342093.84,stimulus,2,219,,,NoAct
1625342094.34,fixation,2,219,,,NoAct
1625342094.47,stimulus,1,702,,,PerfumeSession
1625342094.53,stimulus,3,11,,,PracticeSession
1625342094.97,fixation,1,702,,,PerfumeSession
1625342095.03,fixation,3,11,,,PracticeSession
1625342095.84,stimulus,2,220,,,NoAct
1625342096.34,fixation,2,220,,,NoAct
1625342096.47,stimulus,1,703,,,PerfumeSession
1625342096.53,stimulus,3,12,,,PracticeSession
1625342096.97,fixation,1,703,,,PerfumeSession
1625342097.03,fixation,3,12,,,PracticeSession
1625342097.84,stimulus,2,221,,,NoAct
1625342098.34,fixation,2,221,,,NoAct
1625342098.47,stimulus,1,704,,,PerfumeSession
1625342098.53,stimulus,3,13,,,PracticeSession
1625342098.97,fixation,1,704,,,PerfumeSession
1625342099.03,fixation,3,13,,,PracticeSession
1625342099.84,stimulus,2,222,,,NoAct
1625342100.34,fixation,2,222,,,NoAct
1625342100.47,stimulus,1,705,,,PerfumeSession
1625342100.53,stimulus,3,14,,,PracticeSession
1625342100.97,fixation,1,705,,,PerfumeSession
1625342101.03,fixation,3,14,,,PracticeSession
1625342101.84,stimulus,2,223,,,NoAct
1625342102.34,fixation,2,223,,,NoAct
1625342102.47,stimulus,1,706,,,PerfumeSession
1625342102.53,stimulus,3,15,,,PracticeSession
1625342102.97,fixation,1,706,,,PerfumeSession
1625342103.03,fixation,3,15,,,PracticeSession
1625342103.84,stimulus,2,224,,,NoAct
1625342104.34,fixation,2,224,,,NoAct
1625342104.47,stimulus,1,707,,,PerfumeSession
1625342104.53,stimulus,3,16,,,PracticeSession
1625342104.97,fixation,1,707,,,PerfumeSession
1625342105.03,fixation,3,16,,,PracticeSession
1625342105.84,stimulus,2,225,,,NoAct
1625342106.34,fixation,2,225,,,NoAct
1625342106.47,stimulus,1,708,,,PerfumeSession
1625342106.53,stimulus,3,17,,,PracticeSession
1625342106.97,fixation,1,708,,,PerfumeSession
1625342107.03,fixation,3,17,,,PracticeSession
1625342107.84,stimulus,2,226,,,NoAct
1625342108.34,fixation,2,226,,,NoAct
1625342108.47,stimulus,1,709,,,PerfumeSession
1625342108.53,stimulus,3,18,,,PracticeSession
1625342108.97,fixation,1,709,,,PerfumeSession
1625342109.03,fixation,3,18,,,PracticeSession
1625342109.84,stimulus,2,227,,,NoAct
1625342110.34,fixation,2,227,,,NoAct
1625342110.47,stimulus,1,710,,,PerfumeSession
1625342110.53,stimulus,3,19,,,PracticeSession
1625342110.97,fixation,1,710,,,PerfumeSession
1625342111.03,fixation,3,19,,,PracticeSession
1625342111.84,stimulus,2,228,,,NoAct
1625342112.34,fixation,2,228,,,NoAct
1625342112.47,stimulus,1,711,,,PerfumeSession
1625342112.53,stimulus,3,20,,,PracticeSession
1625342112.97,fixation,1,711,,,PerfumeSession
1625342113.03,fixation,3,20,,,PracticeSession
1625342113.84,stimulus,2,229,,,NoAct
1625342114.34,fixation,2,229,,,NoAct
1625342114.47,stimulus,1,712,,,PerfumeSession
1625342114.53,stimulus,3,21,,,PracticeSession
1625342114.97,fixation,1,712,,,PerfumeSession
1625342115.03,fixation,3,21,,,PracticeSession
1625342115.84,stimulus,2,230,,,NoAct
1625342116.34,fixation,2,230,,,NoAct
1625342116.47,stimulus,1,713,,,PerfumeSession
1625342116.53,stimulus,3,22,,,PracticeSession
1625342116.97,fixation,1,713,,,PerfumeSession
1625342117.03,fixation,3,22,,,PracticeSession
1625342117.84,stimulus,2,231,,,NoAct
1625342118.34,fixation,2,231,,,NoAct
1625342118.47,stimulus,1,714,,,PerfumeSession
1625342118.53,stimulus,3,23,,,PracticeSession
1625342118.97,fixation,1,714,,,PerfumeSession
1625342119.03,fixation,3,23,,,PracticeSession
1625342119.84,stimulus,2,232,,,NoAct
1625342120.34,fixation,2,232,,,NoAct
1625342120.47,stimulus,1,715,,,PerfumeSession
1625342120.53,stimulus,3,24,,,PracticeSession
1625342120.97,fixation,1,715,,,PerfumeSession
1625342121.03,fixation,3,24,,,PracticeSession
1625342121.84,stimulus,2,233,,,NoAct
1625342122.34,fixation,2,233,,,NoAct
1625342122.47,stimulus,1,716,,,PerfumeSession
1625342122.53,stimulus,3,25,,,PracticeSession
1625342122.97,fixation,1,716,,,PerfumeSession
1625342123.03,fixation,3,25,,,PracticeSession
1625342123.84,stimulus,2,234,,,NoAct
1625342124.34,fixation,2,234,,,NoAct
1625342124.47,stimulus,1,717,,,PerfumeSession
1625342124.53,stimulus,3,26,,,PracticeSession
1625342124.97,fixation,1,717,,,PerfumeSession
1625342125.03,fixation,3,26,,,PracticeSession
1625342125.84,stimulus,2,235,,,NoAct
1625342126.34,fixation,2,235,,,NoAct
1625342126.47,stimulus,1,718,,,PerfumeSession
1625342126.53,stimulus,3,27,,,PracticeSession
1625342126.97,fixation,1,718,,,PerfumeSession
1625342127.03,fixation,3,27,,,PracticeSession
1625342127.84,stimulus,2,236,,,NoAct
1625342128.34,fixation,2,236,,,NoAct
1625342128.47,stimulus,1,719,,,PerfumeSession
1625342128.53,stimulus,3,28,,,PracticeSession
1625342128.97,fixation,1,719,,,PerfumeSession
1625342129.03,fixation,3,28,,,PracticeSession
1625342129.84,stimulus,2,237,,,NoAct
1625342130.34,fixation,2,237,,,NoAct
1625342130.47,stimulus,1,720,,,PerfumeSession
1625342130.53,stimulus,3,29,,,PracticeSession
1625342130.97,fixation,1,720,,,PerfumeSession
1625342131.03,fixation,3,29,,,PracticeSession
1625342131.84,stimulus,2,238,,,NoAct
1625342132.34,fixation,2,238,,,NoAct
1625342132.47,stimulus,1,721,,,PerfumeSession
1625342132.53,stimulus,3,30,,,PracticeSession
1625342132.97,fixation,1,721,,,PerfumeSession
1625342133.03,fixation,3,30,,,PracticeSession
1625342133.84,stimulus,2,239,,,NoAct
1625342134.34,fixation,2,239,,,NoAct
1625342134.47,stimulus,1,722,,,PerfumeSession
1625342134.53,stimulus,3,31,,,PracticeSession
1625342134.97,fixation,1,722,,,PerfumeSession
1625342135.03,fixation,3,31,,,PracticeSession
1625342135.84,stimulus,2,240,,,NoAct
1625342136.34,fixation,2,240,,,NoAct
1625342136.47,stimulus,1,723,,,PerfumeSession
1625342136.53,stimulus,3,32,,,PracticeSession
1625342136.97,fixation,1,723,,,PerfumeSession
1625342137.03,fixation,3,32,,,PracticeSession
1625342137.84,stimulus,2,241,,,NoAct
1625342138.34,fixation,2,241,,,NoAct
1625342138.47,stimulus,1,724,,,PerfumeSession
1625342138.53,stimulus,3,33,,,PracticeSession
1625342138.97,fixation,1,724,,,PerfumeSession
1625342139.03,fixation,3,33,,,PracticeSession
1625342139.84,stimulus,2,242,,,NoAct
1625342140.34,fixation,2,242,,,NoAct
1625342140.47,stimulus,1,725,,,PerfumeSession
1625342140.53,stimulus,3,34,,,PracticeSession
1625342140.97,fixation,1,725,,,PerfumeSession
1625342141.03,fixation,3,34,,,PracticeSession
1625342141.84,stimulus,2,243,,,NoAct
1625342142.34,fixation,2,243,,,NoAct
1625342142.47,stimulus,1,726,,,PerfumeSession
1625342142.53,stimulus,3,35,,,PracticeSession
1625342142.97,fixation,1,726,,,PerfumeSession
1625342143.03,fixation,3,35,,,PracticeSession
1625342143.84,stimulus,2,244,,,NoAct
1625342144.34,fixation,2,244,,,NoAct
1625342144.47,stimulus,1,727,,,PerfumeSession
1625342144.53,stimulus,3,36,,,PracticeSession
1625342144.97,fixation,1,727,,,PerfumeSession
1625342145.03,fixation,3,36,,,PracticeSession
1625342145.84,stimulus,2,245,,,NoAct
1625342146.34,fixation,2,245,,,NoAct
1625342146.47,stimulus,1,728,,,PerfumeSession
1625342146.53,stimulus,3,37,,,PracticeSession
1625342146.97,fixation,1,728,,,PerfumeSession
1625342147.03,fixation,3,37,,,PracticeSession
1625342147.84,stimulus,2,246,,,NoAct
1625342148.34,fixation,2,246,,,NoAct
1625342148.47,stimulus,1,729,,,PerfumeSession
1625342148.53,stimulus,3,38,,,PracticeSession
1625342148.97,fixation,1,729,,,PerfumeSession
1625342149.03,fixation,3,38,,,PracticeSession
1625342149.84,stimulus,2,247,,,NoAct
1625342150.34,fixation,2,247,,,NoAct
1625342150.47,stimulus,1,730,,,PerfumeSession
1625342150.53,stimulus,3,39,,,PracticeSession
1625342150.97,fixation,1,730,,,PerfumeSession
1625342151.03,fixation,3,39,,,PracticeSession
1625342151.84,stimulus,2,248,,,NoAct
1625342152.34,fixation,2,248,,,NoAct
1625342152.47,stimulus,1,731,,,PerfumeSession
1625342152.53,stimulus,3,40,,,PracticeSession
1625342152.97,fixation,1,731,,,PerfumeSession
1625342153.03,fixation,3,40,,,PracticeSession
1625342153.84,stimulus,2,249,,,NoAct
1625342154.34,fixation,2,249,,,NoAct
1625342154.47,stimulus,1,732,,,PerfumeSession
1625342154.53,stimulus,3,41,,,PracticeSession
1625342154.97,fixation,1,732,,,PerfumeSession
1625342155.03,fixation,3,41,,,PracticeSession
1625342155.84,stimulus,2,250,,,NoAct
1625342156.34,fixation,2,250,,,NoAct
1625342156.47,stimulus,1,733,,,PerfumeSession
1625342156.53,stimulus,3,42,,,PracticeSession
1625342156.97,fixation,1,733,,,PerfumeSession
1625342157.03,fixation,3,42,,,PracticeSession
1625342157.84,stimulus,2,251,,,NoAct
1625342158.34,fixation,2,251,,,NoAct
1625342158.47,stimulus,1,734,,,PerfumeSession
1625342158.53,stimulus,3,43,,,PracticeSession
1625342158.97,fixation,1,734,,,PerfumeSession
1625342159.03,fixation,3,43,,,PracticeSession
1625342159.84,stimulus,2,252,,,NoAct
1625342160.34,fixation,2,252,,,NoAct
1625342160.47,stimulus,1,735,,,PerfumeSession
1625342160.53,stimulus,3,44,,,PracticeSession
1625342160.97,fixation,1,735,,,PerfumeSession
1625342161.03,fixation,3,44,,,PracticeSession
1625342161.84,stimulus,2,253,,,NoAct
1625342162.34,fixation,2,253,,,NoAct
1625342162.47,stimulus,1,736,,,PerfumeSession
1625342162.53,stimulus,3,45,,,NoAct
1625342162.97,fixation,1,736,,,PerfumeSession
1625342163.03,fixation,3,45,,,NoAct
1625342163.84,stimulus,2,254,,,NoAct
1625342164.34,fixation,2,254,,,NoAct
1625342164.47,stimulus,1,737,,,PerfumeSession
1625342164.53,stimulus,3,46,,,NoAct
1625342164.97,fixation,1,737,,,PerfumeSession
1625342165.03,fixation,3,46,,,NoAct
1625342165.84,stimulus,2,255,,,NoAct
1625342166.34,fixation,2,255,,,NoAct
1625342166.47,stimulus,1,738,,,PerfumeSession
1625342166.53,stimulus,3,47,,,NoAct
1625342166.97,fixation,1,738,,,PerfumeSession
1625342167.03,fixation,3,47,,,NoAct
1625342167.84,stimulus,2,256,,,NoAct
1625342168.34,fixation,2,256,,,NoAct
1625342168.47,stimulus,1,739,,,PerfumeSession
1625342168.53,stimulus,3,48,,,NoAct
1625342168.97,fixation,1,739,,,PerfumeSession
1625342169.03,fixation,3,48,,,NoAct
1625342169.84,stimulus,2,257,,,NoAct
1625342170.34,fixation,2,257,,,NoAct
1625342170.47,stimulus,1,740,,,PerfumeSession
1625342170.53,stimulus,3,49,,,NoAct
1625342170.97,fixation,1,740,,,PerfumeSession
1625342171.03,fixation,3,49,,,NoAct
1625342171.84,stimulus,2,258,,,NoAct
1625342172.34,fixation,2,258,,,NoAct
1625342172.47,stimulus,1,741,,,PerfumeSession
1625342172.53,stimulus,3,50,,,NoAct
1625342172.97,fixation,1,741,,,PerfumeSession
1625342173.03,fixation,3,50,,,NoAct
1625342173.84,stimulus,2,259,,,NoAct
1625342174.34,fixation,2,259,,,NoAct
1625342174.47,stimulus,1,742,,,PerfumeSession
1625342174.53,stimulus,3,51,,,NoAct
1625342174.97,fixation,1,742,,,PerfumeSession
1625342175.03,fixation,3,51,,,NoAct
1625342175.84,stimulus,2,260,,,NoAct
1625342176.34,fixation,2,260,,,NoAct
1625342176.47,stimulus,1,743,,,PerfumeSession
1625342176.53,stimulus,3,52,,,NoAct
1625342176.97,fixation,1,743,,,PerfumeSession
1625342177.03,fixation,3,52,,,NoAct
1625342177.84,stimulus,2,261,,,NoAct
1625342178.34,fixation,2,261,,,NoAct
1625342178.47,stimulus,1,744,,,PerfumeSession
1625342178.53,stimulus,3,53,,,NoAct
1625342178.97,fixation,1,744,,,PerfumeSession
1625342179.03,fixation,3,53,,,NoAct
1625342179.84,stimulus,2,262,,,NoAct
1625342180.34,fixation,2,262,,,NoAct
1625342180.47,stimulus,1,745,,,PerfumeSession
1625342180.53,stimulus,3,54,,,NoAct
1625342180.97,fixation,1,745,,,PerfumeSession
1625342181.03,fixation,3,54,,,NoAct
1625342181.84,stimulus,2,263,,,NoAct
1625342182.34,fixation,2,263,,,NoAct
1625342182.47,stimulus,1,746,,,PerfumeSession
1625342182.53,stimulus,3,55,,,NoAct
1625342182.97,fixation,1,746,,,PerfumeSession
1625342183.03,fixation,3,55,,,NoAct
1625342183.84,stimulus,2,264,,,NoAct
1625342184.34,fixation,2,264,,,NoAct
1625342184.47,stimulus,1,747,,,PerfumeSession
1625342184.53,stimulus,3,56,,,NoAct
1625342184.97,fixation,1,747,,,PerfumeSession
1625342185.03,fixation,3,56,,,NoAct
1625342185.84,stimulus,2,265,,,NoAct
1625342186.34,fixation,2,265,,,NoAct
1625342186.47,stimulus,1,748,,,PerfumeSession
1625342186.53,stimulus,3,57,,,NoAct
1625342186.97,fixation,1,748,,,PerfumeSession
1625342187.03,fixation,3,57,,,NoAct
1625342187.84,stimulus,2,266,,,NoAct
1625342188.34,fixation,2,266,,,NoAct
1625342188.47,stimulus,1,749,,,PerfumeSession
1625342188.53,stimulus,3,58,,,NoAct
1625342188.97,fixation,1,749,,,PerfumeSession
1625342189.03,fixation,3,58,,,NoAct
1625342189.84,stimulus,2,267,,,NoAct
1625342190.34,fixation,2,267,,,NoAct
1625342190.47,stimulus,1,750,,,PerfumeSession
1625342190.53,stimulus,3,59,,,NoAct
1625342190.97,fixation,1,750,,,PerfumeSession
1625342191.03,fixation,3,59,,,NoAct
1625342191.84,stimulus,2,268,,,NoAct
1625342192.34,fixation,2,268,,,NoAct
1625342192.47,stimulus,1,751,,,CoffeeSession
1625342192.53,stimulus,3,60,,,NoAct
1625342192.97,fixation,1,751,,,CoffeeSession
1625342193.03,fixation,3,60,,,NoAct
1625342193.84,stimulus,2,269,,,NoAct
1625342194.34,fixation,2,269,,,NoAct
1625342194.47,stimulus,1,752,,,CoffeeSession
1625342194.53,stimulus,3,61,,,NoAct
1625342194.97,fixation,1,752,,,CoffeeSession
1625342195.03,fixation,3,61,,,NoAct
1625342195.84,stimulus,2,270,,,NoAct
1625342196.34,fixation,2,270,,,NoAct
1625342196.47,stimulus,1,753,,,CoffeeSession
1625342196.53,stimulus,3,62,,,NoAct
1625342196.97,fixation,1,753,,,CoffeeSession
1625342197.03,fixation,3,62,,,NoAct
1625342197.84,stimulus,2,271,,,NoAct
1625342198.34,fixation,2,271,,,NoAct
1625342198.47,stimulus,1,754,,,CoffeeSession
1625342198.53,stimulus,3,63,,,NoAct
1625342198.97,fixation,1,754,,,CoffeeSession
1625342199.03,fixation,3,63,,,NoAct
1625342199.84,stimulus,2,272,,,NoAct
1625342200.34,fixation,2,272,,,NoAct
1625342200.47,stimulus,1,755,,,CoffeeSession
1625342200.53,stimulus,3,64,,,NoAct
1625342200.97,fixation,1,755,,,CoffeeSession
1625342201.03,fixation,3,64,,,NoAct
1625342201.84,stimulus,2,273,,,NoAct
1625342202.34,fixation,2,273,,,NoAct
1625342202.47,stimulus,1,756,,,CoffeeSession
1625342202.53,stimulus,3,65,,,NoAct
1625342202.97,fixation,1,756,,,CoffeeSession
1625342203.03,fixation,3,65,,,NoAct
1625342203.84,stimulus,2,274,,,NoAct
1625342204.34,fixation,2,274,,,NoAct
1625342204.47,stimulus,1,757,,,CoffeeSession
1625342204.53,stimulus,3,66,,,NoAct
1625342204.97,fixation,1,757,,,CoffeeSession
1625342205.03,fixation,3,66,,,NoAct
1625342205.84,stimulus,2,275,,,NoAct
1625342206.34,fixation,2,275,,,NoAct
1625342206.47,stimulus,1,758,,,CoffeeSession
1625342206.53,stimulus,3,67,,,NoAct
1625342206.97,fixation,1,758,,,CoffeeSession
1625342207.03,fixation,3,67,,,NoAct
1625342207.84,stimulus,2,276,,,NoAct
1625342208.34,fixation,2,276,,,NoAct
1625342208.47,stimulus,1,759,,,CoffeeSession
1625342208.53,stimulus,3,68,,,NoAct
1625342208.97,fixation,1,759,,,CoffeeSession
1625342209.03,fixation,3,68,,,NoAct
1625342209.84,stimulus,2,277,,,NoAct
1625342210.34,fixation,2,277,,,NoAct
1625342210.47,stimulus,1,760,,,CoffeeSession
1625342210.53,stimulus,3,69,,,NoAct
1625342210.97,fixation,1,760,,,CoffeeSession
1625342211.03,fixation,3,69,,,NoAct
1625342211.84,stimulus,2,278,,,NoAct
1625342212.34,fixation,2,278,,,NoAct
1625342212.47,stimulus,1,761,,,CoffeeSession
1625342212.53,stimulus,3,70,,,NoAct
1625342212.97,fixation,1,761,,,CoffeeSession
1625342213.03,fixation,3,70,,,NoAct
1625342213.84,stimulus,2,279,,,NoAct
1625342214.34,fixation,2,279,,,NoAct
1625342214.47,stimulus,1,762,,,CoffeeSession
1625342214.53,stimulus,3,71,,,NoAct
1625342214.97,fixation,1,762,,,CoffeeSession
1625342215.03,fixation,3,71,,,NoAct
1625342215.84,stimulus,2,280,,,NoAct
1625342216.34,fixation,2,280,,,NoAct
1625342216.47,stimulus,1,763,,,CoffeeSession
1625342216.53,stimulus,3,72,,,NoAct
1625342216.97,fixation,1,763,,,CoffeeSession
1625342217.03,fixation,3,72,,,NoAct
1625342217.84,stimulus,2,281,,,NoAct
1625342218.34,fixation,2,281,,,NoAct
1625342218.47,stimulus,1,764,,,CoffeeSession
1625342218.53,stimulus,3,73,,,NoAct
1625342218.97,fixation,1,764,,,CoffeeSession
1625342219.03,fixation,3,73,,,NoAct
1625342219.84,stimulus,2,282,,,NoAct
1625342220.34,fixation,2,282,,,NoAct
1625342220.47,stimulus,1,765,,,CoffeeSession
1625342220.53,stimulus,3,74,,,NoAct
1625342220.97,fixation,1,765,,,CoffeeSession
1625342221.03,fixation,3,74,,,NoAct
1625342221.84,stimulus,2,283,,,NoAct
1625342222.34,fixation,2,283,,,NoAct
1625342222.47,stimulus,1,766,,,CoffeeSession
1625342222.53,stimulus,3,75,,,NoAct
1625342222.97,fixation,1,766,,,CoffeeSession
1625342223.03,fixation,3,75,,,NoAct
1625342223.84,stimulus,2,284,,,NoAct
1625342224.34,fixation,2,284,,,NoAct
1625342224.47,stimulus,1,767,,,CoffeeSession
1625342224.53,stimulus,3,76,,,NoAct
1625342224.97,fixation,1,767,,,CoffeeSession
1625342225.03,fixation,3,76,,,NoAct
1625342225.84,stimulus,2,285,,,NoAct
1625342226.34,fixation,2,285,,,NoAct
1625342226.47,stimulus,1,768,,,CoffeeSession
1625342226.53,stimulus,3,77,,,NoAct
1625342226.97,fixation,1,768,,,CoffeeSession
1625342227.03,fixation,3,77,,,NoAct
1625342227.84,stimulus,2,286,,,NoAct
1625342228.34,fixation,2,286,,,NoAct
1625342228.47,stimulus,1,769,,,CoffeeSession
1625342228.53,stimulus,3,78,,,NoAct
1625342228.97,fixation,1,769,,,CoffeeSession
1625342229.03,fixation,3,78,,,NoAct
1625342229.84,stimulus,2,287,,,NoAct
1625342230.34,fixation,2,287,,,NoAct
1625342230.47,stimulus,1,770,,,CoffeeSession
1625342230.53,stimulus,3,79,,,NoAct
1625342230.97,fixation,1,770,,,CoffeeSession
1625342231.03,fixation,3,79,,,NoAct
1625342231.84,stimulus,2,288,,,NoAct
1625342232.34,fixation,2,288,,,NoAct
1625342232.47,stimulus,1,771,,,CoffeeSession
1625342232.53,stimulus,3,80,,,NoAct
1625342232.97,fixation,1,771,,,CoffeeSession
1625342233.03,fixation,3,80,,,NoAct
1625342233.84,stimulus,2,289,,,NoAct
1625342234.34,fixation,2,289,,,NoAct
1625342234.47,stimulus,1,772,,,CoffeeSession
1625342234.53,stimulus,3,81,,,NoAct
1625342234.97,fixation,1,772,,,CoffeeSession
1625342235.03,fixation,3,81,,,NoAct
1625342235.84,stimulus,2,290,,,NoAct
1625342236.34,fixation,2,290,,,NoAct
1625342236.47,stimulus,1,773,,,CoffeeSession
1625342236.53,stimulus,3,82,,,NoAct
1625342236.97,fixation,1,773,,,CoffeeSession
1625342237.03,fixation,3,82,,,NoAct
1625342237.84,stimulus,2,291,,,NoAct
1625342238.34,fixation,2,291,,,NoAct
1625342238.47,stimulus,1,774,,,CoffeeSession
1625342238.53,stimulus,3,83,,,NoAct
1625342238.97,fixation,1,774,,,CoffeeSession
1625342239.03,fixation,3,83,,,NoAct
1625342239.84,stimulus,2,292,,,NoAct
1625342240.34,fixation,2,292,,,NoAct
1625342240.47,stimulus,1,775,,,CoffeeSession
1625342240.53,stimulus,3,84,,,NoAct
1625342240.97,fixation,1,775,,,CoffeeSession
1625342241.03,fixation,3,84,,,NoAct
1625342241.84,stimulus,2,293,,,NoAct
1625342242.34,fixation,2,293,,,NoAct
1625342242.47,stimulus,1,776,,,CoffeeSession
1625342242.53,stimulus,3,85,,,NoAct
1625342242.97,fixation,1,776,,,CoffeeSession
1625342243.03,fixation,3,85,,,NoAct
1625342243.84,stimulus,2,294,,,NoAct
1625342244.34,fixation,2,294,,,NoAct
1625342244.47,stimulus,1,777,,,CoffeeSession
1625342244.53,stimulus,3,86,,,NoAct
1625342244.97,fixation,1,777,,,CoffeeSession
1625342245.03,fixation,3,86,,,NoAct
1625342245.84,stimulus,2,295,,,NoAct
1625342246.34,fixation,2,295,,,NoAct
1625342246.47,stimulus,1,778,,,CoffeeSession
1625342246.53,stimulus,3,87,,,NoAct
1625342246.97,fixation,1,778,,,CoffeeSession
1625342247.03,fixation,3,87,,,NoAct
1625342247.84,stimulus,2,296,,,NoAct
1625342248.34,fixation,2,296,,,NoAct
1625342248.47,stimulus,1,779,,,CoffeeSession
1625342248.53,stimulus,3,88,,,NoAct
1625342248.97,fixation,1,779,,,CoffeeSession
1625342249.03,fixation,3,88,,,NoAct
1625342249.84,stimulus,2,297,,,NoAct
1625342250.34,fixation,2,297,,,NoAct
1625342250.47,stimulus,1,780,,,CoffeeSession
1625342250.53,stimulus,3,89,,,NoAct
1625342250.97,fixation,1,780,,,CoffeeSession
1625342251.03,fixation,3,89,,,NoAct
1625342251.84,stimulus,2,298,,,NoAct
1625342252.34,fixation,2,298,,,NoAct
1625342252.47,stimulus,1,781,,,CoffeeSession
1625342252.53,stimulus,3,90,,,NoAct
1625342252.97,fixation,1,781,,,CoffeeSession
1625342253.03,fixation,3,90,,,NoAct
1625342253.84,stimulus,2,299,,,NoAct
1625342254.34,fixation,2,299,,,NoAct
1625342254.47,stimulus,1,782,,,CoffeeSession
1625342254.53,stimulus,3,91,,,NoAct
1625342254.97,fixation,1,782,,,CoffeeSession
