event_time_s,trial_type,session_idx,trial_idx,RT_s,ACC,session_type
1624321794.48,stimulus,1,1,,,PracticeSession
1624321794.98,fixation,1,1,,,PracticeSession
1624321796.48,stimulus,1,2,,,PracticeSession
1624321796.98,fixation,1,2,,,PracticeSession
1624321798.48,stimulus,1,3,,,PracticeSession
1624321798.98,fixation,1,3,,,PracticeSession
1624321800.48,stimulus,1,4,,,PracticeSession
1624321800.98,fixation,1,4,,,PracticeSession
1624321802.48,stimulus,1,5,,,PracticeSession
1624321802.98,fixation,1,5,,,PracticeSession
1624321804.48,stimulus,1,6,,,PracticeSession
1624321804.98,fixation,1,6,,,PracticeSession
1624321806.48,stimulus,1,7,,,PracticeSession
1624321806.98,fixation,1,7,,,PracticeSession
1624321808.48,stimulus,1,8,,,PracticeSession
1624321808.98,fixation,1,8,,,PracticeSession
1624321810.48,stimulus,1,9,,,PracticeSession
1624321810.98,fixation,1,9,,,PracticeSession
1624321812.48,stimulus,1,10,,,PracticeSession
1624321812.98,fixation,1,10,,,PracticeSession
1624321814.48,stimulus,1,11,,,PracticeSession
1624321814.98,fixation,1,11,,,PracticeSession
1624321816.48,stimulus,1,12,,,PracticeSession
1624321816.98,fixation,1,12,,,PracticeSession
1624321818.48,stimulus,1,13,,,PracticeSession
1624321818.98,fixation,1,13,,,PracticeSession
1624321820.48,stimulus,1,14,,,PracticeSession
1624321820.98,fixation,1,14,,,PracticeSession
1624321822.48,stimulus,1,15,,,PracticeSession
1624321822.98,fixation,1,15,,,PracticeSession
1624321824.48,stimulus,1,16,,,PracticeSession
1624321824.98,fixation,1,16,,,PracticeSession
1624321826.48,stimulus,1,17,,,PracticeSession
1624321826.98,fixation,1,17,,,PracticeSession
1624321828.48,stimulus,1,18,,,PracticeSession
1624321828.98,fixation,1,18,,,PracticeSession
1624321830.48,stimulus,1,19,,,PracticeSession
1624321830.98,fixation,1,19,,,PracticeSession
1624321832.48,stimulus,1,20,,,PracticeSession
1624321832.98,fixation,1,20,,,PracticeSession
1624321834.48,stimulus,1,21,,,PracticeSession
1624321834.98,fixation,1,21,,,PracticeSession
1624321836.48,stimulus,1,22,,,PracticeSession
1624321836.98,fixation,1,22,,,PracticeSession
1624321838.48,stimulus,1,23,,,PracticeSession
1624321838.98,fixation,1,23,,,PracticeSession
1624321840.48,stimulus,1,24,,,PracticeSession
1624321840.98,fixation,1,24,,,PracticeSession
1624321842.48,stimulus,1,25,,,PracticeSession
1624321842.98,fixation,1,25,,,PracticeSession
1624321844.48,stimulus,1,26,,,PracticeSession
1624321844.98,fixation,1,26,,,PracticeSession
1624321846.48,stimulus,1,27,,,PracticeSession
1624321846.98,fixation,1,27,,,PracticeSession
1624321848.48,stimulus,1,28,,,PracticeSession
1624321848.98,fixation,1,28,,,PracticeSession
1624321850.48,stimulus,1,29,,,PracticeSession
1624321850.98,fixation,1,29,,,PracticeSession
1624321852.48,stimulus,1,30,,,PracticeSession
1624321852.98,fixation,1,30,,,PracticeSession
1624321854.48,stimulus,1,31,,,PracticeSession
1624321854.98,fixation,1,31,,,PracticeSession
1624321856.48,stimulus,1,32,,,PracticeSession
1624321856.98,fixation,1,32,,,PracticeSession
1624321858.48,stimulus,1,33,,,PracticeSession
1624321858.98,fixation,1,33,,,PracticeSession
1624321860.48,stimulus,1,34,,,PracticeSession
1624321860.98,fixation,1,34,,,PracticeSession
1624321862.48,stimulus,1,35,,,PracticeSession
1624321862.98,fixation,1,35,,,PracticeSession
1624321864.48,stimulus,1,36,,,PracticeSession
1624321864.98,fixation,1,36,,,PracticeSession
1624321866.48,stimulus,1,37,,,PracticeSession
1624321866.98,fixation,1,37,,,PracticeSession
1624321868.48,stimulus,1,38,,,PracticeSession
1624321868.98,fixation,1,38,,,PracticeSession
1624321870.48,stimulus,1,39,,,PracticeSession
1624321870.98,fixation,1,39,,,PracticeSession
1624321872.48,stimulus,1,40,,,PracticeSession
1624321872.98,fixation,1,40,,,PracticeSession
1624321874.48,stimulus,1,41,,,PracticeSession
1624321874.98,fixation,1,41,,,PracticeSession
1624321876.48,stimulus,1,42,,,PracticeSession
1624321876.98,fixation,1,42,,,PracticeSession
1624321878.48,stimulus,1,43,,,PracticeSession
1624321878.98,fixation,1,43,,,PracticeSession
1624321880.48,stimulus,1,44,,,PracticeSession
1624321880.98,fixation,1,44,,,PracticeSession
1624321882.48,stimulus,1,45,,0.0,NoMusic
1624321883.55,fixation,1,45,0.57,1.0,NoMusic
1624321884.48,stimulus,1,46,,0.0,NoMusic
1624321885.304,fixation,1,46,0.324,1.0,NoMusic
1624321886.48,stimulus,1,47,,0.0,NoMusic
1624321887.162,fixation,1,47,0.182,1.0,NoMusic
1624321888.48,stimulus,1,48,,0.0,NoMusic
1624321889.185,fixation,1,48,0.205,1.0,NoMusic
1624321890.48,stimulus,1,49,,0.0,NoMusic
1624321891.113,fixation,1,49,0.133,1.0,NoMusic
1624321892.48,stimulus,1,50,,0.0,NoMusic
1624321893.102,fixation,1,50,0.122,1.0,NoMusic
1624321894.48,stimulus,1,51,,0.0,NoMusic
1624321895.154,fixation,1,51,0.174,0.0,NoMusic
1624321896.48,stimulus,1,52,,0.0,NoMusic
1624321897.207,fixation,1,52,0.227,1.0,NoMusic
1624321898.48,stimulus,1,53,,0.0,NoMusic
1624321899.123,fixation,1,53,0.143,1.0,NoMusic
1624321900.48,stimulus,1,54,,0.0,NoMusic
1624321901.1560001,fixation,1,54,0.176,1.0,NoMusic
1624321902.48,stimulus,1,55,,0.0,NoMusic
1624321903.104,fixation,1,55,0.124,1.0,NoMusic
1624321904.48,stimulus,1,56,,0.0,NoMusic
1624321905.226,fixation,1,56,0.246,1.0,NoMusic
1624321906.48,stimulus,1,57,,0.0,NoMusic
1624321907.265,fixation,1,57,0.285,1.0,NoMusic
1624321908.48,stimulus,1,58,,0.0,NoMusic
1624321909.22,fixation,1,58,0.24,1.0,NoMusic
1624321910.48,stimulus,1,59,,0.0,NoMusic
1624321911.451,fixation,1,59,0.471,1.0,NoMusic
1624321912.48,stimulus,1,60,,0.0,NoMusic
1624321913.155,fixation,1,60,0.175,1.0,NoMusic
1624321914.48,stimulus,1,61,,0.0,NoMusic
1624321915.33,fixation,1,61,0.35,1.0,NoMusic
1624321916.48,stimulus,1,62,,0.0,NoMusic
1624321917.29,fixation,1,62,0.31,1.0,NoMusic
1624321918.48,stimulus,1,63,,0.0,NoMusic
1624321919.453,fixation,1,63,0.473,1.0,NoMusic
1624321920.48,stimulus,1,64,,0.0,NoMusic
1624321921.221,fixation,1,64,0.241,1.0,NoMusic
1624321922.48,stimulus,1,65,,0.0,NoMusic
1624321923.278,fixation,1,65,0.298,1.0,NoMusic
1624321924.48,stimulus,1,66,,0.0,NoMusic
1624321925.139,fixation,1,66,0.159,1.0,NoMusic
1624321926.48,stimulus,1,67,,0.0,NoMusic
1624321927.729,fixation,1,67,0.749,1.0,NoMusic
1624321928.48,stimulus,1,68,,0.0,NoMusic
1624321929.239,fixation,1,68,0.259,1.0,NoMusic
1624321930.48,stimulus,1,69,,0.0,NoMusic
1624321931.205,fixation,1,69,0.225,1.0,NoMusic
1624321932.48,stimulus,1,70,,0.0,NoMusic
1624321933.223,fixation,1,70,0.243,1.0,NoMusic
1624321934.48,stimulus,1,71,,0.0,NoMusic
1624321936.0310001,fixation,1,71,1.051,1.0,NoMusic
1624321936.48,stimulus,1,72,,0.0,NoMusic
1624321938.447,fixation,1,72,1.467,1.0,NoMusic
1624321938.48,stimulus,1,73,,0.0,NoMusic
1624321939.474,fixation,1,73,0.494,1.0,NoMusic
1624321940.48,stimulus,1,74,,0.0,NoMusic
1624321941.2450001,fixation,1,74,0.265,0.0,NoMusic
1624321942.48,stimulus,1,75,,0.0,NoMusic
1624321943.285,fixation,1,75,0.305,1.0,NoMusic
1624321944.48,stimulus,1,76,,0.0,NoMusic
1624321944.98,fixation,1,76,,0.0,NoMusic
1624321946.48,stimulus,1,77,,0.0,NoMusic
1624321947.65,fixation,1,77,0.67,0.0,NoMusic
1624321948.48,stimulus,1,78,,0.0,NoMusic
1624321949.713,fixation,1,78,0.733,1.0,NoMusic
1624321950.48,stimulus,1,79,,0.0,NoMusic
1624321951.638,fixation,1,79,0.658,1.0,NoMusic
1624321952.48,stimulus,1,80,,0.0,NoMusic
1624321953.3470001,fixation,1,80,0.367,1.0,NoMusic
1624321954.48,stimulus,1,81,,0.0,NoMusic
1624321955.25,fixation,1,81,0.27,1.0,NoMusic
1624321956.48,stimulus,1,82,,0.0,NoMusic
1624321957.499,fixation,1,82,0.519,1.0,NoMusic
1624321958.48,stimulus,1,83,,0.0,NoMusic
1624321958.98,fixation,1,83,,0.0,NoMusic
1624321960.588,stimulus,1,84,0.108,1.0,NoMusic
1624321960.98,fixation,1,84,,0.0,NoMusic
1624321962.48,stimulus,1,85,,0.0,NoMusic
1624321963.135,fixation,1,85,0.155,1.0,NoMusic
1624321964.48,stimulus,1,86,,0.0,NoMusic
1624321965.159,fixation,1,86,0.179,1.0,NoMusic
1624321966.48,stimulus,1,87,,0.0,NoMusic
1624321967.1890001,fixation,1,87,0.209,1.0,NoMusic
1624321968.48,stimulus,1,88,,0.0,NoMusic
1624321969.216,fixation,1,88,0.236,1.0,NoMusic
1624321970.48,stimulus,1,89,,0.0,NoMusic
1624321971.582,fixation,1,89,0.602,1.0,NoMusic
1624321972.48,stimulus,1,90,,0.0,NoMusic
1624321973.096,fixation,1,90,0.116,1.0,NoMusic
1624321974.946,stimulus,1,91,0.466,1.0,NoMusic
1624321974.98,fixation,1,91,,0.0,NoMusic
1624321976.48,stimulus,1,92,,0.0,NoMusic
1624321977.236,fixation,1,92,0.256,1.0,NoMusic
1624321978.48,stimulus,1,93,,0.0,NoMusic
1624321979.315,fixation,1,93,0.335,0.0,NoMusic
1624321980.48,stimulus,1,94,,0.0,NoMusic
1624321980.98,fixation,1,94,,0.0,NoMusic
1624321982.493,stimulus,1,95,0.013,1.0,NoMusic
1624321982.98,fixation,1,95,,0.0,NoMusic
1624321984.48,stimulus,1,96,,0.0,NoMusic
1624321985.1560001,fixation,1,96,0.176,1.0,NoMusic
1624321986.48,stimulus,1,97,,0.0,NoMusic
1624321987.205,fixation,1,97,0.225,1.0,NoMusic
1624321988.48,stimulus,1,98,,0.0,NoMusic
1624321989.665,fixation,1,98,0.685,1.0,NoMusic
1624321990.48,stimulus,1,99,,0.0,NoMusic
1624321992.2220001,fixation,1,99,1.242,1.0,NoMusic
1624321992.48,stimulus,1,100,,0.0,NoMusic
1624321993.552,fixation,1,100,0.572,1.0,NoMusic
1624321994.48,stimulus,1,101,,0.0,NoMusic
1624321995.1990001,fixation,1,101,0.219,0.0,NoMusic
1624321996.48,stimulus,1,102,,0.0,NoMusic
1624321997.204,fixation,1,102,0.224,1.0,NoMusic
1624321998.48,stimulus,1,103,,0.0,NoMusic
1624321999.39,fixation,1,103,0.41,1.0,NoMusic
1624322000.48,stimulus,1,104,,0.0,NoMusic
1624322001.662,fixation,1,104,0.682,1.0,NoMusic
1624322002.48,stimulus,1,105,,0.0,NoMusic
1624322003.516,fixation,1,105,0.536,1.0,NoMusic
1624322004.48,stimulus,1,106,,0.0,NoMusic
1624322005.196,fixation,1,106,0.216,1.0,NoMusic
1624322006.48,stimulus,1,107,,0.0,NoMusic
1624322007.628,fixation,1,107,0.648,1.0,NoMusic
1624322008.48,stimulus,1,108,,0.0,NoMusic
1624322009.312,fixation,1,108,0.332,1.0,NoMusic
1624322010.48,stimulus,1,109,,0.0,NoMusic
1624322011.2350001,fixation,1,109,0.255,1.0,NoMusic
1624322012.48,stimulus,1,110,,0.0,NoMusic
1624322013.145,fixation,1,110,0.165,1.0,NoMusic
1624322014.48,stimulus,1,111,,0.0,NoMusic
1624322015.241,fixation,1,111,0.261,1.0,NoMusic
1624322016.48,stimulus,1,112,,0.0,NoMusic
1624322017.171,fixation,1,112,0.191,1.0,NoMusic
1624322018.48,stimulus,1,113,,0.0,NoMusic
1624322018.988,fixation,1,113,0.008,1.0,NoMusic
1624322020.91,stimulus,1,114,0.43,1.0,NoMusic
1624322020.98,fixation,1,114,,0.0,NoMusic
1624322022.48,stimulus,1,115,,0.0,NoMusic
1624322023.071,fixation,1,115,0.091,1.0,NoMusic
1624322024.48,stimulus,1,116,,0.0,NoMusic
1624322025.136,fixation,1,116,0.156,1.0,NoMusic
1624322026.48,stimulus,1,117,,0.0,NoMusic
1624322027.521,fixation,1,117,0.541,1.0,NoMusic
1624322028.48,stimulus,1,118,,0.0,NoMusic
1624322029.592,fixation,1,118,0.612,1.0,NoMusic
1624322030.9490001,stimulus,1,119,0.469,1.0,NoMusic
1624322030.98,fixation,1,119,,0.0,NoMusic
1624322032.48,stimulus,1,120,,0.0,NoMusic
1624322033.045,fixation,1,120,0.065,1.0,NoMusic
1624322034.48,stimulus,1,121,,0.0,NoMusic
1624322035.2120001,fixation,1,121,0.232,1.0,NoMusic
1624322036.48,stimulus,1,122,,0.0,NoMusic
1624322037.057,fixation,1,122,0.077,1.0,NoMusic
1624322038.48,stimulus,1,123,,0.0,NoMusic
1624322039.239,fixation,1,123,0.259,1.0,NoMusic
1624322040.48,stimulus,1,124,,0.0,NoMusic
1624322040.988,fixation,1,124,0.008,1.0,NoMusic
1624322042.48,stimulus,1,125,,0.0,NoMusic
1624322043.155,fixation,1,125,0.175,1.0,NoMusic
1624322044.48,stimulus,1,126,,0.0,NoMusic
1624322045.266,fixation,1,126,0.286,1.0,NoMusic
1624322046.48,stimulus,1,127,,0.0,NoMusic
1624322047.067,fixation,1,127,0.087,1.0,NoMusic
1624322048.48,stimulus,1,128,,0.0,NoMusic
1624322049.201,fixation,1,128,0.221,1.0,NoMusic
1624322050.48,stimulus,1,129,,0.0,NoMusic
1624322051.218,fixation,1,129,0.238,1.0,NoMusic
1624322052.48,stimulus,1,130,,0.0,NoMusic
1624322053.23,fixation,1,130,0.25,1.0,NoMusic
1624322054.48,stimulus,1,131,,0.0,NoMusic
1624322055.1100001,fixation,1,131,0.13,1.0,NoMusic
1624322056.48,stimulus,1,132,,0.0,NoMusic
1624322057.118,fixation,1,132,0.138,1.0,NoMusic
1624322058.48,stimulus,1,133,,0.0,NoMusic
1624322059.584,fixation,1,133,0.604,1.0,NoMusic
1624322060.48,stimulus,1,134,,0.0,NoMusic
1624322061.09,fixation,1,134,0.11,1.0,NoMusic
1624322062.801,stimulus,1,135,0.321,1.0,NoMusic
1624322062.98,fixation,1,135,,0.0,NoMusic
1624322064.48,stimulus,1,136,,0.0,NoMusic
1624322065.163,fixation,1,136,0.183,1.0,NoMusic
1624322066.48,stimulus,1,137,,0.0,NoMusic
1624322067.979,fixation,1,137,0.999,1.0,NoMusic
1624322068.48,stimulus,1,138,,0.0,NoMusic
1624322068.98,fixation,1,138,,0.0,NoMusic
1624322070.676,stimulus,1,139,0.196,0.0,NoMusic
1624322071.705,fixation,1,139,0.725,1.0,NoMusic
1624322072.48,stimulus,1,140,,0.0,NoMusic
1624322073.43,fixation,1,140,0.45,1.0,NoMusic
1624322074.48,stimulus,1,141,,0.0,NoMusic
1624322075.486,fixation,1,141,0.506,1.0,NoMusic
1624322076.48,stimulus,1,142,,0.0,NoMusic
1624322077.2350001,fixation,1,142,0.255,1.0,NoMusic
1624322078.48,stimulus,1,143,,0.0,NoMusic
1624322079.696,fixation,1,143,0.716,1.0,NoMusic
1624322080.48,stimulus,1,144,,0.0,NoMusic
1624322081.317,fixation,1,144,0.337,1.0,NoMusic
1624322082.48,stimulus,1,145,,0.0,NoMusic
1624322083.24,fixation,1,145,0.26,0.0,NoMusic
1624322084.48,stimulus,1,146,,0.0,NoMusic
1624322085.399,fixation,1,146,0.419,1.0,NoMusic
1624322086.48,stimulus,1,147,,0.0,NoMusic
1624322087.19,fixation,1,147,0.21,0.0,NoMusic
1624322088.48,stimulus,1,148,,0.0,NoMusic
1624322089.756,fixation,1,148,0.776,1.0,NoMusic
1624322090.48,stimulus,1,149,,0.0,NoMusic
1624322091.252,fixation,1,149,0.272,1.0,NoMusic
1624322092.48,stimulus,1,150,,0.0,NoMusic
1624322092.991,fixation,1,150,0.011,1.0,NoMusic
1624322094.8370001,stimulus,1,151,0.357,1.0,NoMusic
1624322094.98,fixation,1,151,,0.0,NoMusic
1624322096.48,stimulus,1,152,,0.0,NoMusic
1624322097.069,fixation,1,152,0.089,1.0,NoMusic
1624322098.48,stimulus,1,153,,0.0,NoMusic
1624322099.22,fixation,1,153,0.24,1.0,NoMusic
1624322100.48,stimulus,1,154,,0.0,NoMusic
1624322101.1890001,fixation,1,154,0.209,1.0,NoMusic
1624322102.48,stimulus,1,155,,0.0,NoMusic
1624322103.496,fixation,1,155,0.516,1.0,NoMusic
1624322104.48,stimulus,1,156,,0.0,NoMusic
1624322105.361,fixation,1,156,0.381,1.0,NoMusic
1624322106.48,stimulus,1,157,,0.0,NoMusic
1624322107.106,fixation,1,157,0.126,1.0,NoMusic
1624322108.48,stimulus,1,158,,0.0,NoMusic
1624322109.227,fixation,1,158,0.247,1.0,NoMusic
1624322110.48,stimulus,1,159,,0.0,NoMusic
1624322111.329,fixation,1,159,0.349,1.0,NoMusic
1624322112.48,stimulus,1,160,,0.0,NoMusic
1624322113.204,fixation,1,160,0.224,1.0,NoMusic
1624322114.48,stimulus,1,161,,0.0,NoMusic
1624322115.182,fixation,1,161,0.202,1.0,NoMusic
1624322116.48,stimulus,1,162,,0.0,NoMusic
1624322117.2580001,fixation,1,162,0.278,1.0,NoMusic
1624322118.48,stimulus,1,163,,0.0,NoMusic
1624322120.194,fixation,1,163,1.214,1.0,NoMusic
1624322120.48,stimulus,1,164,,0.0,NoMusic
1624322121.353,fixation,1,164,0.373,1.0,NoMusic
1624322122.97,stimulus,1,165,0.49,1.0,NoMusic
1624322122.98,fixation,1,165,,0.0,NoMusic
1624322124.48,stimulus,1,166,,0.0,NoMusic
1624322125.253,fixation,1,166,0.273,1.0,NoMusic
1624322126.48,stimulus,1,167,,0.0,NoMusic
1624322127.284,fixation,1,167,0.304,1.0,NoMusic
1624322128.48,stimulus,1,168,,0.0,NoMusic
1624322129.259,fixation,1,168,0.279,1.0,NoMusic
1624322130.48,stimulus,1,169,,0.0,NoMusic
1624322131.181,fixation,1,169,0.201,1.0,NoMusic
1624322132.48,stimulus,1,170,,0.0,NoMusic
1624322133.076,fixation,1,170,0.096,1.0,NoMusic
1624322134.48,stimulus,1,171,,0.0,NoMusic
1624322135.098,fixation,1,171,0.118,1.0,NoMusic
1624322136.48,stimulus,1,172,,0.0,NoMusic
1624322137.179,fixation,1,172,0.199,1.0,NoMusic
1624322138.48,stimulus,1,173,,0.0,NoMusic
1624322139.079,fixation,1,173,0.099,1.0,NoMusic
1624322140.48,stimulus,1,174,,0.0,NoMusic
1624322141.061,fixation,1,174,0.081,1.0,NoMusic
1624322142.48,stimulus,1,175,,0.0,NoMusic
1624322143.528,fixation,1,175,0.548,1.0,NoMusic
1624322144.48,stimulus,1,176,,0.0,NoMusic
1624322145.608,fixation,1,176,0.628,1.0,NoMusic
1624322146.48,stimulus,1,177,,0.0,NoMusic
1624322147.571,fixation,1,177,0.591,1.0,NoMusic
1624322148.48,stimulus,1,178,,0.0,NoMusic
1624322149.46,fixation,1,178,0.48,1.0,NoMusic
1624322150.48,stimulus,1,179,,0.0,NoMusic
1624322152.085,fixation,1,179,1.105,1.0,NoMusic
1624322152.48,stimulus,1,180,,0.0,NoMusic
1624322153.355,fixation,1,180,0.375,1.0,NoMusic
1624322154.48,stimulus,1,181,,0.0,NoMusic
1624322155.174,fixation,1,181,0.194,1.0,NoMusic
1624322156.48,stimulus,1,182,,0.0,NoMusic
1624322157.1560001,fixation,1,182,0.176,1.0,NoMusic
1624322158.48,stimulus,1,183,,0.0,NoMusic
1624322159.198,fixation,1,183,0.218,1.0,NoMusic
1624322160.48,stimulus,1,184,,0.0,NoMusic
1624322161.135,fixation,1,184,0.155,1.0,NoMusic
1624322162.48,stimulus,1,185,,0.0,NoMusic
1624322163.193,fixation,1,185,0.213,1.0,NoMusic
1624322164.48,stimulus,1,186,,0.0,NoMusic
1624322165.21,fixation,1,186,0.23,1.0,NoMusic
1624322166.48,stimulus,1,187,,0.0,NoMusic
1624322167.198,fixation,1,187,0.218,1.0,NoMusic
1624322168.48,stimulus,1,188,,0.0,NoMusic
1624322169.17,fixation,1,188,0.19,1.0,NoMusic
1624322170.48,stimulus,1,189,,0.0,NoMusic
1624322171.321,fixation,1,189,0.341,1.0,NoMusic
1624322172.48,stimulus,1,190,,0.0,NoMusic
1624322173.148,fixation,1,190,0.168,1.0,NoMusic
1624322174.48,stimulus,1,191,,0.0,NoMusic
1624322175.068,fixation,1,191,0.088,1.0,NoMusic
1624322176.48,stimulus,1,192,,0.0,NoMusic
1624322177.14,fixation,1,192,0.16,1.0,NoMusic
1624322178.48,stimulus,1,193,,0.0,NoMusic
1624322179.039,fixation,1,193,0.059,1.0,NoMusic
1624322180.48,stimulus,1,194,,0.0,NoMusic
1624322181.026,fixation,1,194,0.046,1.0,NoMusic
1624322182.48,stimulus,1,195,,0.0,NoMusic
1624322183.123,fixation,1,195,0.143,1.0,NoMusic
1624322184.48,stimulus,1,196,,0.0,NoMusic
1624322185.152,fixation,1,196,0.172,1.0,NoMusic
1624322186.48,stimulus,1,197,,0.0,NoMusic
1624322187.155,fixation,1,197,0.175,1.0,NoMusic
1624322188.48,stimulus,1,198,,0.0,NoMusic
1624322189.269,fixation,1,198,0.289,1.0,NoMusic
1624322190.48,stimulus,1,199,,0.0,NoMusic
1624322191.616,fixation,1,199,0.636,1.0,NoMusic
1624322192.48,stimulus,1,200,,0.0,NoMusic
1624322193.466,fixation,1,200,0.486,1.0,NoMusic
1624322194.48,stimulus,1,201,,0.0,NoMusic
1624322195.121,fixation,1,201,0.141,1.0,NoMusic
1624322196.48,stimulus,1,202,,0.0,NoMusic
1624322197.05,fixation,1,202,0.07,1.0,NoMusic
1624322198.48,stimulus,1,203,,0.0,NoMusic
1624322199.104,fixation,1,203,0.124,1.0,NoMusic
1624322200.48,stimulus,1,204,,0.0,NoMusic
1624322201.238,fixation,1,204,0.258,1.0,NoMusic
1624322202.48,stimulus,1,205,,0.0,NoMusic
1624322203.219,fixation,1,205,0.239,1.0,NoMusic
1624322204.48,stimulus,1,206,,0.0,NoMusic
1624322205.614,fixation,1,206,0.634,1.0,NoMusic
1624322206.48,stimulus,1,207,,0.0,NoMusic
1624322207.067,fixation,1,207,0.087,0.0,NoMusic
1624322208.48,stimulus,1,208,,0.0,NoMusic
1624322209.0180001,fixation,1,208,0.038,1.0,NoMusic
1624322210.48,stimulus,1,209,,0.0,NoMusic
1624322211.206,fixation,1,209,0.226,1.0,NoMusic
1624322212.48,stimulus,1,210,,0.0,NoMusic
1624322213.274,fixation,1,210,0.294,1.0,NoMusic
1624322214.48,stimulus,1,211,,0.0,NoMusic
1624322215.026,fixation,1,211,0.046,1.0,NoMusic
1624322216.48,stimulus,1,212,,0.0,NoMusic
1624322217.2350001,fixation,1,212,0.255,1.0,NoMusic
1624322218.48,stimulus,1,213,,0.0,NoMusic
1624322219.665,fixation,1,213,0.685,1.0,NoMusic
1624322220.48,stimulus,1,214,,0.0,NoMusic
1624322221.422,fixation,1,214,0.442,1.0,NoMusic
1624322222.48,stimulus,1,215,,0.0,NoMusic
1624322223.204,fixation,1,215,0.224,1.0,NoMusic
1624322224.48,stimulus,1,216,,0.0,NoMusic
1624322225.177,fixation,1,216,0.197,1.0,NoMusic
1624322226.48,stimulus,1,217,,0.0,NoMusic
1624322227.273,fixation,1,217,0.293,0.0,NoMusic
1624322228.48,stimulus,1,218,,0.0,NoMusic
1624322229.295,fixation,1,218,0.315,1.0,NoMusic
1624322230.48,stimulus,1,219,,0.0,NoMusic
1624322231.205,fixation,1,219,0.225,1.0,NoMusic
1624322232.48,stimulus,1,220,,0.0,NoMusic
1624322233.154,fixation,1,220,0.174,1.0,NoMusic
1624322234.48,stimulus,1,221,,,NoMusic
1624322234.98,fixation,1,221,,,NoMusic
1624322236.48,stimulus,1,222,,0.0,NoMusic
1624322237.482,fixation,1,222,0.502,1.0,NoMusic
1624322238.48,stimulus,1,223,,0.0,NoMusic
1624322238.989,fixation,1,223,0.009,1.0,NoMusic
1624322240.882,stimulus,1,224,0.402,1.0,NoMusic
1624322240.98,fixation,1,224,,0.0,NoMusic
1624322242.48,stimulus,1,225,,0.0,NoMusic
1624322243.34,fixation,1,225,0.36,1.0,NoMusic
1624322244.48,stimulus,1,226,,0.0,NoMusic
1624322245.248,fixation,1,226,0.268,1.0,NoMusic
1624322246.48,stimulus,1,227,,0.0,NoMusic
1624322247.191,fixation,1,227,0.211,1.0,NoMusic
1624322248.48,stimulus,1,228,,0.0,NoMusic
1624322249.148,fixation,1,228,0.168,1.0,NoMusic
1624322250.48,stimulus,1,229,,0.0,NoMusic
1624322251.6660001,fixation,1,229,0.686,1.0,NoMusic
1624322252.48,stimulus,1,230,,0.0,NoMusic
1624322253.662,fixation,1,230,0.682,0.0,NoMusic
1624322254.48,stimulus,1,231,,0.0,NoMusic
1624322255.488,fixation,1,231,0.508,1.0,NoMusic
1624322256.48,stimulus,1,232,,0.0,NoMusic
1624322257.131,fixation,1,232,0.151,1.0,NoMusic
1624322258.48,stimulus,1,233,,0.0,NoMusic
1624322259.145,fixation,1,233,0.165,0.0,NoMusic
1624322260.48,stimulus,1,234,,0.0,NoMusic
1624322261.204,fixation,1,234,0.224,1.0,NoMusic
1624322262.48,stimulus,1,235,,0.0,NoMusic
1624322263.116,fixation,1,235,0.136,0.0,NoMusic
1624322264.48,stimulus,1,236,,0.0,NoMusic
1624322265.894,fixation,1,236,0.914,1.0,NoMusic
1624322266.48,stimulus,1,237,,0.0,NoMusic
1624322267.471,fixation,1,237,0.491,1.0,NoMusic
1624322268.48,stimulus,1,238,,0.0,NoMusic
1624322269.297,fixation,1,238,0.317,0.0,NoMusic
1624322270.48,stimulus,1,239,,0.0,NoMusic
1624322271.265,fixation,1,239,0.285,1.0,NoMusic
1624322272.48,stimulus,1,240,,0.0,NoMusic
1624322273.205,fixation,1,240,0.225,0.0,NoMusic
1624322274.48,stimulus,1,241,,0.0,NoMusic
1624322275.622,fixation,1,241,0.642,0.0,NoMusic
1624322276.48,stimulus,1,242,,0.0,NoMusic
1624322277.311,fixation,1,242,0.331,1.0,NoMusic
1624322278.48,stimulus,1,243,,0.0,NoMusic
1624322279.223,fixation,1,243,0.243,1.0,NoMusic
1624322280.48,stimulus,1,244,,0.0,NoMusic
1624322281.542,fixation,1,244,0.562,1.0,NoMusic
1624322282.48,stimulus,1,245,,0.0,NoMusic
1624322283.1890001,fixation,1,245,0.209,1.0,NoMusic
1624322284.48,stimulus,1,246,,0.0,NoMusic
1624322285.497,fixation,1,246,0.517,1.0,NoMusic
1624322286.48,stimulus,1,247,,0.0,NoMusic
1624322287.299,fixation,1,247,0.319,1.0,NoMusic
1624322288.48,stimulus,1,248,,0.0,NoMusic
1624322289.106,fixation,1,248,0.126,1.0,NoMusic
1624322290.48,stimulus,1,249,,0.0,NoMusic
1624322291.029,fixation,1,249,0.049,1.0,NoMusic
1624322292.956,stimulus,1,250,0.476,1.0,NoMusic
1624322292.98,fixation,1,250,,0.0,NoMusic
1624322294.48,stimulus,1,251,,0.0,NoMusic
1624322295.044,fixation,1,251,0.064,0.0,NoMusic
1624322296.48,stimulus,1,252,,0.0,NoMusic
1624322297.004,fixation,1,252,0.024,1.0,NoMusic
1624322298.919,stimulus,1,253,0.439,1.0,NoMusic
1624322298.98,fixation,1,253,,0.0,NoMusic
1624322300.973,stimulus,1,254,0.493,1.0,NoMusic
1624322300.98,fixation,1,254,,0.0,NoMusic
1624322302.48,stimulus,1,255,,0.0,NoMusic
1624322303.129,fixation,1,255,0.149,1.0,NoMusic
1624322304.48,stimulus,1,256,,0.0,NoMusic
1624322305.294,fixation,1,256,0.314,1.0,NoMusic
1624322306.48,stimulus,1,257,,0.0,NoMusic
1624322307.173,fixation,1,257,0.193,1.0,NoMusic
1624322308.48,stimulus,1,258,,0.0,NoMusic
1624322309.204,fixation,1,258,0.224,1.0,NoMusic
1624322310.48,stimulus,1,259,,0.0,NoMusic
1624322311.349,fixation,1,259,0.369,1.0,NoMusic
1624322312.48,stimulus,1,260,,0.0,NoMusic
1624322313.178,fixation,1,260,0.198,1.0,NoMusic
1624322314.48,stimulus,1,261,,0.0,NoMusic
1624322315.05,fixation,1,261,0.07,1.0,NoMusic
1624322316.48,stimulus,1,262,,0.0,NoMusic
1624322317.172,fixation,1,262,0.192,1.0,NoMusic
1624322318.48,stimulus,1,263,,0.0,NoMusic
1624322319.092,fixation,1,263,0.112,1.0,NoMusic
1624322320.48,stimulus,1,264,,0.0,NoMusic
1624322320.992,fixation,1,264,0.012,1.0,NoMusic
1624322322.48,stimulus,1,265,,0.0,NoMusic
1624322323.105,fixation,1,265,0.125,1.0,NoMusic
1624322324.48,stimulus,1,266,,0.0,NoMusic
1624322325.5640001,fixation,1,266,0.584,1.0,NoMusic
1624322326.48,stimulus,1,267,,0.0,NoMusic
1624322327.353,fixation,1,267,0.373,1.0,NoMusic
1624322328.48,stimulus,1,268,,0.0,NoMusic
1624322329.778,fixation,1,268,0.798,1.0,NoMusic
1624322330.48,stimulus,1,269,,0.0,NoMusic
1624322331.325,fixation,1,269,0.345,1.0,NoMusic
1624322332.48,stimulus,1,270,,0.0,NoMusic
1624322333.493,fixation,1,270,0.513,1.0,NoMusic
1624322334.48,stimulus,1,271,,0.0,NoMusic
1624322335.555,fixation,1,271,0.575,1.0,NoMusic
1624322336.48,stimulus,1,272,,0.0,NoMusic
1624322337.317,fixation,1,272,0.337,1.0,NoMusic
1624322338.48,stimulus,1,273,,0.0,NoMusic
1624322338.989,fixation,1,273,0.009,1.0,NoMusic
1624322340.958,stimulus,1,274,0.478,1.0,NoMusic
1624322340.98,fixation,1,274,,0.0,NoMusic
1624322342.48,stimulus,1,275,,0.0,NoMusic
1624322343.135,fixation,1,275,0.155,1.0,NoMusic
1624322344.48,stimulus,1,276,,0.0,NoMusic
1624322345.036,fixation,1,276,0.056,1.0,NoMusic
1624322346.48,stimulus,1,277,,0.0,NoMusic
1624322346.98,fixation,1,277,,0.0,NoMusic
1624322348.48,stimulus,1,278,,0.0,NoMusic
1624322349.251,fixation,1,278,0.271,1.0,NoMusic
1624322350.48,stimulus,1,279,,0.0,NoMusic
1624322351.159,fixation,1,279,0.179,1.0,NoMusic
1624322352.48,stimulus,1,280,,0.0,NoMusic
1624322353.208,fixation,1,280,0.228,1.0,NoMusic
1624322354.48,stimulus,1,281,,0.0,NoMusic
1624322355.426,fixation,1,281,0.446,1.0,NoMusic
1624322356.48,stimulus,1,282,,0.0,NoMusic
1624322357.072,fixation,1,282,0.092,1.0,NoMusic
1624322358.48,stimulus,1,283,,0.0,NoMusic
1624322359.105,fixation,1,283,0.125,1.0,NoMusic
1624322360.48,stimulus,1,284,,0.0,NoMusic
1624322361.04,fixation,1,284,0.06,1.0,NoMusic
1624322362.48,stimulus,1,285,,0.0,NoMusic
1624322363.13,fixation,1,285,0.15,1.0,NoMusic
1624322364.48,stimulus,1,286,,0.0,NoMusic
1624322365.186,fixation,1,286,0.206,1.0,NoMusic
1624322366.48,stimulus,1,287,,0.0,NoMusic
1624322367.171,fixation,1,287,0.191,1.0,NoMusic
1624322368.48,stimulus,1,288,,0.0,NoMusic
1624322369.81,fixation,1,288,0.83,1.0,NoMusic
1624322370.89,stimulus,1,289,0.41,1.0,NoMusic
1624322370.98,fixation,1,289,,0.0,NoMusic
1624322372.782,stimulus,1,290,0.302,1.0,NoMusic
1624322372.98,fixation,1,290,,0.0,NoMusic
1624322374.48,stimulus,1,291,,0.0,NoMusic
1624322375.39,fixation,1,291,0.41,1.0,NoMusic
1624322376.48,stimulus,1,292,,0.0,NoMusic
1624322377.723,fixation,1,292,0.743,1.0,NoMusic
1624322378.48,stimulus,1,293,,0.0,NoMusic
1624322379.925,fixation,1,293,0.945,1.0,NoMusic
1624322380.48,stimulus,1,294,,0.0,NoMusic
1624322381.327,fixation,1,294,0.347,0.0,NoMusic
1624322382.48,stimulus,1,295,,0.0,NoMusic
1624322383.26,fixation,1,295,0.28,1.0,NoMusic
1624322384.48,stimulus,1,296,,0.0,NoMusic
1624322385.217,fixation,1,296,0.237,1.0,NoMusic
1624322386.48,stimulus,1,297,,0.0,NoMusic
1624322387.168,fixation,1,297,0.188,1.0,NoMusic
1624322388.48,stimulus,1,298,,0.0,NoMusic
1624322389.307,fixation,1,298,0.327,1.0,NoMusic
1624322390.48,stimulus,1,299,,0.0,NoMusic
1624322391.056,fixation,1,299,0.076,1.0,NoMusic
1624322392.48,stimulus,1,300,,0.0,NoMusic
1624322393.102,fixation,1,300,0.122,1.0,NoMusic
1624322394.48,stimulus,1,301,,0.0,NoMusic
1624322395.129,fixation,1,301,0.149,1.0,NoMusic
1624322396.48,stimulus,1,302,,0.0,NoMusic
1624322397.225,fixation,1,302,0.245,1.0,NoMusic
1624322398.48,stimulus,1,303,,0.0,NoMusic
1624322399.283,fixation,1,303,0.303,1.0,NoMusic
1624322400.48,stimulus,1,304,,0.0,NoMusic
1624322401.793,fixation,1,304,0.813,1.0,NoMusic
1624322402.48,stimulus,1,305,,0.0,NoMusic
1624322403.496,fixation,1,305,0.516,0.0,NoMusic
1624322404.48,stimulus,1,306,,0.0,NoMusic
1624322405.177,fixation,1,306,0.197,0.0,NoMusic
1624322406.48,stimulus,1,307,,0.0,NoMusic
1624322407.223,fixation,1,307,0.243,1.0,NoMusic
1624322408.48,stimulus,1,308,,0.0,NoMusic
1624322409.257,fixation,1,308,0.277,1.0,NoMusic
1624322410.48,stimulus,1,309,,0.0,NoMusic
1624322411.3140001,fixation,1,309,0.334,1.0,NoMusic
1624322412.48,stimulus,1,310,,0.0,NoMusic
1624322413.496,fixation,1,310,0.516,1.0,NoMusic
1624322414.886,stimulus,1,311,0.406,1.0,NoMusic
1624322414.98,fixation,1,311,,0.0,NoMusic
1624322416.896,stimulus,1,312,0.416,1.0,NoMusic
1624322416.98,fixation,1,312,,0.0,NoMusic
1624322418.826,stimulus,1,313,0.346,1.0,NoMusic
1624322418.98,fixation,1,313,,0.0,NoMusic
1624322420.975,stimulus,1,314,0.495,1.0,NoMusic
1624322420.98,fixation,1,314,,0.0,NoMusic
1624322422.48,stimulus,1,315,,0.0,NoMusic
1624322423.141,fixation,1,315,0.161,1.0,NoMusic
1624322424.48,stimulus,1,316,,0.0,NoMusic
1624322425.1990001,fixation,1,316,0.219,1.0,NoMusic
1624322426.48,stimulus,1,317,,0.0,NoMusic
1624322427.381,fixation,1,317,0.401,1.0,NoMusic
1624322428.48,stimulus,1,318,,0.0,NoMusic
1624322429.262,fixation,1,318,0.282,1.0,NoMusic
1624322430.48,stimulus,1,319,,0.0,NoMusic
1624322431.567,fixation,1,319,0.587,0.0,NoMusic
1624322432.48,stimulus,1,320,,0.0,NoMusic
1624322433.278,fixation,1,320,0.298,1.0,NoMusic
1624322434.48,stimulus,1,321,,0.0,NoMusic
1624322435.163,fixation,1,321,0.183,1.0,NoMusic
1624322436.48,stimulus,1,322,,0.0,NoMusic
1624322437.239,fixation,1,322,0.259,1.0,NoMusic
1624322438.48,stimulus,1,323,,0.0,NoMusic
1624322438.996,fixation,1,323,0.016,1.0,NoMusic
1624322440.48,stimulus,1,324,,0.0,NoMusic
1624322441.377,fixation,1,324,0.397,1.0,NoMusic
1624322442.48,stimulus,1,325,,0.0,NoMusic
1624322443.179,fixation,1,325,0.199,1.0,NoMusic
1624322444.48,stimulus,1,326,,0.0,NoMusic
1624322445.19,fixation,1,326,0.21,1.0,NoMusic
1624322446.48,stimulus,1,327,,0.0,NoMusic
1624322447.423,fixation,1,327,0.443,1.0,NoMusic
1624322448.48,stimulus,1,328,,0.0,NoMusic
1624322449.302,fixation,1,328,0.322,1.0,NoMusic
1624322450.48,stimulus,1,329,,0.0,NoMusic
1624322451.157,fixation,1,329,0.177,1.0,NoMusic
1624322452.48,stimulus,1,330,,0.0,NoMusic
1624322453.164,fixation,1,330,0.184,1.0,NoMusic
1624322454.48,stimulus,1,331,,0.0,NoMusic
1624322455.173,fixation,1,331,0.193,1.0,NoMusic
1624322456.48,stimulus,1,332,,0.0,NoMusic
1624322457.437,fixation,1,332,0.457,1.0,NoMusic
1624322458.48,stimulus,1,333,,0.0,NoMusic
1624322459.196,fixation,1,333,0.216,1.0,NoMusic
1624322460.48,stimulus,1,334,,0.0,NoMusic
1624322461.19,fixation,1,334,0.21,1.0,NoMusic
1624322462.48,stimulus,1,335,,0.0,NoMusic
1624322463.717,fixation,1,335,0.737,1.0,NoMusic
1624322464.48,stimulus,1,336,,0.0,NoMusic
1624322465.333,fixation,1,336,0.353,1.0,NoMusic
1624322466.48,stimulus,1,337,,0.0,NoMusic
1624322467.035,fixation,1,337,0.055,1.0,NoMusic
1624322468.48,stimulus,1,338,,0.0,NoMusic
1624322469.234,fixation,1,338,0.254,1.0,NoMusic
1624322470.48,stimulus,1,339,,0.0,NoMusic
1624322471.243,fixation,1,339,0.263,0.0,NoMusic
1624322472.48,stimulus,1,340,,0.0,NoMusic
1624322473.165,fixation,1,340,0.185,1.0,NoMusic
1624322474.48,stimulus,1,341,,0.0,NoMusic
1624322475.237,fixation,1,341,0.257,1.0,NoMusic
1624322476.48,stimulus,1,342,,0.0,NoMusic
1624322477.061,fixation,1,342,0.081,1.0,NoMusic
1624322478.48,stimulus,1,343,,0.0,NoMusic
1624322479.27,fixation,1,343,0.29,1.0,NoMusic
1624322480.48,stimulus,1,344,,0.0,NoMusic
1624322481.33,fixation,1,344,0.35,1.0,NoMusic
1624322482.48,stimulus,1,345,,0.0,NoMusic
1624322483.685,fixation,1,345,0.705,1.0,NoMusic
1624322484.48,stimulus,1,346,,0.0,NoMusic
1624322485.342,fixation,1,346,0.362,1.0,NoMusic
1624322486.48,stimulus,1,347,,0.0,NoMusic
1624322487.254,fixation,1,347,0.274,1.0,NoMusic
1624322488.48,stimulus,1,348,,0.0,NoMusic
1624322489.866,fixation,1,348,0.886,1.0,NoMusic
1624322490.48,stimulus,1,349,,0.0,NoMusic
1624322491.454,fixation,1,349,0.474,1.0,NoMusic
1624322492.48,stimulus,1,350,,0.0,NoMusic
1624322493.184,fixation,1,350,0.204,1.0,NoMusic
1624322494.48,stimulus,1,351,,0.0,NoMusic
1624322495.131,fixation,1,351,0.151,1.0,NoMusic
1624322496.48,stimulus,1,352,,0.0,NoMusic
1624322497.225,fixation,1,352,0.245,1.0,NoMusic
1624322498.48,stimulus,1,353,,0.0,NoMusic
1624322499.356,fixation,1,353,0.376,1.0,NoMusic
1624322500.48,stimulus,1,354,,0.0,NoMusic
1624322501.946,fixation,1,354,0.966,1.0,NoMusic
1624322502.48,stimulus,1,355,,0.0,NoMusic
1624322503.298,fixation,1,355,0.318,1.0,NoMusic
1624322504.915,stimulus,1,356,0.435,1.0,NoMusic
1624322504.98,fixation,1,356,,0.0,NoMusic
1624322506.48,stimulus,1,357,,0.0,NoMusic
1624322507.1200001,fixation,1,357,0.14,1.0,NoMusic
1624322508.48,stimulus,1,358,,0.0,NoMusic
1624322510.029,fixation,1,358,1.049,1.0,NoMusic
1624322510.48,stimulus,1,359,,0.0,NoMusic
1624322512.054,fixation,1,359,1.074,0.0,NoMusic
1624322512.48,stimulus,1,360,,0.0,NoMusic
1624322513.249,fixation,1,360,0.269,1.0,NoMusic
1624322514.48,stimulus,1,361,,0.0,NoMusic
1624322515.085,fixation,1,361,0.105,1.0,NoMusic
1624322516.48,stimulus,1,362,,0.0,NoMusic
1624322517.567,fixation,1,362,0.587,1.0,NoMusic
1624322518.48,stimulus,1,363,,0.0,NoMusic
1624322519.2910001,fixation,1,363,0.311,1.0,NoMusic
1624322520.48,stimulus,1,364,,0.0,NoMusic
1624322521.4950001,fixation,1,364,0.515,0.0,NoMusic
1624322522.48,stimulus,1,365,,0.0,NoMusic
1624322523.052,fixation,1,365,0.072,1.0,NoMusic
1624322524.48,stimulus,1,366,,0.0,NoMusic
1624322525.091,fixation,1,366,0.111,1.0,NoMusic
1624322526.878,stimulus,1,367,0.398,1.0,NoMusic
1624322526.98,fixation,1,367,,0.0,NoMusic
1624322528.48,stimulus,1,368,,0.0,NoMusic
1624322529.035,fixation,1,368,0.055,1.0,NoMusic
1624322530.48,stimulus,1,369,,0.0,NoMusic
1624322531.08,fixation,1,369,0.1,1.0,NoMusic
1624322532.48,stimulus,1,370,,0.0,NoMusic
1624322533.226,fixation,1,370,0.246,1.0,NoMusic
1624322534.48,stimulus,1,371,,0.0,NoMusic
1624322535.269,fixation,1,371,0.289,1.0,NoMusic
1624322536.961,stimulus,1,372,0.481,1.0,NoMusic
1624322536.98,fixation,1,372,,0.0,NoMusic
1624322538.48,stimulus,1,373,,0.0,NoMusic
1624322539.177,fixation,1,373,0.197,1.0,NoMusic
1624322540.48,stimulus,1,374,,0.0,NoMusic
1624322540.982,fixation,1,374,0.002,1.0,NoMusic
1624322542.48,stimulus,1,375,,0.0,NoMusic
1624322543.026,fixation,1,375,0.046,1.0,NoMusic
1624322544.48,stimulus,1,376,,0.0,NoMusic
1624322545.844,fixation,1,376,0.864,1.0,NoMusic
1624322546.48,stimulus,1,377,,0.0,NoMusic
1624322547.494,fixation,1,377,0.514,1.0,NoMusic
1624322548.48,stimulus,1,378,,0.0,NoMusic
1624322549.183,fixation,1,378,0.203,1.0,NoMusic
1624322550.48,stimulus,1,379,,0.0,NoMusic
1624322551.823,fixation,1,379,0.843,1.0,NoMusic
1624322552.48,stimulus,1,380,,0.0,NoMusic
1624322553.257,fixation,1,380,0.277,1.0,NoMusic
1624322554.48,stimulus,1,381,,0.0,NoMusic
1624322555.06,fixation,1,381,0.08,1.0,NoMusic
1624322556.48,stimulus,1,382,,0.0,NoMusic
1624322557.237,fixation,1,382,0.257,1.0,NoMusic
1624322558.48,stimulus,1,383,,0.0,NoMusic
1624322559.114,fixation,1,383,0.134,1.0,NoMusic
1624322560.48,stimulus,1,384,,0.0,NoMusic
1624322561.04,fixation,1,384,0.06,1.0,NoMusic
1624322562.48,stimulus,1,385,,0.0,NoMusic
1624322563.209,fixation,1,385,0.229,1.0,NoMusic
1624322564.48,stimulus,1,386,,0.0,NoMusic
1624322565.249,fixation,1,386,0.269,1.0,NoMusic
1624322566.48,stimulus,1,387,,0.0,NoMusic
1624322567.18,fixation,1,387,0.2,1.0,NoMusic
1624322568.48,stimulus,1,388,,0.0,NoMusic
1624322569.15,fixation,1,388,0.17,1.0,NoMusic
1624322570.48,stimulus,1,389,,0.0,NoMusic
1624322571.129,fixation,1,389,0.149,1.0,NoMusic
1624322572.48,stimulus,1,390,,0.0,NoMusic
1624322573.213,fixation,1,390,0.233,1.0,NoMusic
1624322574.48,stimulus,1,391,,0.0,NoMusic
1624322575.175,fixation,1,391,0.195,1.0,NoMusic
1624322576.48,stimulus,1,392,,0.0,NoMusic
1624322577.164,fixation,1,392,0.184,1.0,NoMusic
1624322578.914,stimulus,1,393,0.434,1.0,NoMusic
1624322578.98,fixation,1,393,,0.0,NoMusic
1624322580.48,stimulus,1,394,,0.0,NoMusic
1624322581.096,fixation,1,394,0.116,1.0,NoMusic
1624322582.48,stimulus,1,395,,0.0,NoMusic
1624322583.215,fixation,1,395,0.235,1.0,NoMusic
1624322584.48,stimulus,1,396,,0.0,NoMusic
1624322585.503,fixation,1,396,0.523,1.0,NoMusic
1624322586.48,stimulus,1,397,,0.0,NoMusic
1624322587.244,fixation,1,397,0.264,1.0,NoMusic
1624322588.48,stimulus,1,398,,,RelaxSession
1624322588.98,fixation,1,398,,,RelaxSession
1624322590.48,stimulus,1,399,,,RelaxSession
1624322590.98,fixation,1,399,,,RelaxSession
1624322592.48,stimulus,1,400,,,RelaxSession
1624322592.98,fixation,1,400,,,RelaxSession
1624322594.48,stimulus,1,401,,,RelaxSession
1624322594.98,fixation,1,401,,,RelaxSession
1624322596.48,stimulus,1,402,,,RelaxSession
1624322596.98,fixation,1,402,,,RelaxSession
1624322598.48,stimulus,1,403,,,RelaxSession
1624322598.98,fixation,1,403,,,RelaxSession
1624322600.48,stimulus,1,404,,,RelaxSession
1624322600.98,fixation,1,404,,,RelaxSession
1624322602.48,stimulus,1,405,,,RelaxSession
1624322602.98,fixation,1,405,,,RelaxSession
1624322604.48,stimulus,1,406,,,RelaxSession
1624322604.98,fixation,1,406,,,RelaxSession
1624322606.48,stimulus,1,407,,,RelaxSession
1624322606.98,fixation,1,407,,,RelaxSession
1624322608.48,stimulus,1,408,,,RelaxSession
1624322608.98,fixation,1,408,,,RelaxSession
1624322610.48,stimulus,1,409,,,RelaxSession
1624322610.98,fixation,1,409,,,RelaxSession
1624322612.48,stimulus,1,410,,,RelaxSession
1624322612.98,fixation,1,410,,,RelaxSession
1624322614.48,stimulus,1,411,,,RelaxSession
1624322614.98,fixation,1,411,,,RelaxSession
1624322616.48,stimulus,1,412,,,RelaxSession
1624322616.98,fixation,1,412,,,RelaxSession
1624322618.48,stimulus,1,413,,,RelaxSession
1624322618.98,fixation,1,413,,,RelaxSession
1624322620.48,stimulus,1,414,,,RelaxSession
1624322620.98,fixation,1,414,,,RelaxSession
1624322622.48,stimulus,1,415,,,RelaxSession
1624322622.98,fixation,1,415,,,RelaxSession
1624322624.48,stimulus,1,416,,,RelaxSession
1624322624.98,fixation,1,416,,,RelaxSession
1624322626.48,stimulus,1,417,,,RelaxSession
1624322626.98,fixation,1,417,,,RelaxSession
1624322628.48,stimulus,1,418,,,RelaxSession
1624322628.98,fixation,1,418,,,RelaxSession
1624322630.48,stimulus,1,419,,,RelaxSession
1624322630.98,fixation,1,419,,,RelaxSession
1624322632.48,stimulus,1,420,,,RelaxSession
1624322632.98,fixation,1,420,,,RelaxSession
1624322634.48,stimulus,1,421,,,RelaxSession
1624322634.98,fixation,1,421,,,RelaxSession
1624322636.48,stimulus,1,422,,,RelaxSession
1624322636.98,fixation,1,422,,,RelaxSession
1624322638.48,stimulus,1,423,,,RelaxSession
1624322638.98,fixation,1,423,,,RelaxSession
1624322640.48,stimulus,1,424,,,RelaxSession
1624322640.98,fixation,1,424,,,RelaxSession
1624322642.48,stimulus,1,425,,,RelaxSession
1624322642.98,fixation,1,425,,,RelaxSession
1624322644.48,stimulus,1,426,,,RelaxSession
1624322644.98,fixation,1,426,,,RelaxSession
1624322646.48,stimulus,1,427,,,RelaxSession
1624322646.98,fixation,1,427,,,RelaxSession
1624322648.48,stimulus,1,428,,,RelaxSession
1624322648.98,fixation,1,428,,,RelaxSession
1624322650.48,stimulus,1,429,,,RelaxSession
1624322650.98,fixation,1,429,,,RelaxSession
1624322652.48,stimulus,1,430,,,RelaxSession
1624322652.98,fixation,1,430,,,RelaxSession
1624322654.48,stimulus,1,431,,,RelaxSession
1624322654.98,fixation,1,431,,,RelaxSession
1624322656.48,stimulus,1,432,,,RelaxSession
1624322656.98,fixation,1,432,,,RelaxSession
1624322658.48,stimulus,1,433,,,RelaxSession
1624322658.98,fixation,1,433,,,RelaxSession
1624322660.48,stimulus,1,434,,,RelaxSession
1624322660.98,fixation,1,434,,,RelaxSession
1624322662.48,stimulus,1,435,,,RelaxSession
1624322662.98,fixation,1,435,,,RelaxSession
1624322664.48,stimulus,1,436,,,RelaxSession
1624322664.98,fixation,1,436,,,RelaxSession
1624322666.48,stimulus,1,437,,,RelaxSession
1624322666.98,fixation,1,437,,,RelaxSession
1624322668.48,stimulus,1,438,,,RelaxSession
1624322668.98,fixation,1,438,,,RelaxSession
1624322670.48,stimulus,1,439,,,RelaxSession
1624322670.98,fixation,1,439,,,RelaxSession
1624322672.48,stimulus,1,440,,,RelaxSession
1624322672.98,fixation,1,440,,,RelaxSession
1624322674.48,stimulus,1,441,,,RelaxSession
1624322674.98,fixation,1,441,,,RelaxSession
1624322676.48,stimulus,1,442,,,RelaxSession
1624322676.98,fixation,1,442,,,RelaxSession
1624322678.48,stimulus,1,443,,,RelaxSession
1624322678.98,fixation,1,443,,,RelaxSession
1624322680.48,stimulus,1,444,,,RelaxSession
1624322680.98,fixation,1,444,,,RelaxSession
1624322682.48,stimulus,1,445,,,RelaxSession
1624322682.98,fixation,1,445,,,RelaxSession
1624322684.48,stimulus,1,446,,,RelaxSession
1624322684.98,fixation,1,446,,,RelaxSession
1624322686.48,stimulus,1,447,,,RelaxSession
1624322686.98,fixation,1,447,,,RelaxSession
1624322688.48,stimulus,1,448,,,RelaxSession
1624322688.98,fixation,1,448,,,RelaxSession
1624322690.48,stimulus,1,449,,,RelaxSession
1624322690.98,fixation,1,449,,,RelaxSession
1624322692.48,stimulus,1,450,,,RelaxSession
1624322692.98,fixation,1,450,,,RelaxSession
1624322694.48,stimulus,1,451,,,RelaxSession
1624322694.98,fixation,1,451,,,RelaxSession
1624322696.48,stimulus,1,452,,,RelaxSession
1624322696.98,fixation,1,452,,,RelaxSession
1624322698.48,stimulus,1,453,,,RelaxSession
1624322698.98,fixation,1,453,,,RelaxSession
1624322700.48,stimulus,1,454,,,RelaxSession
1624322700.98,fixation,1,454,,,RelaxSession
1624322702.48,stimulus,1,455,,,RelaxSession
1624322702.98,fixation,1,455,,,RelaxSession
1624322704.48,stimulus,1,456,,,RelaxSession
1624322704.98,fixation,1,456,,,RelaxSession
1624322706.48,stimulus,1,457,,,RelaxSession
1624322706.98,fixation,1,457,,,RelaxSession
1624322708.48,stimulus,1,458,,,RelaxSession
1624322708.98,fixation,1,458,,,RelaxSession
1624322710.48,stimulus,1,459,,,RelaxSession
1624322710.98,fixation,1,459,,,RelaxSession
1624322712.48,stimulus,1,460,,,RelaxSession
1624322712.98,fixation,1,460,,,RelaxSession
1624322714.48,stimulus,1,461,,,RelaxSession
1624322714.98,fixation,1,461,,,RelaxSession
1624322716.48,stimulus,1,462,,,RelaxSession
1624322716.98,fixation,1,462,,,RelaxSession
1624322718.48,stimulus,1,463,,,RelaxSession
1624322718.98,fixation,1,463,,,RelaxSession
1624322720.48,stimulus,1,464,,,RelaxSession
1624322720.98,fixation,1,464,,,RelaxSession
1624322722.48,stimulus,1,465,,,RelaxSession
1624322722.98,fixation,1,465,,,RelaxSession
1624322724.48,stimulus,1,466,,,RelaxSession
1624322724.98,fixation,1,466,,,RelaxSession
1624322726.48,stimulus,1,467,,,RelaxSession
1624322726.98,fixation,1,467,,,RelaxSession
1624322728.48,stimulus,1,468,,,RelaxSession
1624322728.98,fixation,1,468,,,RelaxSession
1624322730.48,stimulus,1,469,,,RelaxSession
1624322730.98,fixation,1,469,,,RelaxSession
1624322732.48,stimulus,1,470,,,RelaxSession
1624322732.98,fixation,1,470,,,RelaxSession
1624322734.48,stimulus,1,471,,,RelaxSession
1624322734.98,fixation,1,471,,,RelaxSession
1624322736.48,stimulus,1,472,,,RelaxSession
1624322736.98,fixation,1,472,,,RelaxSession
1624322738.48,stimulus,1,473,,,RelaxSession
1624322738.98,fixation,1,473,,,RelaxSession
1624322740.48,stimulus,1,474,,,RelaxSession
1624322740.98,fixation,1,474,,,RelaxSession
1624322742.48,stimulus,1,475,,,RelaxSession
1624322742.98,fixation,1,475,,,RelaxSession
1624322744.48,stimulus,1,476,,,RelaxSession
1624322744.98,fixation,1,476,,,RelaxSession
1624322746.48,stimulus,1,477,,,RelaxSession
1624322746.98,fixation,1,477,,,RelaxSession
1624322748.48,stimulus,1,478,,,RelaxSession
1624322748.98,fixation,1,478,,,RelaxSession
1624322750.48,stimulus,1,479,,,RelaxSession
1624322750.98,fixation,1,479,,,RelaxSession
1624322752.48,stimulus,1,480,,,RelaxSession
1624322752.98,fixation,1,480,,,RelaxSession
1624322754.48,stimulus,1,481,,,RelaxSession
1624322754.98,fixation,1,481,,,RelaxSession
1624322756.48,stimulus,1,482,,,RelaxSession
1624322756.98,fixation,1,482,,,RelaxSession
1624322758.48,stimulus,1,483,,,RelaxSession
1624322758.98,fixation,1,483,,,RelaxSession
1624322760.48,stimulus,1,484,,,RelaxSession
1624322760.98,fixation,1,484,,,RelaxSession
1624322762.48,stimulus,1,485,,,RelaxSession
1624322762.98,fixation,1,485,,,RelaxSession
1624322764.48,stimulus,1,486,,,RelaxSession
1624322764.98,fixation,1,486,,,RelaxSession
1624322766.48,stimulus,1,487,,,RelaxSession
1624322766.98,fixation,1,487,,,RelaxSession
1624322768.48,stimulus,1,488,,,RelaxSession
1624322768.98,fixation,1,488,,,RelaxSession
1624322770.48,stimulus,1,489,,,RelaxSession
1624322770.98,fixation,1,489,,,RelaxSession
1624322772.33,stimulus,2,1,,,PracticeSession
1624322772.48,stimulus,1,490,,,RelaxSession
1624322772.83,fixation,2,1,,,PracticeSession
1624322772.98,fixation,1,490,,,RelaxSession
1624322774.33,stimulus,2,2,,,PracticeSession
1624322774.48,stimulus,1,491,,,RelaxSession
1624322774.83,fixation,2,2,,,PracticeSession
1624322774.98,fixation,1,491,,,RelaxSession
1624322776.33,stimulus,2,3,,,PracticeSession
1624322776.48,stimulus,1,492,,,RelaxSession
1624322776.83,fixation,2,3,,,PracticeSession
1624322776.98,fixation,1,492,,,RelaxSession
1624322778.33,stimulus,2,4,,,PracticeSession
1624322778.48,stimulus,1,493,,,RelaxSession
1624322778.83,fixation,2,4,,,PracticeSession
1624322778.98,fixation,1,493,,,RelaxSession
1624322780.33,stimulus,2,5,,,PracticeSession
1624322780.48,stimulus,1,494,,,RelaxSession
1624322780.83,fixation,2,5,,,PracticeSession
1624322780.98,fixation,1,494,,,RelaxSession
1624322782.33,stimulus,2,6,,,PracticeSession
1624322782.48,stimulus,1,495,,,RelaxSession
1624322782.83,fixation,2,6,,,PracticeSession
1624322782.98,fixation,1,495,,,RelaxSession
1624322784.33,stimulus,2,7,,,PracticeSession
1624322784.48,stimulus,1,496,,,RelaxSession
1624322784.83,fixation,2,7,,,PracticeSession
1624322784.98,fixation,1,496,,,RelaxSession
1624322786.33,stimulus,2,8,,,PracticeSession
1624322786.48,stimulus,1,497,,,RelaxSession
1624322786.83,fixation,2,8,,,PracticeSession
1624322786.98,fixation,1,497,,,RelaxSession
1624322788.33,stimulus,2,9,,,PracticeSession
1624322788.48,stimulus,1,498,,,RelaxSession
1624322788.83,fixation,2,9,,,PracticeSession
1624322788.98,fixation,1,498,,,RelaxSession
1624322790.33,stimulus,2,10,,,PracticeSession
1624322790.48,stimulus,1,499,,,RelaxSession
1624322790.83,fixation,2,10,,,PracticeSession
1624322790.98,fixation,1,499,,,RelaxSession
1624322792.33,stimulus,2,11,,,PracticeSession
1624322792.48,stimulus,1,500,,,RelaxSession
1624322792.83,fixation,2,11,,,PracticeSession
1624322792.98,fixation,1,500,,,RelaxSession
1624322794.33,stimulus,2,12,,,PracticeSession
1624322794.48,stimulus,1,501,,,RelaxSession
1624322794.83,fixation,2,12,,,PracticeSession
1624322794.98,fixation,1,501,,,RelaxSession
1624322796.33,stimulus,2,13,,,PracticeSession
1624322796.48,stimulus,1,502,,,RelaxSession
1624322796.83,fixation,2,13,,,PracticeSession
1624322796.98,fixation,1,502,,,RelaxSession
1624322798.33,stimulus,2,14,,,PracticeSession
1624322798.48,stimulus,1,503,,,RelaxSession
1624322798.83,fixation,2,14,,,PracticeSession
1624322798.98,fixation,1,503,,,RelaxSession
1624322800.33,stimulus,2,15,,,PracticeSession
1624322800.48,stimulus,1,504,,,RelaxSession
1624322800.83,fixation,2,15,,,PracticeSession
1624322800.98,fixation,1,504,,,RelaxSession
1624322802.33,stimulus,2,16,,,PracticeSession
1624322802.48,stimulus,1,505,,,RelaxSession
1624322802.83,fixation,2,16,,,PracticeSession
1624322802.98,fixation,1,505,,,RelaxSession
1624322804.33,stimulus,2,17,,,PracticeSession
1624322804.48,stimulus,1,506,,,RelaxSession
1624322804.83,fixation,2,17,,,PracticeSession
1624322804.98,fixation,1,506,,,RelaxSession
1624322806.33,stimulus,2,18,,,PracticeSession
1624322806.48,stimulus,1,507,,,RelaxSession
1624322806.83,fixation,2,18,,,PracticeSession
1624322806.98,fixation,1,507,,,RelaxSession
1624322808.33,stimulus,2,19,,,PracticeSession
1624322808.48,stimulus,1,508,,,RelaxSession
1624322808.83,fixation,2,19,,,PracticeSession
1624322808.98,fixation,1,508,,,RelaxSession
1624322810.33,stimulus,2,20,,,PracticeSession
1624322810.48,stimulus,1,509,,,RelaxSession
1624322810.83,fixation,2,20,,,PracticeSession
1624322810.98,fixation,1,509,,,RelaxSession
1624322812.33,stimulus,2,21,,,PracticeSession
1624322812.48,stimulus,1,510,,,RelaxSession
1624322812.83,fixation,2,21,,,PracticeSession
1624322812.98,fixation,1,510,,,RelaxSession
1624322814.33,stimulus,2,22,,,PracticeSession
1624322814.48,stimulus,1,511,,,RelaxSession
1624322814.83,fixation,2,22,,,PracticeSession
1624322814.98,fixation,1,511,,,RelaxSession
1624322816.33,stimulus,2,23,,,PracticeSession
1624322816.48,stimulus,1,512,,,RelaxSession
1624322816.83,fixation,2,23,,,PracticeSession
1624322816.98,fixation,1,512,,,RelaxSession
1624322818.33,stimulus,2,24,,,PracticeSession
1624322818.48,stimulus,1,513,,,RelaxSession
1624322818.83,fixation,2,24,,,PracticeSession
1624322818.98,fixation,1,513,,,RelaxSession
1624322820.33,stimulus,2,25,,,PracticeSession
1624322820.48,stimulus,1,514,,,RelaxSession
1624322820.83,fixation,2,25,,,PracticeSession
1624322820.98,fixation,1,514,,,RelaxSession
1624322822.33,stimulus,2,26,,,PracticeSession
1624322822.48,stimulus,1,515,,,RelaxSession
1624322822.83,fixation,2,26,,,PracticeSession
1624322822.98,fixation,1,515,,,RelaxSession
1624322824.33,stimulus,2,27,,,PracticeSession
1624322824.48,stimulus,1,516,,,RelaxSession
1624322824.83,fixation,2,27,,,PracticeSession
1624322824.98,fixation,1,516,,,RelaxSession
1624322826.33,stimulus,2,28,,,PracticeSession
1624322826.48,stimulus,1,517,,,RelaxSession
1624322826.83,fixation,2,28,,,PracticeSession
1624322826.98,fixation,1,517,,,RelaxSession
1624322828.33,stimulus,2,29,,,PracticeSession
1624322828.48,stimulus,1,518,,,RelaxSession
1624322828.83,fixation,2,29,,,PracticeSession
1624322828.98,fixation,1,518,,,RelaxSession
1624322830.33,stimulus,2,30,,,PracticeSession
1624322830.48,stimulus,1,519,,,RelaxSession
1624322830.83,fixation,2,30,,,PracticeSession
1624322830.98,fixation,1,519,,,RelaxSession
1624322832.33,stimulus,2,31,,,PracticeSession
1624322832.48,stimulus,1,520,,,RelaxSession
1624322832.83,fixation,2,31,,,PracticeSession
1624322832.98,fixation,1,520,,,RelaxSession
1624322834.33,stimulus,2,32,,,PracticeSession
1624322834.48,stimulus,1,521,,,RelaxSession
1624322834.83,fixation,2,32,,,PracticeSession
1624322834.98,fixation,1,521,,,RelaxSession
1624322836.33,stimulus,2,33,,,PracticeSession
1624322836.48,stimulus,1,522,,,RelaxSession
1624322836.83,fixation,2,33,,,PracticeSession
1624322836.98,fixation,1,522,,,RelaxSession
1624322838.33,stimulus,2,34,,,PracticeSession
1624322838.48,stimulus,1,523,,,RelaxSession
1624322838.83,fixation,2,34,,,PracticeSession
1624322838.98,fixation,1,523,,,RelaxSession
1624322840.33,stimulus,2,35,,,PracticeSession
1624322840.48,stimulus,1,524,,,RelaxSession
1624322840.83,fixation,2,35,,,PracticeSession
1624322840.98,fixation,1,524,,,RelaxSession
1624322842.33,stimulus,2,36,,,PracticeSession
1624322842.48,stimulus,1,525,,,RelaxSession
1624322842.83,fixation,2,36,,,PracticeSession
1624322842.98,fixation,1,525,,,RelaxSession
1624322844.33,stimulus,2,37,,,PracticeSession
1624322844.48,stimulus,1,526,,,RelaxSession
1624322844.83,fixation,2,37,,,PracticeSession
1624322844.98,fixation,1,526,,,RelaxSession
1624322846.33,stimulus,2,38,,,PracticeSession
1624322846.48,stimulus,1,527,,,RelaxSession
1624322846.83,fixation,2,38,,,PracticeSession
1624322846.98,fixation,1,527,,,RelaxSession
1624322848.33,stimulus,2,39,,,PracticeSession
1624322848.48,stimulus,1,528,,,RelaxSession
1624322848.83,fixation,2,39,,,PracticeSession
1624322848.98,fixation,1,528,,,RelaxSession
1624322850.33,stimulus,2,40,,,PracticeSession
1624322850.48,stimulus,1,529,,,RelaxSession
1624322850.83,fixation,2,40,,,PracticeSession
1624322850.98,fixation,1,529,,,RelaxSession
1624322852.33,stimulus,2,41,,,PracticeSession
1624322852.48,stimulus,1,530,,,RelaxSession
1624322852.83,fixation,2,41,,,PracticeSession
1624322852.98,fixation,1,530,,,RelaxSession
1624322854.33,stimulus,2,42,,,PracticeSession
1624322854.48,stimulus,1,531,,,RelaxSession
1624322854.83,fixation,2,42,,,PracticeSession
1624322854.98,fixation,1,531,,,RelaxSession
1624322856.33,stimulus,2,43,,,PracticeSession
1624322856.48,stimulus,1,532,,,RelaxSession
1624322856.83,fixation,2,43,,,PracticeSession
1624322856.98,fixation,1,532,,,RelaxSession
1624322858.33,stimulus,2,44,,,PracticeSession
1624322858.48,stimulus,1,533,,,RelaxSession
1624322858.83,fixation,2,44,,,PracticeSession
1624322858.98,fixation,1,533,,,RelaxSession
1624322860.33,stimulus,2,45,,,NoMusic
1624322860.48,stimulus,1,534,,,RelaxSession
1624322860.83,fixation,2,45,,,NoMusic
1624322860.98,fixation,1,534,,,RelaxSession
1624322862.33,stimulus,2,46,,,NoMusic
1624322862.48,stimulus,1,535,,,RelaxSession
1624322862.83,fixation,2,46,,,NoMusic
1624322862.98,fixation,1,535,,,RelaxSession
1624322864.33,stimulus,2,47,,,NoMusic
1624322864.48,stimulus,1,536,,,RelaxSession
1624322864.83,fixation,2,47,,,NoMusic
1624322864.98,fixation,1,536,,,RelaxSession
1624322866.33,stimulus,2,48,,,NoMusic
1624322866.48,stimulus,1,537,,,RelaxSession
1624322866.83,fixation,2,48,,,NoMusic
1624322866.98,fixation,1,537,,,RelaxSession
1624322868.33,stimulus,2,49,,,NoMusic
1624322868.48,stimulus,1,538,,,RelaxSession
1624322868.83,fixation,2,49,,,NoMusic
1624322868.98,fixation,1,538,,,RelaxSession
1624322870.33,stimulus,2,50,,,NoMusic
1624322870.48,stimulus,1,539,,,RelaxSession
1624322870.83,fixation,2,50,,,NoMusic
1624322870.98,fixation,1,539,,,RelaxSession
1624322872.33,stimulus,2,51,,,NoMusic
1624322872.48,stimulus,1,540,,,RelaxSession
1624322872.83,fixation,2,51,,,NoMusic
1624322872.98,fixation,1,540,,,RelaxSession
1624322874.33,stimulus,2,52,,,NoMusic
1624322874.48,stimulus,1,541,,,RelaxSession
1624322874.83,fixation,2,52,,,NoMusic
1624322874.98,fixation,1,541,,,RelaxSession
1624322876.33,stimulus,2,53,,,NoMusic
1624322876.48,stimulus,1,542,,,RelaxSession
1624322876.83,fixation,2,53,,,NoMusic
1624322876.98,fixation,1,542,,,RelaxSession
1624322878.33,stimulus,2,54,,,NoMusic
1624322878.48,stimulus,1,543,,,RelaxSession
1624322878.83,fixation,2,54,,,NoMusic
1624322878.98,fixation,1,543,,,RelaxSession
1624322880.33,stimulus,2,55,,,NoMusic
1624322880.48,stimulus,1,544,,,RelaxSession
1624322880.83,fixation,2,55,,,NoMusic
1624322880.98,fixation,1,544,,,RelaxSession
1624322882.33,stimulus,2,56,,,NoMusic
1624322882.48,stimulus,1,545,,,RelaxSession
1624322882.83,fixation,2,56,,,NoMusic
1624322882.98,fixation,1,545,,,RelaxSession
1624322884.33,stimulus,2,57,,,NoMusic
1624322884.48,stimulus,1,546,,,RelaxSession
1624322884.83,fixation,2,57,,,NoMusic
1624322884.98,fixation,1,546,,,RelaxSession
1624322886.33,stimulus,2,58,,,NoMusic
1624322886.48,stimulus,1,547,,,RelaxSession
1624322886.83,fixation,2,58,,,NoMusic
1624322886.98,fixation,1,547,,,RelaxSession
1624322888.33,stimulus,2,59,,,NoMusic
1624322888.48,stimulus,1,548,,,RelaxSession
1624322888.83,fixation,2,59,,,NoMusic
1624322888.98,fixation,1,548,,,RelaxSession
1624322890.33,stimulus,2,60,,,NoMusic
1624322890.48,stimulus,1,549,,,RelaxSession
1624322890.83,fixation,2,60,,,NoMusic
1624322890.98,fixation,1,549,,,RelaxSession
1624322892.33,stimulus,2,61,,,NoMusic
1624322892.48,stimulus,1,550,,,RelaxSession
1624322892.83,fixation,2,61,,,NoMusic
1624322892.98,fixation,1,550,,,RelaxSession
1624322894.33,stimulus,2,62,,,NoMusic
1624322894.48,stimulus,1,551,,,RelaxSession
1624322894.83,fixation,2,62,,,NoMusic
1624322894.98,fixation,1,551,,,RelaxSession
1624322896.33,stimulus,2,63,,,NoMusic
1624322896.48,stimulus,1,552,,,RelaxSession
1624322896.83,fixation,2,63,,,NoMusic
1624322896.98,fixation,1,552,,,RelaxSession
1624322898.33,stimulus,2,64,,,NoMusic
1624322898.48,stimulus,1,553,,,RelaxSession
1624322898.83,fixation,2,64,,,NoMusic
1624322898.98,fixation,1,553,,,RelaxSession
1624322900.33,stimulus,2,65,,,NoMusic
1624322900.48,stimulus,1,554,,,RelaxSession
1624322900.83,fixation,2,65,,,NoMusic
1624322900.98,fixation,1,554,,,RelaxSession
1624322902.33,stimulus,2,66,,,NoMusic
1624322902.48,stimulus,1,555,,,RelaxSession
1624322902.83,fixation,2,66,,,NoMusic
1624322902.98,fixation,1,555,,,RelaxSession
1624322904.33,stimulus,2,67,,,NoMusic
1624322904.48,stimulus,1,556,,,RelaxSession
1624322904.83,fixation,2,67,,,NoMusic
1624322904.98,fixation,1,556,,,RelaxSession
1624322906.33,stimulus,2,68,,,NoMusic
1624322906.48,stimulus,1,557,,,RelaxSession
1624322906.83,fixation,2,68,,,NoMusic
1624322906.98,fixation,1,557,,,RelaxSession
1624322908.33,stimulus,2,69,,,NoMusic
1624322908.48,stimulus,1,558,,,RelaxSession
1624322908.83,fixation,2,69,,,NoMusic
1624322908.98,fixation,1,558,,,RelaxSession
1624322910.33,stimulus,2,70,,,NoMusic
1624322910.48,stimulus,1,559,,,RelaxSession
1624322910.83,fixation,2,70,,,NoMusic
1624322910.98,fixation,1,559,,,RelaxSession
1624322912.33,stimulus,2,71,,,NoMusic
1624322912.48,stimulus,1,560,,,RelaxSession
1624322912.83,fixation,2,71,,,NoMusic
1624322912.98,fixation,1,560,,,RelaxSession
1624322914.33,stimulus,2,72,,,NoMusic
1624322914.48,stimulus,1,561,,,RelaxSession
1624322914.83,fixation,2,72,,,NoMusic
1624322914.98,fixation,1,561,,,RelaxSession
1624322916.33,stimulus,2,73,,,NoMusic
1624322916.48,stimulus,1,562,,,RelaxSession
1624322916.83,fixation,2,73,,,NoMusic
1624322916.98,fixation,1,562,,,RelaxSession
1624322918.33,stimulus,2,74,,,NoMusic
1624322918.48,stimulus,1,563,,,RelaxSession
1624322918.83,fixation,2,74,,,NoMusic
1624322918.98,fixation,1,563,,,RelaxSession
1624322920.33,stimulus,2,75,,,NoMusic
1624322920.48,stimulus,1,564,,,RelaxSession
1624322920.83,fixation,2,75,,,NoMusic
1624322920.98,fixation,1,564,,,RelaxSession
1624322922.33,stimulus,2,76,,,NoMusic
1624322922.48,stimulus,1,565,,,RelaxSession
1624322922.83,fixation,2,76,,,NoMusic
1624322922.98,fixation,1,565,,,RelaxSession
1624322924.33,stimulus,2,77,,,NoMusic
1624322924.48,stimulus,1,566,,,RelaxSession
1624322924.83,fixation,2,77,,,NoMusic
1624322924.98,fixation,1,566,,,RelaxSession
1624322926.33,stimulus,2,78,,,NoMusic
1624322926.48,stimulus,1,567,,,RelaxSession
1624322926.83,fixation,2,78,,,NoMusic
1624322926.98,fixation,1,567,,,RelaxSession
1624322928.33,stimulus,2,79,,,NoMusic
1624322928.48,stimulus,1,568,,,RelaxSession
1624322928.83,fixation,2,79,,,NoMusic
1624322928.98,fixation,1,568,,,RelaxSession
1624322930.33,stimulus,2,80,,,NoMusic
1624322930.48,stimulus,1,569,,,RelaxSession
1624322930.83,fixation,2,80,,,NoMusic
1624322930.98,fixation,1,569,,,RelaxSession
1624322932.33,stimulus,2,81,,,NoMusic
1624322932.48,stimulus,1,570,,,RelaxSession
1624322932.83,fixation,2,81,,,NoMusic
1624322932.98,fixation,1,570,,,RelaxSession
1624322934.33,stimulus,2,82,,,NoMusic
1624322934.48,stimulus,1,571,,,RelaxSession
1624322934.83,fixation,2,82,,,NoMusic
1624322934.98,fixation,1,571,,,RelaxSession
1624322936.33,stimulus,2,83,,,NoMusic
1624322936.48,stimulus,1,572,,,RelaxSession
1624322936.83,fixation,2,83,,,NoMusic
1624322936.98,fixation,1,572,,,RelaxSession
1624322938.33,stimulus,2,84,,,NoMusic
1624322938.48,stimulus,1,573,,,RelaxSession
1624322938.83,fixation,2,84,,,NoMusic
1624322938.98,fixation,1,573,,,RelaxSession
1624322940.33,stimulus,2,85,,,NoMusic
1624322940.48,stimulus,1,574,,,RelaxSession
1624322940.83,fixation,2,85,,,NoMusic
1624322940.98,fixation,1,574,,,RelaxSession
1624322942.33,stimulus,2,86,,,NoMusic
1624322942.48,stimulus,1,575,,,RelaxSession
1624322942.83,fixation,2,86,,,NoMusic
1624322942.98,fixation,1,575,,,RelaxSession
1624322944.33,stimulus,2,87,,,NoMusic
1624322944.48,stimulus,1,576,,,RelaxSession
1624322944.83,fixation,2,87,,,NoMusic
1624322944.98,fixation,1,576,,,RelaxSession
1624322946.33,stimulus,2,88,,,NoMusic
1624322946.48,stimulus,1,577,,,RelaxSession
1624322946.83,fixation,2,88,,,NoMusic
1624322946.98,fixation,1,577,,,RelaxSession
1624322948.33,stimulus,2,89,,,NoMusic
1624322948.48,stimulus,1,578,,,RelaxSession
1624322948.83,fixation,2,89,,,NoMusic
1624322948.98,fixation,1,578,,,RelaxSession
1624322950.33,stimulus,2,90,,,NoMusic
1624322950.48,stimulus,1,579,,,RelaxSession
1624322950.83,fixation,2,90,,,NoMusic
1624322950.98,fixation,1,579,,,RelaxSession
1624322952.28,stimulus,3,1,,,PracticeSession
1624322952.33,stimulus,2,91,,,NoMusic
1624322952.48,stimulus,1,580,,,RelaxSession
1624322952.78,fixation,3,1,,,PracticeSession
1624322952.83,fixation,2,91,,,NoMusic
1624322952.98,fixation,1,580,,,RelaxSession
1624322954.28,stimulus,3,2,,,PracticeSession
1624322954.33,stimulus,2,92,,,NoMusic
1624322954.48,stimulus,1,581,,,RelaxSession
1624322954.78,fixation,3,2,,,PracticeSession
1624322954.83,fixation,2,92,,,NoMusic
1624322954.98,fixation,1,581,,,RelaxSession
1624322956.28,stimulus,3,3,,,PracticeSession
1624322956.33,stimulus,2,93,,,NoMusic
1624322956.48,stimulus,1,582,,,RelaxSession
1624322956.78,fixation,3,3,,,PracticeSession
1624322956.83,fixation,2,93,,,NoMusic
1624322956.98,fixation,1,582,,,RelaxSession
1624322958.28,stimulus,3,4,,,PracticeSession
1624322958.33,stimulus,2,94,,,NoMusic
1624322958.48,stimulus,1,583,,,RelaxSession
1624322958.78,fixation,3,4,,,PracticeSession
1624322958.83,fixation,2,94,,,NoMusic
1624322958.98,fixation,1,583,,,RelaxSession
1624322960.28,stimulus,3,5,,,PracticeSession
1624322960.33,stimulus,2,95,,,NoMusic
1624322960.48,stimulus,1,584,,,RelaxSession
1624322960.78,fixation,3,5,,,PracticeSession
1624322960.83,fixation,2,95,,,NoMusic
1624322960.98,fixation,1,584,,,RelaxSession
1624322962.28,stimulus,3,6,,,PracticeSession
1624322962.33,stimulus,2,96,,,NoMusic
1624322962.48,stimulus,1,585,,,RelaxSession
1624322962.78,fixation,3,6,,,PracticeSession
1624322962.83,fixation,2,96,,,NoMusic
1624322962.98,fixation,1,585,,,RelaxSession
1624322964.28,stimulus,3,7,,,PracticeSession
1624322964.33,stimulus,2,97,,,NoMusic
1624322964.48,stimulus,1,586,,,RelaxSession
1624322964.78,fixation,3,7,,,PracticeSession
1624322964.83,fixation,2,97,,,NoMusic
1624322964.98,fixation,1,586,,,RelaxSession
1624322966.28,stimulus,3,8,,,PracticeSession
1624322966.33,stimulus,2,98,,,NoMusic
1624322966.48,stimulus,1,587,,,RelaxSession
1624322966.78,fixation,3,8,,,PracticeSession
1624322966.83,fixation,2,98,,,NoMusic
1624322966.98,fixation,1,587,,,RelaxSession
1624322968.28,stimulus,3,9,,,PracticeSession
1624322968.33,stimulus,2,99,,,NoMusic
1624322968.48,stimulus,1,588,,,RelaxSession
1624322968.78,fixation,3,9,,,PracticeSession
1624322968.83,fixation,2,99,,,NoMusic
1624322968.98,fixation,1,588,,,RelaxSession
1624322970.28,stimulus,3,10,,,PracticeSession
1624322970.33,stimulus,2,100,,,NoMusic
1624322970.48,stimulus,1,589,,,RelaxSession
1624322970.78,fixation,3,10,,,PracticeSession
1624322970.83,fixation,2,100,,,NoMusic
1624322970.98,fixation,1,589,,,RelaxSession
1624322972.28,stimulus,3,11,,,PracticeSession
1624322972.33,stimulus,2,101,,,NoMusic
1624322972.48,stimulus,1,590,,,RelaxSession
1624322972.78,fixation,3,11,,,PracticeSession
1624322972.83,fixation,2,101,,,NoMusic
1624322972.98,fixation,1,590,,,RelaxSession
1624322974.28,stimulus,3,12,,,PracticeSession
1624322974.33,stimulus,2,102,,,NoMusic
1624322974.48,stimulus,1,591,,,RelaxSession
1624322974.78,fixation,3,12,,,PracticeSession
1624322974.83,fixation,2,102,,,NoMusic
1624322974.98,fixation,1,591,,,RelaxSession
1624322976.28,stimulus,3,13,,,PracticeSession
1624322976.33,stimulus,2,103,,,NoMusic
1624322976.48,stimulus,1,592,,,RelaxSession
1624322976.78,fixation,3,13,,,PracticeSession
1624322976.83,fixation,2,103,,,NoMusic
1624322976.98,fixation,1,592,,,RelaxSession
1624322978.28,stimulus,3,14,,,PracticeSession
1624322978.33,stimulus,2,104,,,NoMusic
1624322978.48,stimulus,1,593,,,RelaxSession
1624322978.78,fixation,3,14,,,PracticeSession
1624322978.83,fixation,2,104,,,NoMusic
1624322978.98,fixation,1,593,,,RelaxSession
1624322980.28,stimulus,3,15,,,PracticeSession
1624322980.33,stimulus,2,105,,,NoMusic
1624322980.48,stimulus,1,594,,,RelaxSession
1624322980.78,fixation,3,15,,,PracticeSession
1624322980.83,fixation,2,105,,,NoMusic
1624322980.98,fixation,1,594,,,RelaxSession
1624322982.28,stimulus,3,16,,,PracticeSession
1624322982.33,stimulus,2,106,,,NoMusic
1624322982.48,stimulus,1,595,,,RelaxSession
1624322982.78,fixation,3,16,,,PracticeSession
1624322982.83,fixation,2,106,,,NoMusic
1624322982.98,fixation,1,595,,,RelaxSession
1624322984.28,stimulus,3,17,,,PracticeSession
1624322984.33,stimulus,2,107,,,NoMusic
1624322984.48,stimulus,1,596,,,RelaxSession
1624322984.78,fixation,3,17,,,PracticeSession
1624322984.83,fixation,2,107,,,NoMusic
1624322984.98,fixation,1,596,,,RelaxSession
1624322986.28,stimulus,3,18,,,PracticeSession
1624322986.33,stimulus,2,108,,,NoMusic
1624322986.48,stimulus,1,597,,,RelaxSession
1624322986.78,fixation,3,18,,,PracticeSession
1624322986.83,fixation,2,108,,,NoMusic
1624322986.98,fixation,1,597,,,RelaxSession
1624322988.28,stimulus,3,19,,,PracticeSession
1624322988.33,stimulus,2,109,,,NoMusic
1624322988.48,stimulus,1,598,,,RelaxSession
1624322988.78,fixation,3,19,,,PracticeSession
1624322988.83,fixation,2,109,,,NoMusic
1624322988.98,fixation,1,598,,,RelaxSession
1624322990.28,stimulus,3,20,,,PracticeSession
1624322990.33,stimulus,2,110,,,NoMusic
1624322990.48,stimulus,1,599,,,RelaxSession
1624322990.78,fixation,3,20,,,PracticeSession
1624322990.83,fixation,2,110,,,NoMusic
1624322990.98,fixation,1,599,,,RelaxSession
1624322992.28,stimulus,3,21,,,PracticeSession
1624322992.33,stimulus,2,111,,,NoMusic
1624322992.48,stimulus,1,600,,,RelaxSession
1624322992.78,fixation,3,21,,,PracticeSession
1624322992.83,fixation,2,111,,,NoMusic
1624322992.98,fixation,1,600,,,RelaxSession
1624322994.28,stimulus,3,22,,,PracticeSession
1624322994.33,stimulus,2,112,,,NoMusic
1624322994.48,stimulus,1,601,,,RelaxSession
1624322994.78,fixation,3,22,,,PracticeSession
1624322994.83,fixation,2,112,,,NoMusic
1624322994.98,fixation,1,601,,,RelaxSession
1624322996.28,stimulus,3,23,,,PracticeSession
1624322996.33,stimulus,2,113,,,NoMusic
1624322996.48,stimulus,1,602,,,RelaxSession
1624322996.78,fixation,3,23,,,PracticeSession
1624322996.83,fixation,2,113,,,NoMusic
1624322996.98,fixation,1,602,,,RelaxSession
1624322998.28,stimulus,3,24,,,PracticeSession
1624322998.33,stimulus,2,114,,,NoMusic
1624322998.48,stimulus,1,603,,,RelaxSession
1624322998.78,fixation,3,24,,,PracticeSession
1624322998.83,fixation,2,114,,,NoMusic
1624322998.98,fixation,1,603,,,RelaxSession
1624323000.28,stimulus,3,25,,,PracticeSession
1624323000.33,stimulus,2,115,,,NoMusic
1624323000.48,stimulus,1,604,,,RelaxSession
1624323000.78,fixation,3,25,,,PracticeSession
1624323000.83,fixation,2,115,,,NoMusic
1624323000.98,fixation,1,604,,,RelaxSession
1624323002.28,stimulus,3,26,,,PracticeSession
1624323002.33,stimulus,2,116,,,NoMusic
1624323002.48,stimulus,1,605,,,RelaxSession
1624323002.78,fixation,3,26,,,PracticeSession
1624323002.83,fixation,2,116,,,NoMusic
1624323002.98,fixation,1,605,,,RelaxSession
1624323004.28,stimulus,3,27,,,PracticeSession
1624323004.33,stimulus,2,117,,,NoMusic
1624323004.48,stimulus,1,606,,,RelaxSession
1624323004.78,fixation,3,27,,,PracticeSession
1624323004.83,fixation,2,117,,,NoMusic
1624323004.98,fixation,1,606,,,RelaxSession
1624323006.28,stimulus,3,28,,,PracticeSession
1624323006.33,stimulus,2,118,,,NoMusic
1624323006.48,stimulus,1,607,,,RelaxSession
1624323006.78,fixation,3,28,,,PracticeSession
1624323006.83,fixation,2,118,,,NoMusic
1624323006.98,fixation,1,607,,,RelaxSession
1624323008.28,stimulus,3,29,,,PracticeSession
1624323008.33,stimulus,2,119,,,NoMusic
1624323008.48,stimulus,1,608,,,RelaxSession
1624323008.78,fixation,3,29,,,PracticeSession
1624323008.83,fixation,2,119,,,NoMusic
1624323008.98,fixation,1,608,,,RelaxSession
1624323010.28,stimulus,3,30,,,PracticeSession
1624323010.33,stimulus,2,120,,,NoMusic
1624323010.48,stimulus,1,609,,,RelaxSession
1624323010.78,fixation,3,30,,,PracticeSession
1624323010.83,fixation,2,120,,,NoMusic
1624323010.98,fixation,1,609,,,RelaxSession
1624323012.28,stimulus,3,31,,,PracticeSession
1624323012.33,stimulus,2,121,,,NoMusic
1624323012.48,stimulus,1,610,,,RelaxSession
1624323012.78,fixation,3,31,,,PracticeSession
1624323012.83,fixation,2,121,,,NoMusic
1624323012.98,fixation,1,610,,,RelaxSession
1624323014.28,stimulus,3,32,,,PracticeSession
1624323014.33,stimulus,2,122,,,NoMusic
1624323014.48,stimulus,1,611,,,RelaxSession
1624323014.78,fixation,3,32,,,PracticeSession
1624323014.83,fixation,2,122,,,NoMusic
1624323014.98,fixation,1,611,,,RelaxSession
1624323016.28,stimulus,3,33,,,PracticeSession
1624323016.33,stimulus,2,123,,,NoMusic
1624323016.48,stimulus,1,612,,,RelaxSession
1624323016.78,fixation,3,33,,,PracticeSession
1624323016.83,fixation,2,123,,,NoMusic
1624323016.98,fixation,1,612,,,RelaxSession
1624323018.28,stimulus,3,34,,,PracticeSession
1624323018.33,stimulus,2,124,,,NoMusic
1624323018.48,stimulus,1,613,,,RelaxSession
1624323018.78,fixation,3,34,,,PracticeSession
1624323018.83,fixation,2,124,,,NoMusic
1624323018.98,fixation,1,613,,,RelaxSession
1624323020.28,stimulus,3,35,,,PracticeSession
1624323020.33,stimulus,2,125,,,NoMusic
1624323020.48,stimulus,1,614,,,RelaxSession
1624323020.78,fixation,3,35,,,PracticeSession
1624323020.83,fixation,2,125,,,NoMusic
1624323020.98,fixation,1,614,,,RelaxSession
1624323022.28,stimulus,3,36,,,PracticeSession
1624323022.33,stimulus,2,126,,,NoMusic
1624323022.48,stimulus,1,615,,,RelaxSession
1624323022.78,fixation,3,36,,,PracticeSession
1624323022.83,fixation,2,126,,,NoMusic
1624323022.98,fixation,1,615,,,RelaxSession
1624323024.28,stimulus,3,37,,,PracticeSession
1624323024.33,stimulus,2,127,,,NoMusic
1624323024.48,stimulus,1,616,,,RelaxSession
1624323024.78,fixation,3,37,,,PracticeSession
1624323024.83,fixation,2,127,,,NoMusic
1624323024.98,fixation,1,616,,,RelaxSession
1624323026.28,stimulus,3,38,,,PracticeSession
1624323026.33,stimulus,2,128,,,NoMusic
1624323026.48,stimulus,1,617,,,RelaxSession
1624323026.78,fixation,3,38,,,PracticeSession
1624323026.83,fixation,2,128,,,NoMusic
1624323026.98,fixation,1,617,,,RelaxSession
1624323028.28,stimulus,3,39,,,PracticeSession
1624323028.33,stimulus,2,129,,,NoMusic
1624323028.48,stimulus,1,618,,,RelaxSession
1624323028.78,fixation,3,39,,,PracticeSession
1624323028.83,fixation,2,129,,,NoMusic
1624323028.98,fixation,1,618,,,RelaxSession
1624323030.28,stimulus,3,40,,,PracticeSession
1624323030.33,stimulus,2,130,,,NoMusic
1624323030.48,stimulus,1,619,,,RelaxSession
1624323030.78,fixation,3,40,,,PracticeSession
1624323030.83,fixation,2,130,,,NoMusic
1624323030.98,fixation,1,619,,,RelaxSession
1624323032.28,stimulus,3,41,,,PracticeSession
1624323032.33,stimulus,2,131,,,NoMusic
1624323032.48,stimulus,1,620,,,RelaxSession
1624323032.78,fixation,3,41,,,PracticeSession
1624323032.83,fixation,2,131,,,NoMusic
1624323032.98,fixation,1,620,,,RelaxSession
1624323034.28,stimulus,3,42,,,PracticeSession
1624323034.33,stimulus,2,132,,,NoMusic
1624323034.48,stimulus,1,621,,,RelaxSession
1624323034.78,fixation,3,42,,,PracticeSession
1624323034.83,fixation,2,132,,,NoMusic
1624323034.98,fixation,1,621,,,RelaxSession
1624323036.28,stimulus,3,43,,,PracticeSession
1624323036.33,stimulus,2,133,,,NoMusic
1624323036.48,stimulus,1,622,,,RelaxSession
1624323036.78,fixation,3,43,,,PracticeSession
1624323036.83,fixation,2,133,,,NoMusic
1624323036.98,fixation,1,622,,,RelaxSession
1624323038.28,stimulus,3,44,,,PracticeSession
1624323038.33,stimulus,2,134,,,NoMusic
1624323038.48,stimulus,1,623,,,RelaxSession
1624323038.78,fixation,3,44,,,PracticeSession
1624323038.83,fixation,2,134,,,NoMusic
1624323038.98,fixation,1,623,,,RelaxSession
1624323040.28,stimulus,3,45,,,NoMusic
1624323040.33,stimulus,2,135,,,NoMusic
1624323040.48,stimulus,1,624,,,RelaxSession
1624323040.78,fixation,3,45,,,NoMusic
1624323040.83,fixation,2,135,,,NoMusic
1624323040.98,fixation,1,624,,,RelaxSession
1624323042.28,stimulus,3,46,,,NoMusic
1624323042.33,stimulus,2,136,,,NoMusic
1624323042.48,stimulus,1,625,,,RelaxSession
1624323042.78,fixation,3,46,,,NoMusic
1624323042.83,fixation,2,136,,,NoMusic
1624323042.98,fixation,1,625,,,RelaxSession
1624323044.28,stimulus,3,47,,,NoMusic
1624323044.33,stimulus,2,137,,,NoMusic
1624323044.48,stimulus,1,626,,,RelaxSession
1624323044.78,fixation,3,47,,,NoMusic
1624323044.83,fixation,2,137,,,NoMusic
1624323044.98,fixation,1,626,,,RelaxSession
1624323046.28,stimulus,3,48,,,NoMusic
1624323046.33,stimulus,2,138,,,NoMusic
1624323046.48,stimulus,1,627,,,RelaxSession
1624323046.78,fixation,3,48,,,NoMusic
1624323046.83,fixation,2,138,,,NoMusic
1624323046.98,fixation,1,627,,,RelaxSession
1624323048.28,stimulus,3,49,,,NoMusic
1624323048.33,stimulus,2,139,,,NoMusic
1624323048.48,stimulus,1,628,,,RelaxSession
1624323048.78,fixation,3,49,,,NoMusic
1624323048.83,fixation,2,139,,,NoMusic
1624323048.98,fixation,1,628,,,RelaxSession
1624323050.28,stimulus,3,50,,,NoMusic
1624323050.33,stimulus,2,140,,,NoMusic
1624323050.48,stimulus,1,629,,,RelaxSession
1624323050.78,fixation,3,50,,,NoMusic
1624323050.83,fixation,2,140,,,NoMusic
1624323050.98,fixation,1,629,,,RelaxSession
1624323052.28,stimulus,3,51,,,NoMusic
1624323052.33,stimulus,2,141,,,NoMusic
1624323052.48,stimulus,1,630,,,RelaxSession
1624323052.78,fixation,3,51,,,NoMusic
1624323052.83,fixation,2,141,,,NoMusic
1624323052.98,fixation,1,630,,,RelaxSession
1624323054.28,stimulus,3,52,,,NoMusic
1624323054.33,stimulus,2,142,,,NoMusic
1624323054.48,stimulus,1,631,,,RelaxSession
1624323054.78,fixation,3,52,,,NoMusic
1624323054.83,fixation,2,142,,,NoMusic
1624323054.98,fixation,1,631,,,RelaxSession
1624323056.28,stimulus,3,53,,,NoMusic
1624323056.33,stimulus,2,143,,,NoMusic
1624323056.48,stimulus,1,632,,,RelaxSession
1624323056.78,fixation,3,53,,,NoMusic
1624323056.83,fixation,2,143,,,NoMusic
1624323056.98,fixation,1,632,,,RelaxSession
1624323058.28,stimulus,3,54,,,NoMusic
1624323058.33,stimulus,2,144,,,NoMusic
1624323058.48,stimulus,1,633,,,RelaxSession
1624323058.78,fixation,3,54,,,NoMusic
1624323058.83,fixation,2,144,,,NoMusic
1624323058.98,fixation,1,633,,,RelaxSession
1624323060.28,stimulus,3,55,,,NoMusic
1624323060.33,stimulus,2,145,,,NoMusic
1624323060.48,stimulus,1,634,,,RelaxSession
1624323060.78,fixation,3,55,,,NoMusic
1624323060.83,fixation,2,145,,,NoMusic
1624323060.98,fixation,1,634,,,RelaxSession
1624323062.28,stimulus,3,56,,,NoMusic
1624323062.33,stimulus,2,146,,,NoMusic
1624323062.48,stimulus,1,635,,,RelaxSession
1624323062.78,fixation,3,56,,,NoMusic
1624323062.83,fixation,2,146,,,NoMusic
1624323062.98,fixation,1,635,,,RelaxSession
1624323064.28,stimulus,3,57,,,NoMusic
1624323064.33,stimulus,2,147,,,NoMusic
1624323064.48,stimulus,1,636,,,RelaxSession
1624323064.78,fixation,3,57,,,NoMusic
1624323064.83,fixation,2,147,,,NoMusic
1624323064.98,fixation,1,636,,,RelaxSession
1624323066.28,stimulus,3,58,,,NoMusic
1624323066.33,stimulus,2,148,,,NoMusic
1624323066.48,stimulus,1,637,,,RelaxSession
1624323066.78,fixation,3,58,,,NoMusic
1624323066.83,fixation,2,148,,,NoMusic
1624323066.98,fixation,1,637,,,RelaxSession
1624323068.28,stimulus,3,59,,,NoMusic
1624323068.33,stimulus,2,149,,,NoMusic
1624323068.48,stimulus,1,638,,,RelaxSession
1624323068.78,fixation,3,59,,,NoMusic
1624323068.83,fixation,2,149,,,NoMusic
1624323068.98,fixation,1,638,,,RelaxSession
1624323070.28,stimulus,3,60,,,NoMusic
1624323070.33,stimulus,2,150,,,NoMusic
1624323070.48,stimulus,1,639,,,RelaxSession
1624323070.78,fixation,3,60,,,NoMusic
1624323070.83,fixation,2,150,,,NoMusic
1624323070.98,fixation,1,639,,,RelaxSession
1624323072.28,stimulus,3,61,,,NoMusic
1624323072.33,stimulus,2,151,,,NoMusic
1624323072.48,stimulus,1,640,,,RelaxSession
1624323072.78,fixation,3,61,,,NoMusic
1624323072.83,fixation,2,151,,,NoMusic
1624323072.98,fixation,1,640,,,RelaxSession
1624323074.28,stimulus,3,62,,,NoMusic
1624323074.33,stimulus,2,152,,,NoMusic
1624323074.48,stimulus,1,641,,,RelaxSession
1624323074.78,fixation,3,62,,,NoMusic
1624323074.83,fixation,2,152,,,NoMusic
1624323074.98,fixation,1,641,,,RelaxSession
1624323076.28,stimulus,3,63,,,NoMusic
1624323076.33,stimulus,2,153,,,NoMusic
1624323076.48,stimulus,1,642,,,RelaxSession
1624323076.78,fixation,3,63,,,NoMusic
1624323076.83,fixation,2,153,,,NoMusic
1624323076.98,fixation,1,642,,,RelaxSession
1624323078.28,stimulus,3,64,,,NoMusic
1624323078.33,stimulus,2,154,,,NoMusic
1624323078.48,stimulus,1,643,,,RelaxSession
1624323078.78,fixation,3,64,,,NoMusic
1624323078.83,fixation,2,154,,,NoMusic
1624323078.98,fixation,1,643,,,RelaxSession
1624323080.28,stimulus,3,65,,,NoMusic
1624323080.33,stimulus,2,155,,,NoMusic
1624323080.48,stimulus,1,644,,,RelaxSession
1624323080.78,fixation,3,65,,,NoMusic
1624323080.83,fixation,2,155,,,NoMusic
1624323080.98,fixation,1,644,,,RelaxSession
1624323082.28,stimulus,3,66,,,NoMusic
1624323082.33,stimulus,2,156,,,NoMusic
1624323082.48,stimulus,1,645,,,RelaxSession
1624323082.78,fixation,3,66,,,NoMusic
1624323082.83,fixation,2,156,,,NoMusic
1624323082.98,fixation,1,645,,,RelaxSession
1624323084.28,stimulus,3,67,,,NoMusic
1624323084.33,stimulus,2,157,,,NoMusic
1624323084.48,stimulus,1,646,,,RelaxSession
1624323084.78,fixation,3,67,,,NoMusic
1624323084.83,fixation,2,157,,,NoMusic
1624323084.98,fixation,1,646,,,RelaxSession
1624323086.28,stimulus,3,68,,,NoMusic
1624323086.33,stimulus,2,158,,,NoMusic
1624323086.48,stimulus,1,647,,,RelaxSession
1624323086.78,fixation,3,68,,,NoMusic
1624323086.83,fixation,2,158,,,NoMusic
1624323086.98,fixation,1,647,,,RelaxSession
1624323088.28,stimulus,3,69,,,NoMusic
1624323088.33,stimulus,2,159,,,NoMusic
1624323088.48,stimulus,1,648,,,RelaxSession
1624323088.78,fixation,3,69,,,NoMusic
1624323088.83,fixation,2,159,,,NoMusic
1624323088.98,fixation,1,648,,,RelaxSession
1624323090.28,stimulus,3,70,,,NoMusic
1624323090.33,stimulus,2,160,,,NoMusic
1624323090.48,stimulus,1,649,,,RelaxSession
1624323090.78,fixation,3,70,,,NoMusic
1624323090.83,fixation,2,160,,,NoMusic
1624323090.98,fixation,1,649,,,RelaxSession
1624323092.28,stimulus,3,71,,,NoMusic
1624323092.33,stimulus,2,161,,,NoMusic
1624323092.48,stimulus,1,650,,,RelaxSession
1624323092.78,fixation,3,71,,,NoMusic
1624323092.83,fixation,2,161,,,NoMusic
1624323092.98,fixation,1,650,,,RelaxSession
1624323094.28,stimulus,3,72,,,NoMusic
1624323094.33,stimulus,2,162,,,NoMusic
1624323094.48,stimulus,1,651,,,RelaxSession
1624323094.78,fixation,3,72,,,NoMusic
1624323094.83,fixation,2,162,,,NoMusic
1624323094.98,fixation,1,651,,,RelaxSession
1624323096.28,stimulus,3,73,,,NoMusic
1624323096.33,stimulus,2,163,,,NoMusic
1624323096.48,stimulus,1,652,,,RelaxSession
1624323096.78,fixation,3,73,,,NoMusic
1624323096.83,fixation,2,163,,,NoMusic
1624323096.98,fixation,1,652,,,RelaxSession
1624323098.28,stimulus,3,74,,,NoMusic
1624323098.33,stimulus,2,164,,,NoMusic
1624323098.48,stimulus,1,653,,,RelaxSession
1624323098.78,fixation,3,74,,,NoMusic
1624323098.83,fixation,2,164,,,NoMusic
1624323098.98,fixation,1,653,,,RelaxSession
1624323100.28,stimulus,3,75,,,NoMusic
1624323100.33,stimulus,2,165,,,NoMusic
1624323100.48,stimulus,1,654,,,RelaxSession
1624323100.78,fixation,3,75,,,NoMusic
1624323100.83,fixation,2,165,,,NoMusic
1624323100.98,fixation,1,654,,,RelaxSession
1624323102.28,stimulus,3,76,,,NoMusic
1624323102.33,stimulus,2,166,,,NoMusic
1624323102.48,stimulus,1,655,,,RelaxSession
1624323102.78,fixation,3,76,,,NoMusic
1624323102.83,fixation,2,166,,,NoMusic
1624323102.98,fixation,1,655,,,RelaxSession
1624323104.28,stimulus,3,77,,,NoMusic
1624323104.33,stimulus,2,167,,,NoMusic
1624323104.48,stimulus,1,656,,,RelaxSession
1624323104.78,fixation,3,77,,,NoMusic
1624323104.83,fixation,2,167,,,NoMusic
1624323104.98,fixation,1,656,,,RelaxSession
1624323106.28,stimulus,3,78,,,NoMusic
1624323106.33,stimulus,2,168,,,NoMusic
1624323106.48,stimulus,1,657,,,RelaxSession
1624323106.78,fixation,3,78,,,NoMusic
1624323106.83,fixation,2,168,,,NoMusic
1624323106.98,fixation,1,657,,,RelaxSession
1624323108.28,stimulus,3,79,,,NoMusic
1624323108.33,stimulus,2,169,,,NoMusic
1624323108.48,stimulus,1,658,,,RelaxSession
1624323108.78,fixation,3,79,,,NoMusic
1624323108.83,fixation,2,169,,,NoMusic
1624323108.98,fixation,1,658,,,RelaxSession
1624323110.28,stimulus,3,80,,,NoMusic
1624323110.33,stimulus,2,170,,,NoMusic
1624323110.48,stimulus,1,659,,,RelaxSession
1624323110.78,fixation,3,80,,,NoMusic
1624323110.83,fixation,2,170,,,NoMusic
1624323110.98,fixation,1,659,,,RelaxSession
1624323112.28,stimulus,3,81,,,NoMusic
1624323112.33,stimulus,2,171,,,NoMusic
1624323112.48,stimulus,1,660,,,RelaxSession
1624323112.78,fixation,3,81,,,NoMusic
1624323112.83,fixation,2,171,,,NoMusic
1624323112.98,fixation,1,660,,,RelaxSession
1624323114.28,stimulus,3,82,,,NoMusic
1624323114.33,stimulus,2,172,,,NoMusic
1624323114.48,stimulus,1,661,,,RelaxSession
1624323114.78,fixation,3,82,,,NoMusic
1624323114.83,fixation,2,172,,,NoMusic
1624323114.98,fixation,1,661,,,RelaxSession
1624323116.28,stimulus,3,83,,,NoMusic
1624323116.33,stimulus,2,173,,,NoMusic
1624323116.48,stimulus,1,662,,,RelaxSession
1624323116.78,fixation,3,83,,,NoMusic
1624323116.83,fixation,2,173,,,NoMusic
1624323116.98,fixation,1,662,,,RelaxSession
1624323118.28,stimulus,3,84,,,NoMusic
1624323118.33,stimulus,2,174,,,NoMusic
1624323118.48,stimulus,1,663,,,RelaxSession
1624323118.78,fixation,3,84,,,NoMusic
1624323118.83,fixation,2,174,,,NoMusic
1624323118.98,fixation,1,663,,,RelaxSession
1624323120.28,stimulus,3,85,,,NoMusic
1624323120.33,stimulus,2,175,,,NoMusic
1624323120.48,stimulus,1,664,,,RelaxSession
1624323120.78,fixation,3,85,,,NoMusic
1624323120.83,fixation,2,175,,,NoMusic
1624323120.98,fixation,1,664,,,RelaxSession
1624323122.28,stimulus,3,86,,,NoMusic
1624323122.33,stimulus,2,176,,,NoMusic
1624323122.48,stimulus,1,665,,,RelaxSession
1624323122.78,fixation,3,86,,,NoMusic
1624323122.83,fixation,2,176,,,NoMusic
1624323122.98,fixation,1,665,,,RelaxSession
1624323124.28,stimulus,3,87,,,NoMusic
1624323124.33,stimulus,2,177,,,NoMusic
1624323124.48,stimulus,1,666,,,RelaxSession
1624323124.78,fixation,3,87,,,NoMusic
1624323124.83,fixation,2,177,,,NoMusic
1624323124.98,fixation,1,666,,,RelaxSession
1624323126.28,stimulus,3,88,,,NoMusic
1624323126.33,stimulus,2,178,,,NoMusic
1624323126.48,stimulus,1,667,,,RelaxSession
1624323126.78,fixation,3,88,,,NoMusic
1624323126.83,fixation,2,178,,,NoMusic
1624323126.98,fixation,1,667,,,RelaxSession
1624323128.28,stimulus,3,89,,,NoMusic
1624323128.33,stimulus,2,179,,,NoMusic
1624323128.48,stimulus,1,668,,,RelaxSession
1624323128.78,fixation,3,89,,,NoMusic
1624323128.83,fixation,2,179,,,NoMusic
1624323128.98,fixation,1,668,,,RelaxSession
1624323130.28,stimulus,3,90,,,NoMusic
1624323130.33,stimulus,2,180,,,NoMusic
1624323130.48,stimulus,1,669,,,RelaxSession
1624323130.78,fixation,3,90,,,NoMusic
1624323130.83,fixation,2,180,,,NoMusic
1624323130.98,fixation,1,669,,,RelaxSession
1624323132.28,stimulus,3,91,,,NoMusic
1624323132.33,stimulus,2,181,,,NoMusic
1624323132.48,stimulus,1,670,,,RelaxSession
1624323132.78,fixation,3,91,,,NoMusic
1624323132.83,fixation,2,181,,,NoMusic
1624323132.98,fixation,1,670,,,RelaxSession
1624323134.28,stimulus,3,92,,,NoMusic
1624323134.33,stimulus,2,182,,,NoMusic
1624323134.48,stimulus,1,671,,,RelaxSession
1624323134.78,fixation,3,92,,,NoMusic
1624323134.83,fixation,2,182,,,NoMusic
1624323134.98,fixation,1,671,,,RelaxSession
1624323136.28,stimulus,3,93,,,NoMusic
1624323136.33,stimulus,2,183,,,NoMusic
1624323136.48,stimulus,1,672,,,RelaxSession
1624323136.78,fixation,3,93,,,NoMusic
1624323136.83,fixation,2,183,,,NoMusic
1624323136.98,fixation,1,672,,,RelaxSession
1624323138.28,stimulus,3,94,,,NoMusic
1624323138.33,stimulus,2,184,,,NoMusic
1624323138.48,stimulus,1,673,,,RelaxSession
1624323138.78,fixation,3,94,,,NoMusic
1624323138.83,fixation,2,184,,,NoMusic
1624323138.98,fixation,1,673,,,RelaxSession
1624323140.28,stimulus,3,95,,,NoMusic
1624323140.33,stimulus,2,185,,,NoMusic
1624323140.48,stimulus,1,674,,,RelaxSession
1624323140.78,fixation,3,95,,,NoMusic
1624323140.83,fixation,2,185,,,NoMusic
1624323140.98,fixation,1,674,,,RelaxSession
1624323142.28,stimulus,3,96,,,NoMusic
1624323142.33,stimulus,2,186,,,NoMusic
1624323142.48,stimulus,1,675,,,RelaxSession
1624323142.78,fixation,3,96,,,NoMusic
1624323142.83,fixation,2,186,,,NoMusic
1624323142.98,fixation,1,675,,,RelaxSession
1624323144.28,stimulus,3,97,,,NoMusic
1624323144.33,stimulus,2,187,,,NoMusic
1624323144.48,stimulus,1,676,,,RelaxSession
1624323144.78,fixation,3,97,,,NoMusic
1624323144.83,fixation,2,187,,,NoMusic
1624323144.98,fixation,1,676,,,RelaxSession
1624323146.28,stimulus,3,98,,,NoMusic
1624323146.33,stimulus,2,188,,,NoMusic
1624323146.48,stimulus,1,677,,,RelaxSession
1624323146.78,fixation,3,98,,,NoMusic
1624323146.83,fixation,2,188,,,NoMusic
1624323146.98,fixation,1,677,,,RelaxSession
1624323148.28,stimulus,3,99,,,NoMusic
1624323148.33,stimulus,2,189,,,NoMusic
1624323148.48,stimulus,1,678,,,RelaxSession
1624323148.78,fixation,3,99,,,NoMusic
1624323148.83,fixation,2,189,,,NoMusic
1624323148.98,fixation,1,678,,,RelaxSession
1624323150.28,stimulus,3,100,,,NoMusic
1624323150.33,stimulus,2,190,,,NoMusic
1624323150.48,stimulus,1,679,,,RelaxSession
1624323150.78,fixation,3,100,,,NoMusic
1624323150.83,fixation,2,190,,,NoMusic
1624323150.98,fixation,1,679,,,RelaxSession
1624323152.28,stimulus,3,101,,,NoMusic
1624323152.33,stimulus,2,191,,,NoMusic
1624323152.48,stimulus,1,680,,,RelaxSession
1624323152.78,fixation,3,101,,,NoMusic
1624323152.83,fixation,2,191,,,NoMusic
1624323152.98,fixation,1,680,,,RelaxSession
1624323154.28,stimulus,3,102,,,NoMusic
1624323154.33,stimulus,2,192,,,NoMusic
1624323154.48,stimulus,1,681,,,RelaxSession
1624323154.78,fixation,3,102,,,NoMusic
1624323154.83,fixation,2,192,,,NoMusic
1624323154.98,fixation,1,681,,,RelaxSession
1624323156.28,stimulus,3,103,,,NoMusic
1624323156.33,stimulus,2,193,,,NoMusic
1624323156.48,stimulus,1,682,,,RelaxSession
1624323156.78,fixation,3,103,,,NoMusic
1624323156.83,fixation,2,193,,,NoMusic
1624323156.98,fixation,1,682,,,RelaxSession
1624323158.28,stimulus,3,104,,,NoMusic
1624323158.33,stimulus,2,194,,,NoMusic
1624323158.48,stimulus,1,683,,,RelaxSession
1624323158.78,fixation,3,104,,,NoMusic
1624323158.83,fixation,2,194,,,NoMusic
1624323158.98,fixation,1,683,,,RelaxSession
1624323160.28,stimulus,3,105,,,NoMusic
1624323160.33,stimulus,2,195,,,NoMusic
1624323160.48,stimulus,1,684,,,RelaxSession
1624323160.78,fixation,3,105,,,NoMusic
1624323160.83,fixation,2,195,,,NoMusic
1624323160.98,fixation,1,684,,,RelaxSession
1624323162.28,stimulus,3,106,,,NoMusic
1624323162.33,stimulus,2,196,,,NoMusic
1624323162.48,stimulus,1,685,,,RelaxSession
1624323162.78,fixation,3,106,,,NoMusic
1624323162.83,fixation,2,196,,,NoMusic
1624323162.98,fixation,1,685,,,RelaxSession
1624323164.28,stimulus,3,107,,,NoMusic
1624323164.33,stimulus,2,197,,,NoMusic
1624323164.48,stimulus,1,686,,,RelaxSession
1624323164.78,fixation,3,107,,,NoMusic
1624323164.83,fixation,2,197,,,NoMusic
1624323164.98,fixation,1,686,,,RelaxSession
1624323166.28,stimulus,3,108,,,NoMusic
1624323166.33,stimulus,2,198,,,NoMusic
1624323166.48,stimulus,1,687,,,RelaxSession
1624323166.78,fixation,3,108,,,NoMusic
1624323166.83,fixation,2,198,,,NoMusic
1624323166.98,fixation,1,687,,,RelaxSession
1624323168.28,stimulus,3,109,,,NoMusic
1624323168.33,stimulus,2,199,,,NoMusic
1624323168.48,stimulus,1,688,,,RelaxSession
1624323168.78,fixation,3,109,,,NoMusic
1624323168.83,fixation,2,199,,,NoMusic
1624323168.98,fixation,1,688,,,RelaxSession
1624323170.28,stimulus,3,110,,,NoMusic
1624323170.33,stimulus,2,200,,,NoMusic
1624323170.48,stimulus,1,689,,,RelaxSession
1624323170.78,fixation,3,110,,,NoMusic
1624323170.83,fixation,2,200,,,NoMusic
1624323170.98,fixation,1,689,,,RelaxSession
1624323172.28,stimulus,3,111,,,NoMusic
1624323172.33,stimulus,2,201,,,NoMusic
1624323172.48,stimulus,1,690,,,RelaxSession
1624323172.78,fixation,3,111,,,NoMusic
1624323172.83,fixation,2,201,,,NoMusic
1624323172.98,fixation,1,690,,,RelaxSession
1624323174.28,stimulus,3,112,,,NoMusic
1624323174.33,stimulus,2,202,,,NoMusic
1624323174.48,stimulus,1,691,,,RelaxSession
1624323174.78,fixation,3,112,,,NoMusic
1624323174.83,fixation,2,202,,,NoMusic
1624323174.98,fixation,1,691,,,RelaxSession
1624323176.28,stimulus,3,113,,,NoMusic
1624323176.33,stimulus,2,203,,,NoMusic
1624323176.48,stimulus,1,692,,,RelaxSession
1624323176.78,fixation,3,113,,,NoMusic
1624323176.83,fixation,2,203,,,NoMusic
1624323176.98,fixation,1,692,,,RelaxSession
1624323178.28,stimulus,3,114,,,NoMusic
1624323178.33,stimulus,2,204,,,NoMusic
1624323178.48,stimulus,1,693,,,RelaxSession
1624323178.78,fixation,3,114,,,NoMusic
1624323178.83,fixation,2,204,,,NoMusic
1624323178.98,fixation,1,693,,,RelaxSession
1624323180.28,stimulus,3,115,,,NoMusic
1624323180.33,stimulus,2,205,,,NoMusic
1624323180.48,stimulus,1,694,,,RelaxSession
1624323180.78,fixation,3,115,,,NoMusic
1624323180.83,fixation,2,205,,,NoMusic
1624323180.98,fixation,1,694,,,RelaxSession
1624323182.28,stimulus,3,116,,,NoMusic
1624323182.33,stimulus,2,206,,,NoMusic
1624323182.48,stimulus,1,695,,,RelaxSession
1624323182.78,fixation,3,116,,,NoMusic
1624323182.83,fixation,2,206,,,NoMusic
1624323182.98,fixation,1,695,,,RelaxSession
1624323184.28,stimulus,3,117,,,NoMusic
1624323184.33,stimulus,2,207,,,NoMusic
1624323184.48,stimulus,1,696,,,RelaxSession
1624323184.78,fixation,3,117,,,NoMusic
1624323184.83,fixation,2,207,,,NoMusic
1624323184.98,fixation,1,696,,,RelaxSession
1624323186.28,stimulus,3,118,,,NoMusic
1624323186.33,stimulus,2,208,,,NoMusic
1624323186.48,stimulus,1,697,,,RelaxSession
1624323186.78,fixation,3,118,,,NoMusic
1624323186.83,fixation,2,208,,,NoMusic
1624323186.98,fixation,1,697,,,RelaxSession
1624323188.28,stimulus,3,119,,,NoMusic
1624323188.33,stimulus,2,209,,,NoMusic
1624323188.48,stimulus,1,698,,,RelaxSession
1624323188.78,fixation,3,119,,,NoMusic
1624323188.83,fixation,2,209,,,NoMusic
1624323188.98,fixation,1,698,,,RelaxSession
1624323190.28,stimulus,3,120,,,NoMusic
1624323190.33,stimulus,2,210,,,NoMusic
1624323190.48,stimulus,1,699,,,RelaxSession
1624323190.78,fixation,3,120,,,NoMusic
1624323190.83,fixation,2,210,,,NoMusic
1624323190.98,fixation,1,699,,,RelaxSession
1624323192.28,stimulus,3,121,,,NoMusic
1624323192.33,stimulus,2,211,,,NoMusic
1624323192.48,stimulus,1,700,,,RelaxSession
1624323192.78,fixation,3,121,,,NoMusic
1624323192.83,fixation,2,211,,,NoMusic
1624323192.98,fixation,1,700,,,RelaxSession
1624323194.28,stimulus,3,122,,,NoMusic
1624323194.33,stimulus,2,212,,,NoMusic
1624323194.48,stimulus,1,701,,,RelaxSession
1624323194.78,fixation,3,122,,,NoMusic
1624323194.83,fixation,2,212,,,NoMusic
1624323194.98,fixation,1,701,,,RelaxSession
1624323196.28,stimulus,3,123,,,NoMusic
1624323196.33,stimulus,2,213,,,NoMusic
1624323196.48,stimulus,1,702,,,RelaxSession
1624323196.78,fixation,3,123,,,NoMusic
1624323196.83,fixation,2,213,,,NoMusic
1624323196.98,fixation,1,702,,,RelaxSession
1624323198.28,stimulus,3,124,,,NoMusic
1624323198.33,stimulus,2,214,,,NoMusic
1624323198.48,stimulus,1,703,,,RelaxSession
1624323198.78,fixation,3,124,,,NoMusic
1624323198.83,fixation,2,214,,,NoMusic
1624323198.98,fixation,1,703,,,RelaxSession
1624323200.28,stimulus,3,125,,,NoMusic
1624323200.33,stimulus,2,215,,,NoMusic
1624323200.48,stimulus,1,704,,,RelaxSession
1624323200.78,fixation,3,125,,,NoMusic
1624323200.83,fixation,2,215,,,NoMusic
1624323200.98,fixation,1,704,,,RelaxSession
1624323202.28,stimulus,3,126,,,NoMusic
1624323202.33,stimulus,2,216,,,NoMusic
1624323202.48,stimulus,1,705,,,RelaxSession
1624323202.78,fixation,3,126,,,NoMusic
1624323202.83,fixation,2,216,,,NoMusic
1624323202.98,fixation,1,705,,,RelaxSession
1624323204.28,stimulus,3,127,,,NoMusic
1624323204.33,stimulus,2,217,,,NoMusic
1624323204.48,stimulus,1,706,,,RelaxSession
1624323204.78,fixation,3,127,,,NoMusic
1624323204.83,fixation,2,217,,,NoMusic
1624323204.98,fixation,1,706,,,RelaxSession
1624323206.28,stimulus,3,128,,,NoMusic
1624323206.33,stimulus,2,218,,,NoMusic
1624323206.48,stimulus,1,707,,,RelaxSession
1624323206.78,fixation,3,128,,,NoMusic
1624323206.83,fixation,2,218,,,NoMusic
1624323206.98,fixation,1,707,,,RelaxSession
1624323208.28,stimulus,3,129,,,NoMusic
1624323208.33,stimulus,2,219,,,NoMusic
1624323208.48,stimulus,1,708,,,RelaxSession
1624323208.78,fixation,3,129,,,NoMusic
1624323208.83,fixation,2,219,,,NoMusic
1624323208.98,fixation,1,708,,,RelaxSession
1624323210.28,stimulus,3,130,,,NoMusic
1624323210.33,stimulus,2,220,,,NoMusic
1624323210.48,stimulus,1,709,,,RelaxSession
1624323210.78,fixation,3,130,,,NoMusic
1624323210.83,fixation,2,220,,,NoMusic
1624323210.98,fixation,1,709,,,RelaxSession
1624323212.28,stimulus,3,131,,,NoMusic
1624323212.33,stimulus,2,221,,,NoMusic
1624323212.48,stimulus,1,710,,,RelaxSession
1624323212.78,fixation,3,131,,,NoMusic
1624323212.83,fixation,2,221,,,NoMusic
1624323212.98,fixation,1,710,,,RelaxSession
1624323214.28,stimulus,3,132,,,NoMusic
1624323214.33,stimulus,2,222,,,NoMusic
1624323214.48,stimulus,1,711,,,RelaxSession
1624323214.78,fixation,3,132,,,NoMusic
1624323214.83,fixation,2,222,,,NoMusic
1624323214.98,fixation,1,711,,,RelaxSession
1624323216.28,stimulus,3,133,,,NoMusic
1624323216.33,stimulus,2,223,,,NoMusic
1624323216.48,stimulus,1,712,,,RelaxSession
1624323216.78,fixation,3,133,,,NoMusic
1624323216.83,fixation,2,223,,,NoMusic
1624323216.98,fixation,1,712,,,RelaxSession
1624323218.28,stimulus,3,134,,,NoMusic
1624323218.33,stimulus,2,224,,,NoMusic
1624323218.48,stimulus,1,713,,,RelaxSession
1624323218.78,fixation,3,134,,,NoMusic
1624323218.83,fixation,2,224,,,NoMusic
1624323218.98,fixation,1,713,,,RelaxSession
1624323220.28,stimulus,3,135,,,NoMusic
1624323220.33,stimulus,2,225,,,NoMusic
1624323220.48,stimulus,1,714,,,RelaxSession
1624323220.78,fixation,3,135,,,NoMusic
1624323220.83,fixation,2,225,,,NoMusic
1624323220.98,fixation,1,714,,,RelaxSession
1624323222.28,stimulus,3,136,,,NoMusic
1624323222.33,stimulus,2,226,,,NoMusic
1624323222.48,stimulus,1,715,,,RelaxSession
1624323222.78,fixation,3,136,,,NoMusic
1624323222.83,fixation,2,226,,,NoMusic
1624323222.98,fixation,1,715,,,RelaxSession
1624323224.28,stimulus,3,137,,,NoMusic
1624323224.33,stimulus,2,227,,,NoMusic
1624323224.48,stimulus,1,716,,,RelaxSession
1624323224.78,fixation,3,137,,,NoMusic
1624323224.83,fixation,2,227,,,NoMusic
1624323224.98,fixation,1,716,,,RelaxSession
1624323226.28,stimulus,3,138,,,NoMusic
1624323226.33,stimulus,2,228,,,NoMusic
1624323226.48,stimulus,1,717,,,RelaxSession
1624323226.78,fixation,3,138,,,NoMusic
1624323226.83,fixation,2,228,,,NoMusic
1624323226.98,fixation,1,717,,,RelaxSession
1624323228.28,stimulus,3,139,,,NoMusic
1624323228.33,stimulus,2,229,,,NoMusic
1624323228.48,stimulus,1,718,,,RelaxSession
1624323228.78,fixation,3,139,,,NoMusic
1624323228.83,fixation,2,229,,,NoMusic
1624323228.98,fixation,1,718,,,RelaxSession
1624323230.28,stimulus,3,140,,,NoMusic
1624323230.33,stimulus,2,230,,,NoMusic
1624323230.48,stimulus,1,719,,,RelaxSession
1624323230.78,fixation,3,140,,,NoMusic
1624323230.83,fixation,2,230,,,NoMusic
1624323230.98,fixation,1,719,,,RelaxSession
1624323232.28,stimulus,3,141,,,NoMusic
1624323232.33,stimulus,2,231,,,NoMusic
1624323232.48,stimulus,1,720,,,RelaxSession
1624323232.78,fixation,3,141,,,NoMusic
1624323232.83,fixation,2,231,,,NoMusic
1624323232.98,fixation,1,720,,,RelaxSession
1624323234.28,stimulus,3,142,,,NoMusic
1624323234.33,stimulus,2,232,,,NoMusic
1624323234.48,stimulus,1,721,,,RelaxSession
1624323234.78,fixation,3,142,,,NoMusic
1624323234.83,fixation,2,232,,,NoMusic
1624323234.98,fixation,1,721,,,RelaxSession
1624323236.28,stimulus,3,143,,,NoMusic
1624323236.33,stimulus,2,233,,,NoMusic
1624323236.48,stimulus,1,722,,,RelaxSession
1624323236.78,fixation,3,143,,,NoMusic
1624323236.83,fixation,2,233,,,NoMusic
1624323236.98,fixation,1,722,,,RelaxSession
1624323238.28,stimulus,3,144,,,NoMusic
1624323238.33,stimulus,2,234,,,NoMusic
1624323238.48,stimulus,1,723,,,RelaxSession
1624323238.78,fixation,3,144,,,NoMusic
1624323238.83,fixation,2,234,,,NoMusic
1624323238.98,fixation,1,723,,,RelaxSession
1624323240.28,stimulus,3,145,,,NoMusic
1624323240.33,stimulus,2,235,,,NoMusic
1624323240.48,stimulus,1,724,,,RelaxSession
1624323240.78,fixation,3,145,,,NoMusic
1624323240.83,fixation,2,235,,,NoMusic
1624323240.98,fixation,1,724,,,RelaxSession
1624323242.28,stimulus,3,146,,,NoMusic
1624323242.33,stimulus,2,236,,,NoMusic
1624323242.48,stimulus,1,725,,,RelaxSession
1624323242.78,fixation,3,146,,,NoMusic
1624323242.83,fixation,2,236,,,NoMusic
1624323242.98,fixation,1,725,,,RelaxSession
1624323244.28,stimulus,3,147,,,NoMusic
1624323244.33,stimulus,2,237,,,NoMusic
1624323244.48,stimulus,1,726,,,RelaxSession
1624323244.78,fixation,3,147,,,NoMusic
1624323244.83,fixation,2,237,,,NoMusic
1624323244.98,fixation,1,726,,,RelaxSession
1624323246.28,stimulus,3,148,,,NoMusic
1624323246.33,stimulus,2,238,,,NoMusic
1624323246.48,stimulus,1,727,,,RelaxSession
1624323246.78,fixation,3,148,,,NoMusic
1624323246.83,fixation,2,238,,,NoMusic
1624323246.98,fixation,1,727,,,RelaxSession
1624323248.28,stimulus,3,149,,,NoMusic
1624323248.33,stimulus,2,239,,,NoMusic
1624323248.48,stimulus,1,728,,,RelaxSession
1624323248.78,fixation,3,149,,,NoMusic
1624323248.83,fixation,2,239,,,NoMusic
1624323248.98,fixation,1,728,,,RelaxSession
1624323250.28,stimulus,3,150,,,NoMusic
1624323250.33,stimulus,2,240,,,NoMusic
1624323250.48,stimulus,1,729,,,RelaxSession
1624323250.78,fixation,3,150,,,NoMusic
1624323250.83,fixation,2,240,,,NoMusic
1624323250.98,fixation,1,729,,,RelaxSession
1624323252.28,stimulus,3,151,,,NoMusic
1624323252.33,stimulus,2,241,,,NoMusic
1624323252.48,stimulus,1,730,,,RelaxSession
1624323252.78,fixation,3,151,,,NoMusic
1624323252.83,fixation,2,241,,,NoMusic
1624323252.98,fixation,1,730,,,RelaxSession
1624323254.28,stimulus,3,152,,,NoMusic
1624323254.33,stimulus,2,242,,,NoMusic
1624323254.48,stimulus,1,731,,,RelaxSession
1624323254.78,fixation,3,152,,,NoMusic
1624323254.83,fixation,2,242,,,NoMusic
1624323254.98,fixation,1,731,,,RelaxSession
1624323256.28,stimulus,3,153,,,NoMusic
1624323256.33,stimulus,2,243,,,NoMusic
1624323256.48,stimulus,1,732,,,RelaxSession
1624323256.78,fixation,3,153,,,NoMusic
1624323256.83,fixation,2,243,,,NoMusic
1624323256.98,fixation,1,732,,,RelaxSession
1624323258.28,stimulus,3,154,,,NoMusic
1624323258.33,stimulus,2,244,,,NoMusic
1624323258.48,stimulus,1,733,,,RelaxSession
1624323258.78,fixation,3,154,,,NoMusic
1624323258.83,fixation,2,244,,,NoMusic
1624323258.98,fixation,1,733,,,RelaxSession
1624323260.28,stimulus,3,155,,,NoMusic
1624323260.33,stimulus,2,245,,,NoMusic
1624323260.48,stimulus,1,734,,,RelaxSession
1624323260.78,fixation,3,155,,,NoMusic
1624323260.83,fixation,2,245,,,NoMusic
1624323260.98,fixation,1,734,,,RelaxSession
1624323262.28,stimulus,3,156,,,NoMusic
1624323262.33,stimulus,2,246,,,NoMusic
1624323262.48,stimulus,1,735,,,RelaxSession
1624323262.78,fixation,3,156,,,NoMusic
1624323262.83,fixation,2,246,,,NoMusic
1624323262.98,fixation,1,735,,,RelaxSession
1624323264.28,stimulus,3,157,,,NoMusic
1624323264.33,stimulus,2,247,,,NoMusic
1624323264.48,stimulus,1,736,,,RelaxSession
1624323264.78,fixation,3,157,,,NoMusic
1624323264.83,fixation,2,247,,,NoMusic
1624323264.98,fixation,1,736,,,RelaxSession
1624323266.28,stimulus,3,158,,,NoMusic
1624323266.33,stimulus,2,248,,,NoMusic
1624323266.48,stimulus,1,737,,,RelaxSession
1624323266.78,fixation,3,158,,,NoMusic
1624323266.83,fixation,2,248,,,NoMusic
1624323266.98,fixation,1,737,,,RelaxSession
1624323268.28,stimulus,3,159,,,NoMusic
1624323268.33,stimulus,2,249,,,NoMusic
1624323268.48,stimulus,1,738,,,RelaxSession
1624323268.78,fixation,3,159,,,NoMusic
1624323268.83,fixation,2,249,,,NoMusic
1624323268.98,fixation,1,738,,,RelaxSession
1624323270.28,stimulus,3,160,,,NoMusic
1624323270.33,stimulus,2,250,,,NoMusic
1624323270.48,stimulus,1,739,,,RelaxSession
1624323270.78,fixation,3,160,,,NoMusic
1624323270.83,fixation,2,250,,,NoMusic
1624323270.98,fixation,1,739,,,RelaxSession
1624323272.28,stimulus,3,161,,,NoMusic
1624323272.33,stimulus,2,251,,,NoMusic
1624323272.48,stimulus,1,740,,,RelaxSession
1624323272.78,fixation,3,161,,,NoMusic
1624323272.83,fixation,2,251,,,NoMusic
1624323272.98,fixation,1,740,,,RelaxSession
1624323274.28,stimulus,3,162,,,NoMusic
1624323274.33,stimulus,2,252,,,NoMusic
1624323274.48,stimulus,1,741,,,RelaxSession
1624323274.78,fixation,3,162,,,NoMusic
1624323274.83,fixation,2,252,,,NoMusic
1624323274.98,fixation,1,741,,,RelaxSession
1624323276.28,stimulus,3,163,,,NoMusic
1624323276.33,stimulus,2,253,,,NoMusic
1624323276.48,stimulus,1,742,,,RelaxSession
1624323276.78,fixation,3,163,,,NoMusic
1624323276.83,fixation,2,253,,,NoMusic
1624323276.98,fixation,1,742,,,RelaxSession
1624323278.28,stimulus,3,164,,,NoMusic
1624323278.33,stimulus,2,254,,,NoMusic
1624323278.48,stimulus,1,743,,,RelaxSession
1624323278.78,fixation,3,164,,,NoMusic
1624323278.83,fixation,2,254,,,NoMusic
1624323278.98,fixation,1,743,,,RelaxSession
1624323280.28,stimulus,3,165,,,NoMusic
1624323280.33,stimulus,2,255,,,NoMusic
1624323280.48,stimulus,1,744,,,RelaxSession
1624323280.78,fixation,3,165,,,NoMusic
1624323280.83,fixation,2,255,,,NoMusic
