event_time_s,trial_type,session_idx,trial_idx,RT_s,ACC,session_type
1623718820.0,stimulus,1,1,,,PracticeSession
1623718820.5,fixation,1,1,,,PracticeSession
1623718822.0,stimulus,1,2,,,PracticeSession
1623718822.5,fixation,1,2,,,PracticeSession
1623718824.0,stimulus,1,3,,,PracticeSession
1623718824.5,fixation,1,3,,,PracticeSession
1623718826.0,stimulus,1,4,,,PracticeSession
1623718826.5,fixation,1,4,,,PracticeSession
1623718828.0,stimulus,1,5,,,PracticeSession
1623718828.5,fixation,1,5,,,PracticeSession
1623718830.0,stimulus,1,6,,,PracticeSession
1623718830.5,fixation,1,6,,,PracticeSession
1623718832.0,stimulus,1,7,,,PracticeSession
1623718832.5,fixation,1,7,,,PracticeSession
1623718834.0,stimulus,1,8,,,PracticeSession
1623718834.5,fixation,1,8,,,PracticeSession
1623718836.0,stimulus,1,9,,,PracticeSession
1623718836.5,fixation,1,9,,,PracticeSession
1623718838.0,stimulus,1,10,,,PracticeSession
1623718838.5,fixation,1,10,,,PracticeSession
1623718840.0,stimulus,1,11,,,PracticeSession
1623718840.5,fixation,1,11,,,PracticeSession
1623718842.0,stimulus,1,12,,,PracticeSession
1623718842.5,fixation,1,12,,,PracticeSession
1623718844.0,stimulus,1,13,,,PracticeSession
1623718844.5,fixation,1,13,,,PracticeSession
1623718846.0,stimulus,1,14,,,PracticeSession
1623718846.5,fixation,1,14,,,PracticeSession
1623718848.0,stimulus,1,15,,,PracticeSession
1623718848.5,fixation,1,15,,,PracticeSession
1623718850.0,stimulus,1,16,,,PracticeSession
1623718850.5,fixation,1,16,,,PracticeSession
1623718852.0,stimulus,1,17,,,PracticeSession
1623718852.5,fixation,1,17,,,PracticeSession
1623718854.0,stimulus,1,18,,,PracticeSession
1623718854.5,fixation,1,18,,,PracticeSession
1623718856.0,stimulus,1,19,,,PracticeSession
1623718856.5,fixation,1,19,,,PracticeSession
1623718858.0,stimulus,1,20,,,PracticeSession
1623718858.5,fixation,1,20,,,PracticeSession
1623718860.0,stimulus,1,21,,,PracticeSession
1623718860.5,fixation,1,21,,,PracticeSession
1623718862.0,stimulus,1,22,,,PracticeSession
1623718862.5,fixation,1,22,,,PracticeSession
1623718864.0,stimulus,1,23,,,PracticeSession
1623718864.5,fixation,1,23,,,PracticeSession
1623718866.0,stimulus,1,24,,,PracticeSession
1623718866.5,fixation,1,24,,,PracticeSession
1623718868.0,stimulus,1,25,,,PracticeSession
1623718868.5,fixation,1,25,,,PracticeSession
1623718870.0,stimulus,1,26,,,PracticeSession
1623718870.5,fixation,1,26,,,PracticeSession
1623718872.0,stimulus,1,27,,,PracticeSession
1623718872.5,fixation,1,27,,,PracticeSession
1623718874.0,stimulus,1,28,,,PracticeSession
1623718874.5,fixation,1,28,,,PracticeSession
1623718876.0,stimulus,1,29,,,PracticeSession
1623718876.5,fixation,1,29,,,PracticeSession
1623718878.0,stimulus,1,30,,,PracticeSession
1623718878.5,fixation,1,30,,,PracticeSession
1623718880.0,stimulus,1,31,,,PracticeSession
1623718880.5,fixation,1,31,,,PracticeSession
1623718882.0,stimulus,1,32,,,PracticeSession
1623718882.5,fixation,1,32,,,PracticeSession
1623718884.0,stimulus,1,33,,,PracticeSession
1623718884.5,fixation,1,33,,,PracticeSession
1623718886.0,stimulus,1,34,,,PracticeSession
1623718886.5,fixation,1,34,,,PracticeSession
1623718888.0,stimulus,1,35,,,PracticeSession
1623718888.5,fixation,1,35,,,PracticeSession
1623718890.0,stimulus,1,36,,,PracticeSession
1623718890.5,fixation,1,36,,,PracticeSession
1623718892.0,stimulus,1,37,,,PracticeSession
1623718892.5,fixation,1,37,,,PracticeSession
1623718894.0,stimulus,1,38,,,PracticeSession
1623718894.5,fixation,1,38,,,PracticeSession
1623718896.0,stimulus,1,39,,,PracticeSession
1623718896.5,fixation,1,39,,,PracticeSession
1623718898.0,stimulus,1,40,,,PracticeSession
1623718898.5,fixation,1,40,,,PracticeSession
1623718900.0,stimulus,1,41,,,PracticeSession
1623718900.5,fixation,1,41,,,PracticeSession
1623718902.0,stimulus,1,42,,,PracticeSession
1623718902.5,fixation,1,42,,,PracticeSession
1623718904.0,stimulus,1,43,,,PracticeSession
1623718904.5,fixation,1,43,,,PracticeSession
1623718906.0,stimulus,1,44,,,PracticeSession
1623718906.5,fixation,1,44,,,PracticeSession
1623718908.0,stimulus,1,45,,0.0,NoAct
1623718908.787,fixation,1,45,0.287,1.0,NoAct
1623718910.426,stimulus,1,46,0.426,1.0,NoAct
1623718910.5,fixation,1,46,,0.0,NoAct
1623718912.457,stimulus,1,47,0.457,1.0,NoAct
1623718912.5,fixation,1,47,,0.0,NoAct
1623718914.0,stimulus,1,48,,0.0,NoAct
1623718914.563,fixation,1,48,0.063,1.0,NoAct
1623718916.0,stimulus,1,49,,0.0,NoAct
1623718916.503,fixation,1,49,0.003,1.0,NoAct
1623718918.437,stimulus,1,50,0.437,1.0,NoAct
1623718918.5,fixation,1,50,,0.0,NoAct
1623718920.0,stimulus,1,51,,0.0,NoAct
1623718920.711,fixation,1,51,0.211,0.0,NoAct
1623718922.0,stimulus,1,52,,0.0,NoAct
1623718922.5,fixation,1,52,,0.0,NoAct
1623718924.402,stimulus,1,53,0.402,1.0,NoAct
1623718924.5,fixation,1,53,,0.0,NoAct
1623718926.0,stimulus,1,54,,0.0,NoAct
1623718926.646,fixation,1,54,0.146,1.0,NoAct
1623718928.0,stimulus,1,55,,0.0,NoAct
1623718928.521,fixation,1,55,0.021,1.0,NoAct
1623718930.485,stimulus,1,56,0.485,1.0,NoAct
1623718930.5,fixation,1,56,,0.0,NoAct
1623718932.478,stimulus,1,57,0.478,1.0,NoAct
1623718932.5,fixation,1,57,,0.0,NoAct
1623718934.453,stimulus,1,58,0.453,1.0,NoAct
1623718934.5,fixation,1,58,,0.0,NoAct
1623718936.0,stimulus,1,59,,0.0,NoAct
1623718936.658,fixation,1,59,0.158,1.0,NoAct
1623718938.448,stimulus,1,60,0.448,1.0,NoAct
1623718938.5,fixation,1,60,,0.0,NoAct
1623718940.0,stimulus,1,61,,0.0,NoAct
1623718940.657,fixation,1,61,0.157,1.0,NoAct
1623718942.392,stimulus,1,62,0.392,1.0,NoAct
1623718942.5,fixation,1,62,,0.0,NoAct
1623718944.379,stimulus,1,63,0.379,1.0,NoAct
1623718944.5,fixation,1,63,,0.0,NoAct
1623718946.47,stimulus,1,64,0.47,1.0,NoAct
1623718946.5,fixation,1,64,,0.0,NoAct
1623718948.404,stimulus,1,65,0.404,1.0,NoAct
1623718948.5,fixation,1,65,,0.0,NoAct
1623718950.0,stimulus,1,66,,0.0,NoAct
1623718950.5,fixation,1,66,,0.0,NoAct
1623718952.0,stimulus,1,67,,0.0,NoAct
1623718952.642,fixation,1,67,0.142,1.0,NoAct
1623718954.344,stimulus,1,68,0.344,1.0,NoAct
1623718954.5,fixation,1,68,,0.0,NoAct
1623718956.367,stimulus,1,69,0.367,1.0,NoAct
1623718956.5,fixation,1,69,,0.0,NoAct
1623718958.0,stimulus,1,70,,0.0,NoAct
1623718958.837,fixation,1,70,0.337,1.0,NoAct
1623718960.0,stimulus,1,71,,0.0,NoAct
1623718960.563,fixation,1,71,0.063,1.0,NoAct
1623718962.0,stimulus,1,72,,0.0,NoAct
1623718962.572,fixation,1,72,0.072,1.0,NoAct
1623718964.424,stimulus,1,73,0.424,1.0,NoAct
1623718964.5,fixation,1,73,,0.0,NoAct
1623718966.0,stimulus,1,74,,0.0,NoAct
1623718966.502,fixation,1,74,0.002,0.0,NoAct
1623718968.395,stimulus,1,75,0.395,1.0,NoAct
1623718968.5,fixation,1,75,,0.0,NoAct
1623718970.49,stimulus,1,76,0.49,1.0,NoAct
1623718970.5,fixation,1,76,,0.0,NoAct
1623718972.0,stimulus,1,77,,0.0,NoAct
1623718972.538,fixation,1,77,0.038,1.0,NoAct
1623718974.388,stimulus,1,78,0.388,1.0,NoAct
1623718974.5,fixation,1,78,,0.0,NoAct
1623718976.0,stimulus,1,79,,0.0,NoAct
1623718976.56,fixation,1,79,0.06,1.0,NoAct
1623718978.0,stimulus,1,80,,0.0,NoAct
1623718978.528,fixation,1,80,0.028,1.0,NoAct
1623718980.45,stimulus,1,81,0.45,1.0,NoAct
1623718980.5,fixation,1,81,,0.0,NoAct
1623718982.0,stimulus,1,82,,0.0,NoAct
1623718982.588,fixation,1,82,0.088,1.0,NoAct
1623718984.433,stimulus,1,83,0.433,1.0,NoAct
1623718984.5,fixation,1,83,,0.0,NoAct
1623718986.493,stimulus,1,84,0.493,1.0,NoAct
1623718986.5,fixation,1,84,,0.0,NoAct
1623718988.0,stimulus,1,85,,0.0,NoAct
1623718988.516,fixation,1,85,0.016,1.0,NoAct
1623718990.473,stimulus,1,86,0.473,1.0,NoAct
1623718990.5,fixation,1,86,,0.0,NoAct
1623718992.465,stimulus,1,87,0.465,1.0,NoAct
1623718992.5,fixation,1,87,,0.0,NoAct
1623718994.0,stimulus,1,88,,0.0,NoAct
1623718994.576,fixation,1,88,0.076,1.0,NoAct
1623718996.0,stimulus,1,89,,0.0,NoAct
1623718996.608,fixation,1,89,0.108,1.0,NoAct
1623718998.467,stimulus,1,90,0.467,1.0,NoAct
1623718998.5,fixation,1,90,,0.0,NoAct
1623719000.0,stimulus,1,91,,0.0,NoAct
1623719000.56,fixation,1,91,0.06,1.0,NoAct
1623719002.391,stimulus,1,92,0.391,1.0,NoAct
1623719002.5,fixation,1,92,,0.0,NoAct
1623719004.398,stimulus,1,93,0.398,0.0,NoAct
1623719004.5,fixation,1,93,,0.0,NoAct
1623719006.433,stimulus,1,94,0.433,1.0,NoAct
1623719006.5,fixation,1,94,,0.0,NoAct
1623719008.449,stimulus,1,95,0.449,1.0,NoAct
1623719008.5,fixation,1,95,,0.0,NoAct
1623719010.483,stimulus,1,96,0.483,1.0,NoAct
1623719010.5,fixation,1,96,,0.0,NoAct
1623719012.431,stimulus,1,97,0.431,1.0,NoAct
1623719012.5,fixation,1,97,,0.0,NoAct
1623719014.0,stimulus,1,98,,0.0,NoAct
1623719014.772,fixation,1,98,0.272,1.0,NoAct
1623719016.413,stimulus,1,99,0.413,1.0,NoAct
1623719016.5,fixation,1,99,,0.0,NoAct
1623719018.412,stimulus,1,100,0.412,1.0,NoAct
1623719018.5,fixation,1,100,,0.0,NoAct
1623719020.0,stimulus,1,101,,0.0,NoAct
1623719020.684,fixation,1,101,0.184,1.0,NoAct
1623719022.0,stimulus,1,102,,0.0,NoAct
1623719022.762,fixation,1,102,0.262,1.0,NoAct
1623719024.422,stimulus,1,103,0.422,1.0,NoAct
1623719024.5,fixation,1,103,,0.0,NoAct
1623719026.443,stimulus,1,104,0.443,1.0,NoAct
1623719026.5,fixation,1,104,,0.0,NoAct
1623719028.0,stimulus,1,105,,0.0,NoAct
1623719028.514,fixation,1,105,0.014,1.0,NoAct
1623719030.375,stimulus,1,106,0.375,1.0,NoAct
1623719030.5,fixation,1,106,,0.0,NoAct
1623719032.378,stimulus,1,107,0.378,1.0,NoAct
1623719032.5,fixation,1,107,,0.0,NoAct
1623719034.445,stimulus,1,108,0.445,1.0,NoAct
1623719034.5,fixation,1,108,,0.0,NoAct
1623719036.4,stimulus,1,109,0.4,1.0,NoAct
1623719036.5,fixation,1,109,,0.0,NoAct
1623719038.0,stimulus,1,110,,0.0,NoAct
1623719038.595,fixation,1,110,0.095,1.0,NoAct
1623719040.0,stimulus,1,111,,0.0,NoAct
1623719040.746,fixation,1,111,0.246,1.0,NoAct
1623719042.396,stimulus,1,112,0.396,1.0,NoAct
1623719042.5,fixation,1,112,,0.0,NoAct
1623719044.0,stimulus,1,113,,0.0,NoAct
1623719044.583,fixation,1,113,0.083,1.0,NoAct
1623719046.406,stimulus,1,114,0.406,1.0,NoAct
1623719046.5,fixation,1,114,,0.0,NoAct
1623719048.441,stimulus,1,115,0.441,1.0,NoAct
1623719048.5,fixation,1,115,,0.0,NoAct
1623719050.397,stimulus,1,116,0.397,1.0,NoAct
1623719050.5,fixation,1,116,,0.0,NoAct
1623719052.416,stimulus,1,117,0.416,1.0,NoAct
1623719052.5,fixation,1,117,,0.0,NoAct
1623719054.495,stimulus,1,118,0.495,1.0,NoAct
1623719054.5,fixation,1,118,,0.0,NoAct
1623719056.0,stimulus,1,119,,0.0,NoAct
1623719056.621,fixation,1,119,0.121,1.0,NoAct
1623719058.0,stimulus,1,120,,0.0,NoAct
1623719058.772,fixation,1,120,0.272,1.0,NoAct
1623719060.0,stimulus,1,121,,0.0,NoAct
1623719060.678,fixation,1,121,0.178,1.0,NoAct
1623719062.439,stimulus,1,122,0.439,1.0,NoAct
1623719062.5,fixation,1,122,,0.0,NoAct
1623719064.425,stimulus,1,123,0.425,1.0,NoAct
1623719064.5,fixation,1,123,,0.0,NoAct
1623719066.422,stimulus,1,124,0.422,1.0,NoAct
1623719066.5,fixation,1,124,,0.0,NoAct
1623719068.428,stimulus,1,125,0.428,1.0,NoAct
1623719068.5,fixation,1,125,,0.0,NoAct
1623719070.0,stimulus,1,126,,0.0,NoAct
1623719070.534,fixation,1,126,0.034,1.0,NoAct
1623719072.0,stimulus,1,127,,0.0,NoAct
1623719072.546,fixation,1,127,0.046,1.0,NoAct
1623719074.0,stimulus,1,128,,0.0,NoAct
1623719074.514,fixation,1,128,0.014,1.0,NoAct
1623719076.0,stimulus,1,129,,0.0,NoAct
1623719076.557,fixation,1,129,0.057,1.0,NoAct
1623719078.448,stimulus,1,130,0.448,1.0,NoAct
1623719078.5,fixation,1,130,,0.0,NoAct
1623719080.386,stimulus,1,131,0.386,1.0,NoAct
1623719080.5,fixation,1,131,,0.0,NoAct
1623719082.433,stimulus,1,132,0.433,1.0,NoAct
1623719082.5,fixation,1,132,,0.0,NoAct
1623719084.0,stimulus,1,133,,0.0,NoAct
1623719084.64,fixation,1,133,0.14,1.0,NoAct
1623719086.0,stimulus,1,134,,0.0,NoAct
1623719086.501,fixation,1,134,0.001,1.0,NoAct
1623719088.386,stimulus,1,135,0.386,1.0,NoAct
1623719088.5,fixation,1,135,,0.0,NoAct
1623719090.415,stimulus,1,136,0.415,1.0,NoAct
1623719090.5,fixation,1,136,,0.0,NoAct
1623719092.444,stimulus,1,137,0.444,1.0,NoAct
1623719092.5,fixation,1,137,,0.0,NoAct
1623719094.424,stimulus,1,138,0.424,1.0,NoAct
1623719094.5,fixation,1,138,,0.0,NoAct
1623719096.0,stimulus,1,139,,0.0,NoAct
1623719096.5,fixation,1,139,,0.0,NoAct
1623719098.384,stimulus,1,140,0.384,1.0,NoAct
1623719098.5,fixation,1,140,,0.0,NoAct
1623719100.478,stimulus,1,141,0.478,1.0,NoAct
1623719100.5,fixation,1,141,,0.0,NoAct
1623719102.459,stimulus,1,142,0.459,1.0,NoAct
1623719102.5,fixation,1,142,,0.0,NoAct
1623719104.437,stimulus,1,143,0.437,1.0,NoAct
1623719104.5,fixation,1,143,,0.0,NoAct
1623719106.418,stimulus,1,144,0.418,1.0,NoAct
1623719106.5,fixation,1,144,,0.0,NoAct
1623719108.487,stimulus,1,145,0.487,0.0,NoAct
1623719108.5,fixation,1,145,,0.0,NoAct
1623719110.417,stimulus,1,146,0.417,1.0,NoAct
1623719110.5,fixation,1,146,,0.0,NoAct
1623719112.399,stimulus,1,147,0.399,0.0,NoAct
1623719112.5,fixation,1,147,,0.0,NoAct
1623719114.0,stimulus,1,148,,0.0,NoAct
1623719114.526,fixation,1,148,0.026,1.0,NoAct
1623719116.0,stimulus,1,149,,0.0,NoAct
1623719116.578,fixation,1,149,0.078,1.0,NoAct
1623719118.465,stimulus,1,150,0.465,1.0,NoAct
1623719118.5,fixation,1,150,,0.0,NoAct
1623719120.0,stimulus,1,151,,0.0,NoAct
1623719120.628,fixation,1,151,0.128,1.0,NoAct
1623719122.402,stimulus,1,152,0.402,1.0,NoAct
1623719122.5,fixation,1,152,,0.0,NoAct
1623719124.0,stimulus,1,153,,0.0,NoAct
1623719124.519,fixation,1,153,0.019,1.0,NoAct
1623719126.476,stimulus,1,154,0.476,1.0,NoAct
1623719126.5,fixation,1,154,,0.0,NoAct
1623719128.357,stimulus,1,155,0.357,1.0,NoAct
1623719128.5,fixation,1,155,,0.0,NoAct
1623719130.468,stimulus,1,156,0.468,1.0,NoAct
1623719130.5,fixation,1,156,,0.0,NoAct
1623719132.401,stimulus,1,157,0.401,1.0,NoAct
1623719132.5,fixation,1,157,,0.0,NoAct
1623719134.0,stimulus,1,158,,0.0,NoAct
1623719134.502,fixation,1,158,0.002,1.0,NoAct
1623719136.488,stimulus,1,159,0.488,1.0,NoAct
1623719136.5,fixation,1,159,,0.0,NoAct
1623719138.38,stimulus,1,160,0.38,1.0,NoAct
1623719138.5,fixation,1,160,,0.0,NoAct
1623719140.342,stimulus,1,161,0.342,1.0,NoAct
1623719140.5,fixation,1,161,,0.0,NoAct
1623719142.46,stimulus,1,162,0.46,1.0,NoAct
1623719142.5,fixation,1,162,,0.0,NoAct
1623719144.0,stimulus,1,163,,0.0,NoAct
1623719144.587,fixation,1,163,0.087,1.0,NoAct
1623719146.398,stimulus,1,164,0.398,1.0,NoAct
1623719146.5,fixation,1,164,,0.0,NoAct
1623719148.0,stimulus,1,165,,0.0,NoAct
1623719148.608,fixation,1,165,0.108,1.0,NoAct
1623719150.486,stimulus,1,166,0.486,1.0,NoAct
1623719150.5,fixation,1,166,,0.0,NoAct
1623719152.396,stimulus,1,167,0.396,1.0,NoAct
1623719152.5,fixation,1,167,,0.0,NoAct
1623719154.417,stimulus,1,168,0.417,1.0,NoAct
1623719154.5,fixation,1,168,,0.0,NoAct
1623719156.471,stimulus,1,169,0.471,1.0,NoAct
1623719156.5,fixation,1,169,,0.0,NoAct
1623719158.422,stimulus,1,170,0.422,1.0,NoAct
1623719158.5,fixation,1,170,,0.0,NoAct
1623719160.381,stimulus,1,171,0.381,1.0,NoAct
1623719160.5,fixation,1,171,,0.0,NoAct
1623719162.0,stimulus,1,172,,0.0,NoAct
1623719162.605,fixation,1,172,0.105,1.0,NoAct
1623719164.401,stimulus,1,173,0.401,1.0,NoAct
1623719164.5,fixation,1,173,,0.0,NoAct
1623719166.431,stimulus,1,174,0.431,1.0,NoAct
1623719166.5,fixation,1,174,,0.0,NoAct
1623719168.0,stimulus,1,175,,0.0,NoAct
1623719168.784,fixation,1,175,0.284,0.0,NoAct
1623719170.0,stimulus,1,176,,0.0,NoAct
1623719170.913,fixation,1,176,0.413,1.0,NoAct
1623719172.0,stimulus,1,177,,0.0,NoAct
1623719172.771,fixation,1,177,0.271,1.0,NoAct
1623719174.44,stimulus,1,178,0.44,1.0,NoAct
1623719174.5,fixation,1,178,,0.0,NoAct
1623719176.441,stimulus,1,179,0.441,1.0,NoAct
1623719176.5,fixation,1,179,,0.0,NoAct
1623719178.385,stimulus,1,180,0.385,1.0,NoAct
1623719178.5,fixation,1,180,,0.0,NoAct
1623719180.45,stimulus,1,181,0.45,1.0,NoAct
1623719180.5,fixation,1,181,,0.0,NoAct
1623719182.0,stimulus,1,182,,0.0,NoAct
1623719182.508,fixation,1,182,0.008,1.0,NoAct
1623719184.407,stimulus,1,183,0.407,1.0,NoAct
1623719184.5,fixation,1,183,,0.0,NoAct
1623719186.431,stimulus,1,184,0.431,1.0,NoAct
1623719186.5,fixation,1,184,,0.0,NoAct
1623719188.417,stimulus,1,185,0.417,1.0,NoAct
1623719188.5,fixation,1,185,,0.0,NoAct
1623719190.0,stimulus,1,186,,0.0,NoAct
1623719190.709,fixation,1,186,0.209,1.0,NoAct
1623719192.45,stimulus,1,187,0.45,1.0,NoAct
1623719192.5,fixation,1,187,,0.0,NoAct
1623719194.431,stimulus,1,188,0.431,1.0,NoAct
1623719194.5,fixation,1,188,,0.0,NoAct
1623719196.378,stimulus,1,189,0.378,1.0,NoAct
1623719196.5,fixation,1,189,,0.0,NoAct
1623719198.0,stimulus,1,190,,0.0,NoAct
1623719198.523,fixation,1,190,0.023,1.0,NoAct
1623719200.398,stimulus,1,191,0.398,1.0,NoAct
1623719200.5,fixation,1,191,,0.0,NoAct
1623719202.369,stimulus,1,192,0.369,1.0,NoAct
1623719202.5,fixation,1,192,,0.0,NoAct
1623719204.478,stimulus,1,193,0.478,1.0,NoAct
1623719204.5,fixation,1,193,,0.0,NoAct
1623719206.398,stimulus,1,194,0.398,1.0,NoAct
1623719206.5,fixation,1,194,,0.0,NoAct
1623719208.0,stimulus,1,195,,0.0,NoAct
1623719208.53,fixation,1,195,0.03,1.0,NoAct
1623719210.426,stimulus,1,196,0.426,1.0,NoAct
1623719210.5,fixation,1,196,,0.0,NoAct
1623719212.352,stimulus,1,197,0.352,1.0,NoAct
1623719212.5,fixation,1,197,,0.0,NoAct
1623719214.439,stimulus,1,198,0.439,1.0,NoAct
1623719214.5,fixation,1,198,,0.0,NoAct
1623719216.0,stimulus,1,199,,0.0,NoAct
1623719216.533,fixation,1,199,0.033,1.0,NoAct
1623719218.273,stimulus,1,200,0.273,1.0,NoAct
1623719218.5,fixation,1,200,,0.0,NoAct
1623719220.349,stimulus,1,201,0.349,1.0,NoAct
1623719220.5,fixation,1,201,,0.0,NoAct
1623719222.366,stimulus,1,202,0.366,1.0,NoAct
1623719222.5,fixation,1,202,,0.0,NoAct
1623719224.378,stimulus,1,203,0.378,1.0,NoAct
1623719224.5,fixation,1,203,,0.0,NoAct
1623719226.353,stimulus,1,204,0.353,1.0,NoAct
1623719226.5,fixation,1,204,,0.0,NoAct
1623719228.0,stimulus,1,205,,0.0,NoAct
1623719228.561,fixation,1,205,0.061,1.0,NoAct
1623719230.0,stimulus,1,206,,0.0,NoAct
1623719230.639,fixation,1,206,0.139,1.0,NoAct
1623719232.0,stimulus,1,207,,0.0,NoAct
1623719232.619,fixation,1,207,0.119,1.0,NoAct
1623719234.0,stimulus,1,208,,0.0,NoAct
1623719234.576,fixation,1,208,0.076,1.0,NoAct
1623719236.444,stimulus,1,209,0.444,1.0,NoAct
1623719236.5,fixation,1,209,,0.0,NoAct
1623719238.0,stimulus,1,210,,0.0,NoAct
1623719238.518,fixation,1,210,0.018,1.0,NoAct
1623719240.0,stimulus,1,211,,0.0,NoAct
1623719240.544,fixation,1,211,0.044,1.0,NoAct
1623719242.368,stimulus,1,212,0.368,1.0,NoAct
1623719242.5,fixation,1,212,,0.0,NoAct
1623719244.0,stimulus,1,213,,0.0,NoAct
1623719244.617,fixation,1,213,0.117,1.0,NoAct
1623719246.0,stimulus,1,214,,0.0,NoAct
1623719246.526,fixation,1,214,0.026,1.0,NoAct
1623719248.0,stimulus,1,215,,0.0,NoAct
1623719248.539,fixation,1,215,0.039,1.0,NoAct
1623719250.353,stimulus,1,216,0.353,1.0,NoAct
1623719250.5,fixation,1,216,,0.0,NoAct
1623719252.392,stimulus,1,217,0.392,0.0,NoAct
1623719252.5,fixation,1,217,,0.0,NoAct
1623719254.0,stimulus,1,218,,0.0,NoAct
1623719254.535,fixation,1,218,0.035,1.0,NoAct
1623719256.0,stimulus,1,219,,0.0,NoAct
1623719256.623,fixation,1,219,0.123,1.0,NoAct
1623719258.0,stimulus,1,220,,0.0,NoAct
1623719258.76,fixation,1,220,0.26,1.0,NoAct
1623719260.0,stimulus,1,221,,,NoAct
1623719260.5,fixation,1,221,,,NoAct
1623719262.0,stimulus,1,222,,0.0,NoAct
1623719262.53,fixation,1,222,0.03,1.0,NoAct
1623719264.355,stimulus,1,223,0.355,1.0,NoAct
1623719264.5,fixation,1,223,,0.0,NoAct
1623719266.419,stimulus,1,224,0.419,1.0,NoAct
1623719266.5,fixation,1,224,,0.0,NoAct
1623719268.419,stimulus,1,225,0.419,1.0,NoAct
1623719268.5,fixation,1,225,,0.0,NoAct
1623719270.406,stimulus,1,226,0.406,1.0,NoAct
1623719270.5,fixation,1,226,,0.0,NoAct
1623719272.403,stimulus,1,227,0.403,1.0,NoAct
1623719272.5,fixation,1,227,,0.0,NoAct
1623719274.48,stimulus,1,228,0.48,1.0,NoAct
1623719274.5,fixation,1,228,,0.0,NoAct
1623719276.49,stimulus,1,229,0.49,1.0,NoAct
1623719276.5,fixation,1,229,,0.0,NoAct
1623719278.425,stimulus,1,230,0.425,0.0,NoAct
1623719278.5,fixation,1,230,,0.0,NoAct
1623719280.436,stimulus,1,231,0.436,1.0,NoAct
1623719280.5,fixation,1,231,,0.0,NoAct
1623719282.435,stimulus,1,232,0.435,1.0,NoAct
1623719282.5,fixation,1,232,,0.0,NoAct
1623719284.366,stimulus,1,233,0.366,0.0,NoAct
1623719284.5,fixation,1,233,,0.0,NoAct
1623719286.0,stimulus,1,234,,0.0,NoAct
1623719286.564,fixation,1,234,0.064,1.0,NoAct
1623719288.388,stimulus,1,235,0.388,0.0,NoAct
1623719288.5,fixation,1,235,,0.0,NoAct
1623719290.344,stimulus,1,236,0.344,1.0,NoAct
1623719290.5,fixation,1,236,,0.0,NoAct
1623719292.48,stimulus,1,237,0.48,1.0,NoAct
1623719292.5,fixation,1,237,,0.0,NoAct
1623719294.364,stimulus,1,238,0.364,1.0,NoAct
1623719294.5,fixation,1,238,,0.0,NoAct
1623719296.0,stimulus,1,239,,0.0,NoAct
1623719296.589,fixation,1,239,0.089,1.0,NoAct
1623719298.407,stimulus,1,240,0.407,1.0,NoAct
1623719298.5,fixation,1,240,,0.0,NoAct
1623719300.404,stimulus,1,241,0.404,1.0,NoAct
1623719300.5,fixation,1,241,,0.0,NoAct
1623719302.0,stimulus,1,242,,0.0,NoAct
1623719302.598,fixation,1,242,0.098,1.0,NoAct
1623719304.349,stimulus,1,243,0.349,1.0,NoAct
1623719304.5,fixation,1,243,,0.0,NoAct
1623719306.0,stimulus,1,244,,0.0,NoAct
1623719306.996,fixation,1,244,0.496,1.0,NoAct
1623719308.434,stimulus,1,245,0.434,1.0,NoAct
1623719308.5,fixation,1,245,,0.0,NoAct
1623719310.373,stimulus,1,246,0.373,1.0,NoAct
1623719310.5,fixation,1,246,,0.0,NoAct
1623719312.363,stimulus,1,247,0.363,1.0,NoAct
1623719312.5,fixation,1,247,,0.0,NoAct
1623719314.416,stimulus,1,248,0.416,1.0,NoAct
1623719314.5,fixation,1,248,,0.0,NoAct
1623719316.404,stimulus,1,249,0.404,1.0,NoAct
1623719316.5,fixation,1,249,,0.0,NoAct
1623719318.385,stimulus,1,250,0.385,1.0,NoAct
1623719318.5,fixation,1,250,,0.0,NoAct
1623719320.462,stimulus,1,251,0.462,1.0,NoAct
1623719320.5,fixation,1,251,,0.0,NoAct
1623719322.412,stimulus,1,252,0.412,1.0,NoAct
1623719322.5,fixation,1,252,,0.0,NoAct
1623719324.397,stimulus,1,253,0.397,1.0,NoAct
1623719324.5,fixation,1,253,,0.0,NoAct
1623719326.37,stimulus,1,254,0.37,1.0,NoAct
1623719326.5,fixation,1,254,,0.0,NoAct
1623719328.354,stimulus,1,255,0.354,1.0,NoAct
1623719328.5,fixation,1,255,,0.0,NoAct
1623719330.382,stimulus,1,256,0.382,0.0,NoAct
1623719330.5,fixation,1,256,,0.0,NoAct
1623719332.0,stimulus,1,257,,0.0,NoAct
1623719332.555,fixation,1,257,0.055,1.0,NoAct
1623719334.396,stimulus,1,258,0.396,1.0,NoAct
1623719334.5,fixation,1,258,,0.0,NoAct
1623719336.499,stimulus,1,259,0.499,1.0,NoAct
1623719336.5,fixation,1,259,,0.0,NoAct
1623719338.0,stimulus,1,260,,0.0,NoAct
1623719338.512,fixation,1,260,0.012,1.0,NoAct
1623719340.424,stimulus,1,261,0.424,1.0,NoAct
1623719340.5,fixation,1,261,,0.0,NoAct
1623719342.0,stimulus,1,262,,0.0,NoAct
1623719342.585,fixation,1,262,0.085,1.0,NoAct
1623719344.381,stimulus,1,263,0.381,1.0,NoAct
1623719344.5,fixation,1,263,,0.0,NoAct
1623719346.451,stimulus,1,264,0.451,1.0,NoAct
1623719346.5,fixation,1,264,,0.0,NoAct
1623719348.0,stimulus,1,265,,0.0,NoAct
1623719348.538,fixation,1,265,0.038,1.0,NoAct
1623719350.0,stimulus,1,266,,0.0,NoAct
1623719350.595,fixation,1,266,0.095,1.0,NoAct
1623719352.0,stimulus,1,267,,0.0,NoAct
1623719352.504,fixation,1,267,0.004,1.0,NoAct
1623719354.442,stimulus,1,268,0.442,1.0,NoAct
1623719354.5,fixation,1,268,,0.0,NoAct
1623719356.416,stimulus,1,269,0.416,1.0,NoAct
1623719356.5,fixation,1,269,,0.0,NoAct
1623719358.36,stimulus,1,270,0.36,1.0,NoAct
1623719358.5,fixation,1,270,,0.0,NoAct
1623719360.42,stimulus,1,271,0.42,1.0,NoAct
1623719360.5,fixation,1,271,,0.0,NoAct
1623719362.405,stimulus,1,272,0.405,1.0,NoAct
1623719362.5,fixation,1,272,,0.0,NoAct
1623719364.38,stimulus,1,273,0.38,1.0,NoAct
1623719364.5,fixation,1,273,,0.0,NoAct
1623719366.372,stimulus,1,274,0.372,1.0,NoAct
1623719366.5,fixation,1,274,,0.0,NoAct
1623719368.403,stimulus,1,275,0.403,1.0,NoAct
1623719368.5,fixation,1,275,,0.0,NoAct
1623719370.448,stimulus,1,276,0.448,1.0,NoAct
1623719370.5,fixation,1,276,,0.0,NoAct
1623719372.421,stimulus,1,277,0.421,1.0,NoAct
1623719372.5,fixation,1,277,,0.0,NoAct
1623719374.0,stimulus,1,278,,0.0,NoAct
1623719374.5,fixation,1,278,,0.0,NoAct
1623719376.41,stimulus,1,279,0.41,1.0,NoAct
1623719376.5,fixation,1,279,,0.0,NoAct
1623719378.0,stimulus,1,280,,0.0,NoAct
1623719378.564,fixation,1,280,0.064,1.0,NoAct
1623719380.423,stimulus,1,281,0.423,1.0,NoAct
1623719380.5,fixation,1,281,,0.0,NoAct
1623719382.385,stimulus,1,282,0.385,1.0,NoAct
1623719382.5,fixation,1,282,,0.0,NoAct
1623719384.368,stimulus,1,283,0.368,1.0,NoAct
1623719384.5,fixation,1,283,,0.0,NoAct
1623719386.36,stimulus,1,284,0.36,1.0,NoAct
1623719386.5,fixation,1,284,,0.0,NoAct
1623719388.372,stimulus,1,285,0.372,1.0,NoAct
1623719388.5,fixation,1,285,,0.0,NoAct
1623719390.443,stimulus,1,286,0.443,1.0,NoAct
1623719390.5,fixation,1,286,,0.0,NoAct
1623719392.361,stimulus,1,287,0.361,1.0,NoAct
1623719392.5,fixation,1,287,,0.0,NoAct
1623719394.0,stimulus,1,288,,0.0,NoAct
1623719394.523,fixation,1,288,0.023,1.0,NoAct
1623719396.48,stimulus,1,289,0.48,1.0,NoAct
1623719396.5,fixation,1,289,,0.0,NoAct
1623719398.382,stimulus,1,290,0.382,1.0,NoAct
1623719398.5,fixation,1,290,,0.0,NoAct
1623719400.0,stimulus,1,291,,0.0,NoAct
1623719400.555,fixation,1,291,0.055,1.0,NoAct
1623719402.391,stimulus,1,292,0.391,1.0,NoAct
1623719402.5,fixation,1,292,,0.0,NoAct
1623719404.412,stimulus,1,293,0.412,1.0,NoAct
1623719404.5,fixation,1,293,,0.0,NoAct
1623719406.462,stimulus,1,294,0.462,0.0,NoAct
1623719406.5,fixation,1,294,,0.0,NoAct
1623719408.371,stimulus,1,295,0.371,1.0,NoAct
1623719408.5,fixation,1,295,,0.0,NoAct
1623719410.385,stimulus,1,296,0.385,1.0,NoAct
1623719410.5,fixation,1,296,,0.0,NoAct
1623719412.408,stimulus,1,297,0.408,1.0,NoAct
1623719412.5,fixation,1,297,,0.0,NoAct
1623719414.402,stimulus,1,298,0.402,1.0,NoAct
1623719414.5,fixation,1,298,,0.0,NoAct
1623719416.408,stimulus,1,299,0.408,1.0,NoAct
1623719416.5,fixation,1,299,,0.0,NoAct
1623719418.0,stimulus,1,300,,0.0,NoAct
1623719418.513,fixation,1,300,0.013,1.0,NoAct
1623719420.49,stimulus,1,301,0.49,1.0,NoAct
1623719420.5,fixation,1,301,,0.0,NoAct
1623719422.431,stimulus,1,302,0.431,1.0,NoAct
1623719422.5,fixation,1,302,,0.0,NoAct
1623719424.0,stimulus,1,303,,0.0,NoAct
1623719424.572,fixation,1,303,0.072,1.0,NoAct
1623719426.372,stimulus,1,304,0.372,1.0,NoAct
1623719426.5,fixation,1,304,,0.0,NoAct
1623719428.372,stimulus,1,305,0.372,1.0,NoAct
1623719428.5,fixation,1,305,,0.0,NoAct
1623719430.436,stimulus,1,306,0.436,1.0,NoAct
1623719430.5,fixation,1,306,,0.0,NoAct
1623719432.348,stimulus,1,307,0.348,1.0,NoAct
1623719432.5,fixation,1,307,,0.0,NoAct
1623719434.473,stimulus,1,308,0.473,1.0,NoAct
1623719434.5,fixation,1,308,,0.0,NoAct
1623719436.377,stimulus,1,309,0.377,1.0,NoAct
1623719436.5,fixation,1,309,,0.0,NoAct
1623719438.0,stimulus,1,310,,0.0,NoAct
1623719438.635,fixation,1,310,0.135,1.0,NoAct
1623719440.449,stimulus,1,311,0.449,1.0,NoAct
1623719440.5,fixation,1,311,,0.0,NoAct
1623719442.432,stimulus,1,312,0.432,1.0,NoAct
1623719442.5,fixation,1,312,,0.0,NoAct
1623719444.49,stimulus,1,313,0.49,1.0,NoAct
1623719444.5,fixation,1,313,,0.0,NoAct
1623719446.379,stimulus,1,314,0.379,1.0,NoAct
1623719446.5,fixation,1,314,,0.0,NoAct
1623719448.426,stimulus,1,315,0.426,1.0,NoAct
1623719448.5,fixation,1,315,,0.0,NoAct
1623719450.0,stimulus,1,316,,0.0,NoAct
1623719450.531,fixation,1,316,0.031,1.0,NoAct
1623719452.0,stimulus,1,317,,0.0,NoAct
1623719452.512,fixation,1,317,0.012,1.0,NoAct
1623719454.445,stimulus,1,318,0.445,1.0,NoAct
1623719454.5,fixation,1,318,,0.0,NoAct
1623719456.0,stimulus,1,319,,0.0,NoAct
1623719456.556,fixation,1,319,0.056,0.0,NoAct
1623719458.406,stimulus,1,320,0.406,1.0,NoAct
1623719458.5,fixation,1,320,,0.0,NoAct
1623719460.0,stimulus,1,321,,0.0,NoAct
1623719460.541,fixation,1,321,0.041,1.0,NoAct
1623719462.443,stimulus,1,322,0.443,1.0,NoAct
1623719462.5,fixation,1,322,,0.0,NoAct
1623719464.451,stimulus,1,323,0.451,1.0,NoAct
1623719464.5,fixation,1,323,,0.0,NoAct
1623719466.351,stimulus,1,324,0.351,1.0,NoAct
1623719466.5,fixation,1,324,,0.0,NoAct
1623719468.395,stimulus,1,325,0.395,1.0,NoAct
1623719468.5,fixation,1,325,,0.0,NoAct
1623719470.391,stimulus,1,326,0.391,1.0,NoAct
1623719470.5,fixation,1,326,,0.0,NoAct
1623719472.463,stimulus,1,327,0.463,1.0,NoAct
1623719472.5,fixation,1,327,,0.0,NoAct
1623719474.492,stimulus,1,328,0.492,1.0,NoAct
1623719474.5,fixation,1,328,,0.0,NoAct
1623719476.39,stimulus,1,329,0.39,1.0,NoAct
1623719476.5,fixation,1,329,,0.0,NoAct
1623719478.0,stimulus,1,330,,0.0,NoAct
1623719478.574,fixation,1,330,0.074,1.0,NoAct
1623719480.0,stimulus,1,331,,0.0,NoAct
1623719480.58,fixation,1,331,0.08,1.0,NoAct
1623719482.0,stimulus,1,332,,0.0,NoAct
1623719482.844,fixation,1,332,0.344,1.0,NoAct
1623719484.463,stimulus,1,333,0.463,1.0,NoAct
1623719484.5,fixation,1,333,,0.0,NoAct
1623719486.401,stimulus,1,334,0.401,1.0,NoAct
1623719486.5,fixation,1,334,,0.0,NoAct
1623719488.421,stimulus,1,335,0.421,1.0,NoAct
1623719488.5,fixation,1,335,,0.0,NoAct
1623719490.367,stimulus,1,336,0.367,1.0,NoAct
1623719490.5,fixation,1,336,,0.0,NoAct
1623719492.354,stimulus,1,337,0.354,1.0,NoAct
1623719492.5,fixation,1,337,,0.0,NoAct
1623719494.368,stimulus,1,338,0.368,1.0,NoAct
1623719494.5,fixation,1,338,,0.0,NoAct
1623719496.451,stimulus,1,339,0.451,0.0,NoAct
1623719496.5,fixation,1,339,,0.0,NoAct
1623719498.351,stimulus,1,340,0.351,1.0,NoAct
1623719498.5,fixation,1,340,,0.0,NoAct
1623719500.322,stimulus,1,341,0.322,1.0,NoAct
1623719500.5,fixation,1,341,,0.0,NoAct
1623719502.342,stimulus,1,342,0.342,1.0,NoAct
1623719502.5,fixation,1,342,,0.0,NoAct
1623719504.372,stimulus,1,343,0.372,1.0,NoAct
1623719504.5,fixation,1,343,,0.0,NoAct
1623719506.377,stimulus,1,344,0.377,1.0,NoAct
1623719506.5,fixation,1,344,,0.0,NoAct
1623719508.468,stimulus,1,345,0.468,1.0,NoAct
1623719508.5,fixation,1,345,,0.0,NoAct
1623719510.45,stimulus,1,346,0.45,1.0,NoAct
1623719510.5,fixation,1,346,,0.0,NoAct
1623719512.387,stimulus,1,347,0.387,1.0,NoAct
1623719512.5,fixation,1,347,,0.0,NoAct
1623719514.368,stimulus,1,348,0.368,1.0,NoAct
1623719514.5,fixation,1,348,,0.0,NoAct
1623719516.372,stimulus,1,349,0.372,1.0,NoAct
1623719516.5,fixation,1,349,,0.0,NoAct
1623719518.431,stimulus,1,350,0.431,1.0,NoAct
1623719518.5,fixation,1,350,,0.0,NoAct
1623719520.393,stimulus,1,351,0.393,1.0,NoAct
1623719520.5,fixation,1,351,,0.0,NoAct
1623719522.405,stimulus,1,352,0.405,1.0,NoAct
1623719522.5,fixation,1,352,,0.0,NoAct
1623719524.345,stimulus,1,353,0.345,1.0,NoAct
1623719524.5,fixation,1,353,,0.0,NoAct
1623719526.0,stimulus,1,354,,0.0,NoAct
1623719526.524,fixation,1,354,0.024,1.0,NoAct
1623719528.346,stimulus,1,355,0.346,1.0,NoAct
1623719528.5,fixation,1,355,,0.0,NoAct
1623719530.402,stimulus,1,356,0.402,1.0,NoAct
1623719530.5,fixation,1,356,,0.0,NoAct
1623719532.0,stimulus,1,357,,0.0,NoAct
1623719532.52,fixation,1,357,0.02,1.0,NoAct
1623719534.442,stimulus,1,358,0.442,1.0,NoAct
1623719534.5,fixation,1,358,,0.0,NoAct
1623719536.46,stimulus,1,359,0.46,1.0,NoAct
1623719536.5,fixation,1,359,,0.0,NoAct
1623719538.426,stimulus,1,360,0.426,1.0,NoAct
1623719538.5,fixation,1,360,,0.0,NoAct
1623719540.46,stimulus,1,361,0.46,1.0,NoAct
1623719540.5,fixation,1,361,,0.0,NoAct
1623719542.423,stimulus,1,362,0.423,1.0,NoAct
1623719542.5,fixation,1,362,,0.0,NoAct
1623719544.408,stimulus,1,363,0.408,1.0,NoAct
1623719544.5,fixation,1,363,,0.0,NoAct
1623719546.38,stimulus,1,364,0.38,0.0,NoAct
1623719546.5,fixation,1,364,,0.0,NoAct
1623719548.477,stimulus,1,365,0.477,1.0,NoAct
1623719548.5,fixation,1,365,,0.0,NoAct
1623719550.429,stimulus,1,366,0.429,1.0,NoAct
1623719550.5,fixation,1,366,,0.0,NoAct
1623719552.394,stimulus,1,367,0.394,1.0,NoAct
1623719552.5,fixation,1,367,,0.0,NoAct
1623719554.374,stimulus,1,368,0.374,1.0,NoAct
1623719554.5,fixation,1,368,,0.0,NoAct
1623719556.435,stimulus,1,369,0.435,1.0,NoAct
1623719556.5,fixation,1,369,,0.0,NoAct
1623719558.393,stimulus,1,370,0.393,1.0,NoAct
1623719558.5,fixation,1,370,,0.0,NoAct
1623719560.492,stimulus,1,371,0.492,1.0,NoAct
1623719560.5,fixation,1,371,,0.0,NoAct
1623719562.413,stimulus,1,372,0.413,1.0,NoAct
1623719562.5,fixation,1,372,,0.0,NoAct
1623719564.421,stimulus,1,373,0.421,1.0,NoAct
1623719564.5,fixation,1,373,,0.0,NoAct
1623719566.393,stimulus,1,374,0.393,1.0,NoAct
1623719566.5,fixation,1,374,,0.0,NoAct
1623719568.395,stimulus,1,375,0.395,1.0,NoAct
1623719568.5,fixation,1,375,,0.0,NoAct
1623719570.0,stimulus,1,376,,0.0,NoAct
1623719570.592,fixation,1,376,0.092,1.0,NoAct
1623719572.408,stimulus,1,377,0.408,1.0,NoAct
1623719572.5,fixation,1,377,,0.0,NoAct
1623719574.417,stimulus,1,378,0.417,1.0,NoAct
1623719574.5,fixation,1,378,,0.0,NoAct
1623719576.492,stimulus,1,379,0.492,1.0,NoAct
1623719576.5,fixation,1,379,,0.0,NoAct
1623719578.462,stimulus,1,380,0.462,1.0,NoAct
1623719578.5,fixation,1,380,,0.0,NoAct
1623719580.0,stimulus,1,381,,0.0,NoAct
1623719580.546,fixation,1,381,0.046,1.0,NoAct
1623719582.357,stimulus,1,382,0.357,1.0,NoAct
1623719582.5,fixation,1,382,,0.0,NoAct
1623719584.412,stimulus,1,383,0.412,1.0,NoAct
1623719584.5,fixation,1,383,,0.0,NoAct
1623719586.344,stimulus,1,384,0.344,1.0,NoAct
1623719586.5,fixation,1,384,,0.0,NoAct
1623719588.384,stimulus,1,385,0.384,1.0,NoAct
1623719588.5,fixation,1,385,,0.0,NoAct
1623719590.459,stimulus,1,386,0.459,1.0,NoAct
1623719590.5,fixation,1,386,,0.0,NoAct
1623719592.37,stimulus,1,387,0.37,1.0,NoAct
1623719592.5,fixation,1,387,,0.0,NoAct
1623719594.377,stimulus,1,388,0.377,1.0,NoAct
1623719594.5,fixation,1,388,,0.0,NoAct
1623719596.354,stimulus,1,389,0.354,1.0,NoAct
1623719596.5,fixation,1,389,,0.0,NoAct
1623719598.365,stimulus,1,390,0.365,1.0,NoAct
1623719598.5,fixation,1,390,,0.0,NoAct
1623719600.353,stimulus,1,391,0.353,1.0,NoAct
1623719600.5,fixation,1,391,,0.0,NoAct
1623719602.363,stimulus,1,392,0.363,1.0,NoAct
1623719602.5,fixation,1,392,,0.0,NoAct
1623719604.36,stimulus,1,393,0.36,1.0,NoAct
1623719604.5,fixation,1,393,,0.0,NoAct
1623719606.326,stimulus,1,394,0.326,1.0,NoAct
1623719606.5,fixation,1,394,,0.0,NoAct
1623719608.394,stimulus,1,395,0.394,1.0,NoAct
1623719608.5,fixation,1,395,,0.0,NoAct
1623719610.393,stimulus,1,396,0.393,1.0,NoAct
1623719610.5,fixation,1,396,,0.0,NoAct
1623719612.401,stimulus,1,397,0.401,1.0,NoAct
1623719612.5,fixation,1,397,,0.0,NoAct
1623719614.0,stimulus,1,398,,,PerfumeSession
1623719614.5,fixation,1,398,,,PerfumeSession
1623719616.0,stimulus,1,399,,,PerfumeSession
1623719616.5,fixation,1,399,,,PerfumeSession
1623719618.0,stimulus,1,400,,,PerfumeSession
1623719618.5,fixation,1,400,,,PerfumeSession
1623719620.0,stimulus,1,401,,,PerfumeSession
1623719620.5,fixation,1,401,,,PerfumeSession
1623719622.0,stimulus,1,402,,,PerfumeSession
1623719622.5,fixation,1,402,,,PerfumeSession
1623719624.0,stimulus,1,403,,,PerfumeSession
1623719624.5,fixation,1,403,,,PerfumeSession
1623719626.0,stimulus,1,404,,,PerfumeSession
1623719626.5,fixation,1,404,,,PerfumeSession
1623719628.0,stimulus,1,405,,,PerfumeSession
1623719628.5,fixation,1,405,,,PerfumeSession
1623719630.0,stimulus,1,406,,,PerfumeSession
1623719630.5,fixation,1,406,,,PerfumeSession
1623719632.0,stimulus,1,407,,,PerfumeSession
1623719632.5,fixation,1,407,,,PerfumeSession
1623719634.0,stimulus,1,408,,,PerfumeSession
1623719634.5,fixation,1,408,,,PerfumeSession
1623719636.0,stimulus,1,409,,,PerfumeSession
1623719636.5,fixation,1,409,,,PerfumeSession
1623719638.0,stimulus,1,410,,,PerfumeSession
1623719638.5,fixation,1,410,,,PerfumeSession
1623719640.0,stimulus,1,411,,,PerfumeSession
1623719640.5,fixation,1,411,,,PerfumeSession
1623719642.0,stimulus,1,412,,,PerfumeSession
1623719642.5,fixation,1,412,,,PerfumeSession
1623719644.0,stimulus,1,413,,,PerfumeSession
1623719644.5,fixation,1,413,,,PerfumeSession
1623719646.0,stimulus,1,414,,,PerfumeSession
1623719646.5,fixation,1,414,,,PerfumeSession
1623719648.0,stimulus,1,415,,,PerfumeSession
1623719648.5,fixation,1,415,,,PerfumeSession
1623719650.0,stimulus,1,416,,,PerfumeSession
1623719650.5,fixation,1,416,,,PerfumeSession
1623719652.0,stimulus,1,417,,,PerfumeSession
1623719652.5,fixation,1,417,,,PerfumeSession
1623719654.0,stimulus,1,418,,,PerfumeSession
1623719654.5,fixation,1,418,,,PerfumeSession
1623719656.0,stimulus,1,419,,,PerfumeSession
1623719656.5,fixation,1,419,,,PerfumeSession
1623719658.0,stimulus,1,420,,,PerfumeSession
1623719658.5,fixation,1,420,,,PerfumeSession
1623719660.0,stimulus,1,421,,,PerfumeSession
1623719660.5,fixation,1,421,,,PerfumeSession
1623719662.0,stimulus,1,422,,,PerfumeSession
1623719662.5,fixation,1,422,,,PerfumeSession
1623719664.0,stimulus,1,423,,,PerfumeSession
1623719664.5,fixation,1,423,,,PerfumeSession
1623719666.0,stimulus,1,424,,,PerfumeSession
1623719666.5,fixation,1,424,,,PerfumeSession
1623719668.0,stimulus,1,425,,,PerfumeSession
1623719668.5,fixation,1,425,,,PerfumeSession
1623719670.0,stimulus,1,426,,,PerfumeSession
1623719670.5,fixation,1,426,,,PerfumeSession
1623719672.0,stimulus,1,427,,,PerfumeSession
1623719672.5,fixation,1,427,,,PerfumeSession
1623719674.0,stimulus,1,428,,,PerfumeSession
1623719674.5,fixation,1,428,,,PerfumeSession
1623719676.0,stimulus,1,429,,,PerfumeSession
1623719676.5,fixation,1,429,,,PerfumeSession
1623719678.0,stimulus,1,430,,,PerfumeSession
1623719678.5,fixation,1,430,,,PerfumeSession
1623719680.0,stimulus,1,431,,,PerfumeSession
1623719680.5,fixation,1,431,,,PerfumeSession
1623719682.0,stimulus,1,432,,,PerfumeSession
1623719682.5,fixation,1,432,,,PerfumeSession
1623719684.0,stimulus,1,433,,,PerfumeSession
1623719684.5,fixation,1,433,,,PerfumeSession
1623719686.0,stimulus,1,434,,,PerfumeSession
1623719686.5,fixation,1,434,,,PerfumeSession
1623719688.0,stimulus,1,435,,,PerfumeSession
1623719688.5,fixation,1,435,,,PerfumeSession
1623719690.0,stimulus,1,436,,,PerfumeSession
1623719690.5,fixation,1,436,,,PerfumeSession
1623719692.0,stimulus,1,437,,,PerfumeSession
1623719692.5,fixation,1,437,,,PerfumeSession
1623719694.0,stimulus,1,438,,,PerfumeSession
1623719694.5,fixation,1,438,,,PerfumeSession
1623719696.0,stimulus,1,439,,,PerfumeSession
1623719696.5,fixation,1,439,,,PerfumeSession
1623719698.0,stimulus,1,440,,,PerfumeSession
1623719698.5,fixation,1,440,,,PerfumeSession
1623719700.0,stimulus,1,441,,,PerfumeSession
1623719700.5,fixation,1,441,,,PerfumeSession
1623719702.0,stimulus,1,442,,,PerfumeSession
1623719702.5,fixation,1,442,,,PerfumeSession
1623719704.0,stimulus,1,443,,,PerfumeSession
1623719704.5,fixation,1,443,,,PerfumeSession
1623719706.0,stimulus,1,444,,,PerfumeSession
1623719706.5,fixation,1,444,,,PerfumeSession
1623719708.0,stimulus,1,445,,,PerfumeSession
1623719708.5,fixation,1,445,,,PerfumeSession
1623719710.0,stimulus,1,446,,,PerfumeSession
1623719710.5,fixation,1,446,,,PerfumeSession
1623719712.0,stimulus,1,447,,,PerfumeSession
1623719712.5,fixation,1,447,,,PerfumeSession
1623719714.0,stimulus,1,448,,,PerfumeSession
1623719714.5,fixation,1,448,,,PerfumeSession
1623719716.0,stimulus,1,449,,,PerfumeSession
1623719716.5,fixation,1,449,,,PerfumeSession
1623719718.0,stimulus,1,450,,,PerfumeSession
1623719718.5,fixation,1,450,,,PerfumeSession
1623719720.0,stimulus,1,451,,,PerfumeSession
1623719720.5,fixation,1,451,,,PerfumeSession
1623719722.0,stimulus,1,452,,,PerfumeSession
1623719722.5,fixation,1,452,,,PerfumeSession
1623719724.0,stimulus,1,453,,,PerfumeSession
1623719724.5,fixation,1,453,,,PerfumeSession
1623719726.0,stimulus,1,454,,,PerfumeSession
1623719726.5,fixation,1,454,,,PerfumeSession
1623719728.0,stimulus,1,455,,,PerfumeSession
1623719728.5,fixation,1,455,,,PerfumeSession
1623719730.0,stimulus,1,456,,,PerfumeSession
1623719730.5,fixation,1,456,,,PerfumeSession
1623719732.0,stimulus,1,457,,,PerfumeSession
1623719732.5,fixation,1,457,,,PerfumeSession
1623719734.0,stimulus,1,458,,,PerfumeSession
1623719734.5,fixation,1,458,,,PerfumeSession
1623719736.0,stimulus,1,459,,,PerfumeSession
1623719736.5,fixation,1,459,,,PerfumeSession
1623719738.0,stimulus,1,460,,,PerfumeSession
1623719738.5,fixation,1,460,,,PerfumeSession
1623719740.0,stimulus,1,461,,,PerfumeSession
1623719740.5,fixation,1,461,,,PerfumeSession
1623719742.0,stimulus,1,462,,,PerfumeSession
1623719742.5,fixation,1,462,,,PerfumeSession
1623719744.0,stimulus,1,463,,,PerfumeSession
1623719744.5,fixation,1,463,,,PerfumeSession
1623719746.0,stimulus,1,464,,,PerfumeSession
1623719746.5,fixation,1,464,,,PerfumeSession
1623719748.0,stimulus,1,465,,,PerfumeSession
1623719748.5,fixation,1,465,,,PerfumeSession
1623719750.0,stimulus,1,466,,,PerfumeSession
1623719750.5,fixation,1,466,,,PerfumeSession
1623719752.0,stimulus,1,467,,,PerfumeSession
1623719752.5,fixation,1,467,,,PerfumeSession
1623719754.0,stimulus,1,468,,,PerfumeSession
1623719754.5,fixation,1,468,,,PerfumeSession
1623719756.0,stimulus,1,469,,,PerfumeSession
1623719756.5,fixation,1,469,,,PerfumeSession
1623719758.0,stimulus,1,470,,,PerfumeSession
1623719758.5,fixation,1,470,,,PerfumeSession
1623719760.0,stimulus,1,471,,,PerfumeSession
1623719760.5,fixation,1,471,,,PerfumeSession
1623719762.0,stimulus,1,472,,,PerfumeSession
1623719762.5,fixation,1,472,,,PerfumeSession
1623719764.0,stimulus,1,473,,,PerfumeSession
1623719764.5,fixation,1,473,,,PerfumeSession
1623719766.0,stimulus,1,474,,,PerfumeSession
1623719766.5,fixation,1,474,,,PerfumeSession
1623719768.0,stimulus,1,475,,,PerfumeSession
1623719768.5,fixation,1,475,,,PerfumeSession
1623719770.0,stimulus,1,476,,,PerfumeSession
1623719770.5,fixation,1,476,,,PerfumeSession
1623719772.0,stimulus,1,477,,,PerfumeSession
1623719772.5,fixation,1,477,,,PerfumeSession
1623719774.0,stimulus,1,478,,,PerfumeSession
1623719774.5,fixation,1,478,,,PerfumeSession
1623719776.0,stimulus,1,479,,,PerfumeSession
1623719776.5,fixation,1,479,,,PerfumeSession
1623719778.0,stimulus,1,480,,,PerfumeSession
1623719778.5,fixation,1,480,,,PerfumeSession
1623719780.0,stimulus,1,481,,,PerfumeSession
1623719780.5,fixation,1,481,,,PerfumeSession
1623719782.0,stimulus,1,482,,,PerfumeSession
1623719782.5,fixation,1,482,,,PerfumeSession
1623719784.0,stimulus,1,483,,,PerfumeSession
1623719784.5,fixation,1,483,,,PerfumeSession
1623719786.0,stimulus,1,484,,,PerfumeSession
1623719786.5,fixation,1,484,,,PerfumeSession
1623719788.0,stimulus,1,485,,,PerfumeSession
1623719788.5,fixation,1,485,,,PerfumeSession
1623719790.0,stimulus,1,486,,,PerfumeSession
1623719790.0,stimulus,2,1,,,PracticeSession
1623719790.5,fixation,2,1,,,PracticeSession
1623719790.5,fixation,1,486,,,PerfumeSession
1623719792.0,stimulus,1,487,,,PerfumeSession
1623719792.0,stimulus,2,2,,,PracticeSession
1623719792.5,fixation,1,487,,,PerfumeSession
1623719792.5,fixation,2,2,,,PracticeSession
1623719794.0,stimulus,2,3,,,PracticeSession
1623719794.0,stimulus,1,488,,,PerfumeSession
1623719794.5,fixation,2,3,,,PracticeSession
1623719794.5,fixation,1,488,,,PerfumeSession
1623719796.0,stimulus,1,489,,,PerfumeSession
1623719796.0,stimulus,2,4,,,PracticeSession
1623719796.5,fixation,1,489,,,PerfumeSession
1623719796.5,fixation,2,4,,,PracticeSession
1623719798.0,stimulus,1,490,,,PerfumeSession
1623719798.0,stimulus,2,5,,,PracticeSession
1623719798.5,fixation,2,5,,,PracticeSession
1623719798.5,fixation,1,490,,,PerfumeSession
1623719800.0,stimulus,1,491,,,PerfumeSession
1623719800.0,stimulus,2,6,,,PracticeSession
1623719800.5,fixation,1,491,,,PerfumeSession
1623719800.5,fixation,2,6,,,PracticeSession
1623719802.0,stimulus,1,492,,,PerfumeSession
1623719802.0,stimulus,2,7,,,PracticeSession
1623719802.5,fixation,2,7,,,PracticeSession
1623719802.5,fixation,1,492,,,PerfumeSession
1623719804.0,stimulus,1,493,,,PerfumeSession
1623719804.0,stimulus,2,8,,,PracticeSession
1623719804.5,fixation,1,493,,,PerfumeSession
1623719804.5,fixation,2,8,,,PracticeSession
1623719806.0,stimulus,2,9,,,PracticeSession
1623719806.0,stimulus,1,494,,,PerfumeSession
1623719806.5,fixation,1,494,,,PerfumeSession
1623719806.5,fixation,2,9,,,PracticeSession
1623719808.0,stimulus,2,10,,,PracticeSession
1623719808.0,stimulus,1,495,,,PerfumeSession
1623719808.5,fixation,1,495,,,PerfumeSession
1623719808.5,fixation,2,10,,,PracticeSession
1623719810.0,stimulus,2,11,,,PracticeSession
1623719810.0,stimulus,1,496,,,PerfumeSession
1623719810.5,fixation,1,496,,,PerfumeSession
1623719810.5,fixation,2,11,,,PracticeSession
1623719812.0,stimulus,2,12,,,PracticeSession
1623719812.0,stimulus,1,497,,,PerfumeSession
1623719812.5,fixation,1,497,,,PerfumeSession
1623719812.5,fixation,2,12,,,PracticeSession
1623719814.0,stimulus,2,13,,,PracticeSession
1623719814.0,stimulus,1,498,,,PerfumeSession
1623719814.5,fixation,1,498,,,PerfumeSession
1623719814.5,fixation,2,13,,,PracticeSession
1623719816.0,stimulus,2,14,,,PracticeSession
1623719816.0,stimulus,1,499,,,PerfumeSession
1623719816.5,fixation,1,499,,,PerfumeSession
1623719816.5,fixation,2,14,,,PracticeSession
1623719818.0,stimulus,2,15,,,PracticeSession
1623719818.0,stimulus,1,500,,,PerfumeSession
1623719818.5,fixation,2,15,,,PracticeSession
1623719818.5,fixation,1,500,,,PerfumeSession
1623719820.0,stimulus,1,501,,,PerfumeSession
1623719820.0,stimulus,2,16,,,PracticeSession
1623719820.5,fixation,2,16,,,PracticeSession
1623719820.5,fixation,1,501,,,PerfumeSession
1623719822.0,stimulus,2,17,,,PracticeSession
1623719822.0,stimulus,1,502,,,PerfumeSession
1623719822.5,fixation,1,502,,,PerfumeSession
1623719822.5,fixation,2,17,,,PracticeSession
1623719824.0,stimulus,1,503,,,PerfumeSession
1623719824.0,stimulus,2,18,,,PracticeSession
1623719824.5,fixation,2,18,,,PracticeSession
1623719824.5,fixation,1,503,,,PerfumeSession
1623719826.0,stimulus,1,504,,,PerfumeSession
1623719826.0,stimulus,2,19,,,PracticeSession
1623719826.5,fixation,2,19,,,PracticeSession
1623719826.5,fixation,1,504,,,PerfumeSession
1623719828.0,stimulus,1,505,,,PerfumeSession
1623719828.0,stimulus,2,20,,,PracticeSession
1623719828.5,fixation,2,20,,,PracticeSession
1623719828.5,fixation,1,505,,,PerfumeSession
1623719830.0,stimulus,1,506,,,PerfumeSession
1623719830.0,stimulus,2,21,,,PracticeSession
1623719830.5,fixation,2,21,,,PracticeSession
1623719830.5,fixation,1,506,,,PerfumeSession
1623719832.0,stimulus,1,507,,,PerfumeSession
1623719832.0,stimulus,2,22,,,PracticeSession
1623719832.5,fixation,2,22,,,PracticeSession
1623719832.5,fixation,1,507,,,PerfumeSession
1623719834.0,stimulus,2,23,,,PracticeSession
1623719834.0,stimulus,1,508,,,PerfumeSession
1623719834.5,fixation,2,23,,,PracticeSession
1623719834.5,fixation,1,508,,,PerfumeSession
1623719836.0,stimulus,1,509,,,PerfumeSession
1623719836.0,stimulus,2,24,,,PracticeSession
1623719836.5,fixation,2,24,,,PracticeSession
1623719836.5,fixation,1,509,,,PerfumeSession
1623719838.0,stimulus,2,25,,,PracticeSession
1623719838.0,stimulus,1,510,,,PerfumeSession
1623719838.5,fixation,2,25,,,PracticeSession
1623719838.5,fixation,1,510,,,PerfumeSession
1623719840.0,stimulus,1,511,,,PerfumeSession
1623719840.0,stimulus,2,26,,,PracticeSession
1623719840.5,fixation,2,26,,,PracticeSession
1623719840.5,fixation,1,511,,,PerfumeSession
1623719842.0,stimulus,1,512,,,PerfumeSession
1623719842.0,stimulus,2,27,,,PracticeSession
1623719842.5,fixation,2,27,,,PracticeSession
1623719842.5,fixation,1,512,,,PerfumeSession
1623719844.0,stimulus,1,513,,,PerfumeSession
1623719844.0,stimulus,2,28,,,PracticeSession
1623719844.5,fixation,2,28,,,PracticeSession
1623719844.5,fixation,1,513,,,PerfumeSession
1623719846.0,stimulus,1,514,,,PerfumeSession
1623719846.0,stimulus,2,29,,,PracticeSession
1623719846.5,fixation,2,29,,,PracticeSession
1623719846.5,fixation,1,514,,,PerfumeSession
1623719848.0,stimulus,1,515,,,PerfumeSession
1623719848.0,stimulus,2,30,,,PracticeSession
1623719848.5,fixation,2,30,,,PracticeSession
1623719848.5,fixation,1,515,,,PerfumeSession
1623719850.0,stimulus,2,31,,,PracticeSession
1623719850.0,stimulus,1,516,,,PerfumeSession
1623719850.5,fixation,1,516,,,PerfumeSession
1623719850.5,fixation,2,31,,,PracticeSession
1623719852.0,stimulus,1,517,,,PerfumeSession
1623719852.0,stimulus,2,32,,,PracticeSession
1623719852.5,fixation,2,32,,,PracticeSession
1623719852.5,fixation,1,517,,,PerfumeSession
1623719854.0,stimulus,1,518,,,PerfumeSession
1623719854.0,stimulus,2,33,,,PracticeSession
1623719854.5,fixation,2,33,,,PracticeSession
1623719854.5,fixation,1,518,,,PerfumeSession
1623719856.0,stimulus,1,519,,,PerfumeSession
1623719856.0,stimulus,2,34,,,PracticeSession
1623719856.5,fixation,2,34,,,PracticeSession
1623719856.5,fixation,1,519,,,PerfumeSession
1623719858.0,stimulus,1,520,,,PerfumeSession
1623719858.0,stimulus,2,35,,,PracticeSession
1623719858.5,fixation,2,35,,,PracticeSession
1623719858.5,fixation,1,520,,,PerfumeSession
1623719860.0,stimulus,1,521,,,PerfumeSession
1623719860.0,stimulus,2,36,,,PracticeSession
1623719860.5,fixation,2,36,,,PracticeSession
1623719860.5,fixation,1,521,,,PerfumeSession
1623719862.0,stimulus,1,522,,,PerfumeSession
1623719862.0,stimulus,2,37,,,PracticeSession
1623719862.5,fixation,2,37,,,PracticeSession
1623719862.5,fixation,1,522,,,PerfumeSession
1623719864.0,stimulus,1,523,,,PerfumeSession
1623719864.0,stimulus,2,38,,,PracticeSession
1623719864.5,fixation,2,38,,,PracticeSession
1623719864.5,fixation,1,523,,,PerfumeSession
1623719866.0,stimulus,1,524,,,PerfumeSession
1623719866.0,stimulus,2,39,,,PracticeSession
1623719866.5,fixation,2,39,,,PracticeSession
1623719866.5,fixation,1,524,,,PerfumeSession
1623719868.0,stimulus,1,525,,,PerfumeSession
1623719868.0,stimulus,2,40,,,PracticeSession
1623719868.5,fixation,2,40,,,PracticeSession
1623719868.5,fixation,1,525,,,PerfumeSession
1623719870.0,stimulus,1,526,,,PerfumeSession
1623719870.0,stimulus,2,41,,,PracticeSession
1623719870.5,fixation,2,41,,,PracticeSession
1623719870.5,fixation,1,526,,,PerfumeSession
1623719872.0,stimulus,1,527,,,PerfumeSession
1623719872.0,stimulus,2,42,,,PracticeSession
1623719872.5,fixation,2,42,,,PracticeSession
1623719872.5,fixation,1,527,,,PerfumeSession
1623719874.0,stimulus,1,528,,,PerfumeSession
1623719874.0,stimulus,2,43,,,PracticeSession
1623719874.5,fixation,2,43,,,PracticeSession
1623719874.5,fixation,1,528,,,PerfumeSession
1623719876.0,stimulus,2,44,,,PracticeSession
1623719876.0,stimulus,1,529,,,PerfumeSession
1623719876.5,fixation,1,529,,,PerfumeSession
1623719876.5,fixation,2,44,,,PracticeSession
1623719878.0,stimulus,2,45,,,NoAct
1623719878.0,stimulus,1,530,,,PerfumeSession
1623719878.5,fixation,1,530,,,PerfumeSession
1623719878.5,fixation,2,45,,,NoAct
1623719880.0,stimulus,2,46,,,NoAct
1623719880.0,stimulus,1,531,,,PerfumeSession
1623719880.5,fixation,1,531,,,PerfumeSession
1623719880.5,fixation,2,46,,,NoAct
1623719882.0,stimulus,1,532,,,PerfumeSession
1623719882.0,stimulus,2,47,,,NoAct
1623719882.5,fixation,1,532,,,PerfumeSession
1623719882.5,fixation,2,47,,,NoAct
1623719884.0,stimulus,2,48,,,NoAct
1623719884.0,stimulus,1,533,,,PerfumeSession
1623719884.5,fixation,1,533,,,PerfumeSession
1623719884.5,fixation,2,48,,,NoAct
1623719886.0,stimulus,2,49,,,NoAct
1623719886.0,stimulus,1,534,,,PerfumeSession
1623719886.5,fixation,1,534,,,PerfumeSession
1623719886.5,fixation,2,49,,,NoAct
1623719888.0,stimulus,2,50,,,NoAct
1623719888.0,stimulus,1,535,,,PerfumeSession
1623719888.5,fixation,1,535,,,PerfumeSession
1623719888.5,fixation,2,50,,,NoAct
1623719890.0,stimulus,2,51,,,NoAct
1623719890.0,stimulus,1,536,,,PerfumeSession
1623719890.5,fixation,1,536,,,PerfumeSession
1623719890.5,fixation,2,51,,,NoAct
1623719892.0,stimulus,1,537,,,PerfumeSession
1623719892.0,stimulus,2,52,,,NoAct
1623719892.5,fixation,1,537,,,PerfumeSession
1623719892.5,fixation,2,52,,,NoAct
1623719894.0,stimulus,2,53,,,NoAct
1623719894.0,stimulus,1,538,,,PerfumeSession
1623719894.5,fixation,1,538,,,PerfumeSession
1623719894.5,fixation,2,53,,,NoAct
1623719896.0,stimulus,2,54,,,NoAct
1623719896.0,stimulus,1,539,,,PerfumeSession
1623719896.5,fixation,2,54,,,NoAct
1623719896.5,fixation,1,539,,,PerfumeSession
1623719898.0,stimulus,1,540,,,PerfumeSession
1623719898.0,stimulus,2,55,,,NoAct
1623719898.5,fixation,2,55,,,NoAct
1623719898.5,fixation,1,540,,,PerfumeSession
1623719900.0,stimulus,1,541,,,PerfumeSession
1623719900.0,stimulus,2,56,,,NoAct
1623719900.5,fixation,2,56,,,NoAct
1623719900.5,fixation,1,541,,,PerfumeSession
1623719902.0,stimulus,1,542,,,PerfumeSession
1623719902.0,stimulus,2,57,,,NoAct
1623719902.5,fixation,2,57,,,NoAct
1623719902.5,fixation,1,542,,,PerfumeSession
1623719904.0,stimulus,1,543,,,PerfumeSession
1623719904.0,stimulus,2,58,,,NoAct
1623719904.5,fixation,2,58,,,NoAct
1623719904.5,fixation,1,543,,,PerfumeSession
1623719906.0,stimulus,1,544,,,PerfumeSession
1623719906.0,stimulus,2,59,,,NoAct
1623719906.5,fixation,2,59,,,NoAct
1623719906.5,fixation,1,544,,,PerfumeSession
1623719908.0,stimulus,1,545,,,PerfumeSession
1623719908.0,stimulus,2,60,,,NoAct
1623719908.5,fixation,2,60,,,NoAct
1623719908.5,fixation,1,545,,,PerfumeSession
1623719910.0,stimulus,1,546,,,PerfumeSession
1623719910.0,stimulus,2,61,,,NoAct
1623719910.5,fixation,2,61,,,NoAct
1623719910.5,fixation,1,546,,,PerfumeSession
1623719912.0,stimulus,2,62,,,NoAct
1623719912.0,stimulus,1,547,,,PerfumeSession
1623719912.5,fixation,1,547,,,PerfumeSession
1623719912.5,fixation,2,62,,,NoAct
1623719914.0,stimulus,1,548,,,PerfumeSession
1623719914.0,stimulus,2,63,,,NoAct
1623719914.5,fixation,2,63,,,NoAct
1623719914.5,fixation,1,548,,,PerfumeSession
1623719916.0,stimulus,1,549,,,PerfumeSession
1623719916.0,stimulus,2,64,,,NoAct
1623719916.5,fixation,2,64,,,NoAct
1623719916.5,fixation,1,549,,,PerfumeSession
1623719918.0,stimulus,1,550,,,PerfumeSession
1623719918.0,stimulus,2,65,,,NoAct
1623719918.5,fixation,2,65,,,NoAct
1623719918.5,fixation,1,550,,,PerfumeSession
1623719920.0,stimulus,1,551,,,PerfumeSession
1623719920.0,stimulus,2,66,,,NoAct
1623719920.5,fixation,2,66,,,NoAct
1623719920.5,fixation,1,551,,,PerfumeSession
1623719922.0,stimulus,1,552,,,PerfumeSession
1623719922.0,stimulus,2,67,,,NoAct
1623719922.5,fixation,2,67,,,NoAct
1623719922.5,fixation,1,552,,,PerfumeSession
1623719924.0,stimulus,2,68,,,NoAct
1623719924.0,stimulus,1,553,,,PerfumeSession
1623719924.5,fixation,1,553,,,PerfumeSession
1623719924.5,fixation,2,68,,,NoAct
1623719926.0,stimulus,1,554,,,PerfumeSession
1623719926.0,stimulus,2,69,,,NoAct
1623719926.5,fixation,1,554,,,PerfumeSession
1623719926.5,fixation,2,69,,,NoAct
1623719928.0,stimulus,1,555,,,PerfumeSession
1623719928.0,stimulus,2,70,,,NoAct
1623719928.5,fixation,2,70,,,NoAct
1623719928.5,fixation,1,555,,,PerfumeSession
1623719930.0,stimulus,2,71,,,NoAct
1623719930.0,stimulus,1,556,,,PerfumeSession
1623719930.5,fixation,1,556,,,PerfumeSession
1623719930.5,fixation,2,71,,,NoAct
1623719932.0,stimulus,2,72,,,NoAct
1623719932.0,stimulus,1,557,,,PerfumeSession
1623719932.5,fixation,2,72,,,NoAct
1623719932.5,fixation,1,557,,,PerfumeSession
1623719934.0,stimulus,1,558,,,PerfumeSession
1623719934.0,stimulus,2,73,,,NoAct
1623719934.5,fixation,2,73,,,NoAct
1623719934.5,fixation,1,558,,,PerfumeSession
1623719936.0,stimulus,1,559,,,PerfumeSession
1623719936.0,stimulus,2,74,,,NoAct
1623719936.5,fixation,2,74,,,NoAct
1623719936.5,fixation,1,559,,,PerfumeSession
1623719938.0,stimulus,1,560,,,PerfumeSession
1623719938.0,stimulus,2,75,,,NoAct
1623719938.5,fixation,2,75,,,NoAct
1623719938.5,fixation,1,560,,,PerfumeSession
1623719940.0,stimulus,1,561,,,PerfumeSession
1623719940.0,stimulus,2,76,,,NoAct
1623719940.5,fixation,2,76,,,NoAct
1623719940.5,fixation,1,561,,,PerfumeSession
1623719942.0,stimulus,1,562,,,PerfumeSession
1623719942.0,stimulus,2,77,,,NoAct
1623719942.5,fixation,2,77,,,NoAct
1623719942.5,fixation,1,562,,,PerfumeSession
1623719944.0,stimulus,1,563,,,PerfumeSession
1623719944.0,stimulus,2,78,,,NoAct
1623719944.5,fixation,2,78,,,NoAct
1623719944.5,fixation,1,563,,,PerfumeSession
1623719946.0,stimulus,1,564,,,PerfumeSession
1623719946.0,stimulus,2,79,,,NoAct
1623719946.5,fixation,2,79,,,NoAct
1623719946.5,fixation,1,564,,,PerfumeSession
1623719948.0,stimulus,1,565,,,PerfumeSession
1623719948.0,stimulus,2,80,,,NoAct
1623719948.5,fixation,1,565,,,PerfumeSession
1623719948.5,fixation,2,80,,,NoAct
1623719950.0,stimulus,1,566,,,PerfumeSession
1623719950.0,stimulus,2,81,,,NoAct
1623719950.5,fixation,1,566,,,PerfumeSession
1623719950.5,fixation,2,81,,,NoAct
1623719952.0,stimulus,1,567,,,PerfumeSession
1623719952.0,stimulus,2,82,,,NoAct
1623719952.5,fixation,2,82,,,NoAct
1623719952.5,fixation,1,567,,,PerfumeSession
1623719954.0,stimulus,1,568,,,PerfumeSession
1623719954.0,stimulus,2,83,,,NoAct
1623719954.5,fixation,2,83,,,NoAct
1623719954.5,fixation,1,568,,,PerfumeSession
1623719956.0,stimulus,1,569,,,PerfumeSession
1623719956.0,stimulus,2,84,,,NoAct
1623719956.5,fixation,1,569,,,PerfumeSession
1623719956.5,fixation,2,84,,,NoAct
1623719958.0,stimulus,1,570,,,PerfumeSession
1623719958.0,stimulus,2,85,,,NoAct
1623719958.5,fixation,2,85,,,NoAct
1623719958.5,fixation,1,570,,,PerfumeSession
1623719960.0,stimulus,2,86,,,NoAct
1623719960.0,stimulus,1,571,,,PerfumeSession
1623719960.5,fixation,1,571,,,PerfumeSession
1623719960.5,fixation,2,86,,,NoAct
1623719962.0,stimulus,1,572,,,PerfumeSession
1623719962.0,stimulus,2,87,,,NoAct
1623719962.5,fixation,2,87,,,NoAct
1623719962.5,fixation,1,572,,,PerfumeSession
1623719964.0,stimulus,1,573,,,PerfumeSession
1623719964.0,stimulus,2,88,,,NoAct
1623719964.5,fixation,2,88,,,NoAct
1623719964.5,fixation,1,573,,,PerfumeSession
1623719966.0,stimulus,1,574,,,PerfumeSession
1623719966.0,stimulus,2,89,,,NoAct
1623719966.5,fixation,1,574,,,PerfumeSession
1623719966.5,fixation,2,89,,,NoAct
1623719968.0,stimulus,1,575,,,PerfumeSession
1623719968.0,stimulus,2,90,,,NoAct
1623719968.5,fixation,2,90,,,NoAct
1623719968.5,fixation,1,575,,,PerfumeSession
1623719970.0,stimulus,1,576,,,PerfumeSession
1623719970.0,stimulus,2,91,,,NoAct
1623719970.5,fixation,2,91,,,NoAct
1623719970.5,fixation,1,576,,,PerfumeSession
1623719972.0,stimulus,1,577,,,PerfumeSession
1623719972.0,stimulus,2,92,,,NoAct
1623719972.5,fixation,2,92,,,NoAct
1623719972.5,fixation,1,577,,,PerfumeSession
1623719974.0,stimulus,1,578,,,PerfumeSession
1623719974.0,stimulus,2,93,,,NoAct
1623719974.5,fixation,2,93,,,NoAct
1623719974.5,fixation,1,578,,,PerfumeSession
1623719976.0,stimulus,1,579,,,PerfumeSession
1623719976.0,stimulus,2,94,,,NoAct
1623719976.5,fixation,2,94,,,NoAct
1623719976.5,fixation,1,579,,,PerfumeSession
1623719978.0,stimulus,1,580,,,PerfumeSession
1623719978.0,stimulus,2,95,,,NoAct
1623719978.5,fixation,1,580,,,PerfumeSession
1623719978.5,fixation,2,95,,,NoAct
1623719980.0,stimulus,2,96,,,NoAct
1623719980.0,stimulus,1,581,,,PerfumeSession
1623719980.5,fixation,1,581,,,PerfumeSession
1623719980.5,fixation,2,96,,,NoAct
1623719982.0,stimulus,2,97,,,NoAct
1623719982.0,stimulus,1,582,,,PerfumeSession
1623719982.5,fixation,1,582,,,PerfumeSession
1623719982.5,fixation,2,97,,,NoAct
1623719984.0,stimulus,2,98,,,NoAct
1623719984.0,stimulus,1,583,,,PerfumeSession
1623719984.5,fixation,1,583,,,PerfumeSession
1623719984.5,fixation,2,98,,,NoAct
1623719986.0,stimulus,2,99,,,NoAct
1623719986.0,stimulus,1,584,,,PerfumeSession
1623719986.5,fixation,2,99,,,NoAct
1623719986.5,fixation,1,584,,,PerfumeSession
1623719988.0,stimulus,1,585,,,PerfumeSession
1623719988.0,stimulus,2,100,,,NoAct
1623719988.5,fixation,2,100,,,NoAct
1623719988.5,fixation,1,585,,,PerfumeSession
1623719990.0,stimulus,1,586,,,PerfumeSession
1623719990.0,stimulus,2,101,,,NoAct
1623719990.5,fixation,1,586,,,PerfumeSession
1623719990.5,fixation,2,101,,,NoAct
1623719992.0,stimulus,1,587,,,PerfumeSession
1623719992.0,stimulus,2,102,,,NoAct
1623719992.5,fixation,2,102,,,NoAct
1623719992.5,fixation,1,587,,,PerfumeSession
1623719994.0,stimulus,1,588,,,PerfumeSession
1623719994.0,stimulus,2,103,,,NoAct
1623719994.5,fixation,1,588,,,PerfumeSession
1623719994.5,fixation,2,103,,,NoAct
1623719996.0,stimulus,1,589,,,PerfumeSession
1623719996.0,stimulus,2,104,,,NoAct
1623719996.5,fixation,2,104,,,NoAct
1623719996.5,fixation,1,589,,,PerfumeSession
1623719998.0,stimulus,1,590,,,PerfumeSession
1623719998.0,stimulus,2,105,,,NoAct
1623719998.5,fixation,2,105,,,NoAct
1623719998.5,fixation,1,590,,,PerfumeSession
1623720000.0,stimulus,2,106,,,NoAct
1623720000.0,stimulus,1,591,,,PerfumeSession
1623720000.5,fixation,1,591,,,PerfumeSession
1623720000.5,fixation,2,106,,,NoAct
1623720002.0,stimulus,2,107,,,NoAct
1623720002.0,stimulus,1,592,,,PerfumeSession
1623720002.5,fixation,1,592,,,PerfumeSession
1623720002.5,fixation,2,107,,,NoAct
1623720004.0,stimulus,2,108,,,NoAct
1623720004.0,stimulus,1,593,,,PerfumeSession
1623720004.5,fixation,1,593,,,PerfumeSession
1623720004.5,fixation,2,108,,,NoAct
1623720006.0,stimulus,2,109,,,NoAct
1623720006.0,stimulus,1,594,,,PerfumeSession
1623720006.5,fixation,1,594,,,PerfumeSession
1623720006.5,fixation,2,109,,,NoAct
1623720008.0,stimulus,2,110,,,NoAct
1623720008.0,stimulus,1,595,,,PerfumeSession
1623720008.5,fixation,1,595,,,PerfumeSession
1623720008.5,fixation,2,110,,,NoAct
1623720010.0,stimulus,2,111,,,NoAct
1623720010.0,stimulus,1,596,,,PerfumeSession
1623720010.5,fixation,1,596,,,PerfumeSession
1623720010.5,fixation,2,111,,,NoAct
1623720012.0,stimulus,2,112,,,NoAct
1623720012.0,stimulus,1,597,,,PerfumeSession
1623720012.5,fixation,1,597,,,PerfumeSession
1623720012.5,fixation,2,112,,,NoAct
1623720014.0,stimulus,2,113,,,NoAct
1623720014.0,stimulus,1,598,,,PerfumeSession
1623720014.5,fixation,1,598,,,PerfumeSession
1623720014.5,fixation,2,113,,,NoAct
1623720016.0,stimulus,2,114,,,NoAct
1623720016.0,stimulus,1,599,,,PerfumeSession
1623720016.5,fixation,1,599,,,PerfumeSession
1623720016.5,fixation,2,114,,,NoAct
1623720018.0,stimulus,2,115,,,NoAct
1623720018.0,stimulus,1,600,,,PerfumeSession
1623720018.5,fixation,1,600,,,PerfumeSession
1623720018.5,fixation,2,115,,,NoAct
1623720020.0,stimulus,2,116,,,NoAct
1623720020.0,stimulus,1,601,,,PerfumeSession
1623720020.5,fixation,1,601,,,PerfumeSession
1623720020.5,fixation,2,116,,,NoAct
1623720022.0,stimulus,2,117,,,NoAct
1623720022.0,stimulus,1,602,,,PerfumeSession
1623720022.5,fixation,1,602,,,PerfumeSession
1623720022.5,fixation,2,117,,,NoAct
1623720024.0,stimulus,1,603,,,PerfumeSession
1623720024.0,stimulus,2,118,,,NoAct
1623720024.5,fixation,2,118,,,NoAct
1623720024.5,fixation,1,603,,,PerfumeSession
1623720026.0,stimulus,1,604,,,PerfumeSession
1623720026.0,stimulus,2,119,,,NoAct
1623720026.5,fixation,2,119,,,NoAct
1623720026.5,fixation,1,604,,,PerfumeSession
1623720028.0,stimulus,1,605,,,PerfumeSession
1623720028.0,stimulus,2,120,,,NoAct
1623720028.5,fixation,2,120,,,NoAct
1623720028.5,fixation,1,605,,,PerfumeSession
1623720030.0,stimulus,2,121,,,NoAct
1623720030.0,stimulus,1,606,,,PerfumeSession
1623720030.5,fixation,1,606,,,PerfumeSession
1623720030.5,fixation,2,121,,,NoAct
1623720032.0,stimulus,2,122,,,NoAct
1623720032.0,stimulus,1,607,,,PerfumeSession
1623720032.5,fixation,1,607,,,PerfumeSession
1623720032.5,fixation,2,122,,,NoAct
1623720034.0,stimulus,2,123,,,NoAct
1623720034.0,stimulus,1,608,,,PerfumeSession
1623720034.5,fixation,1,608,,,PerfumeSession
1623720034.5,fixation,2,123,,,NoAct
1623720036.0,stimulus,1,609,,,PerfumeSession
1623720036.0,stimulus,2,124,,,NoAct
1623720036.5,fixation,2,124,,,NoAct
1623720036.5,fixation,1,609,,,PerfumeSession
1623720038.0,stimulus,2,125,,,NoAct
1623720038.0,stimulus,1,610,,,PerfumeSession
1623720038.5,fixation,1,610,,,PerfumeSession
1623720038.5,fixation,2,125,,,NoAct
1623720040.0,stimulus,1,611,,,PerfumeSession
1623720040.0,stimulus,2,126,,,NoAct
1623720040.5,fixation,2,126,,,NoAct
1623720040.5,fixation,1,611,,,PerfumeSession
1623720042.0,stimulus,1,612,,,PerfumeSession
1623720042.0,stimulus,2,127,,,NoAct
1623720042.5,fixation,2,127,,,NoAct
1623720042.5,fixation,1,612,,,PerfumeSession
1623720044.0,stimulus,1,613,,,PerfumeSession
1623720044.0,stimulus,2,128,,,NoAct
1623720044.5,fixation,2,128,,,NoAct
1623720044.5,fixation,1,613,,,PerfumeSession
1623720046.0,stimulus,1,614,,,PerfumeSession
1623720046.0,stimulus,2,129,,,NoAct
1623720046.5,fixation,2,129,,,NoAct
1623720046.5,fixation,1,614,,,PerfumeSession
1623720048.0,stimulus,1,615,,,PerfumeSession
1623720048.0,stimulus,2,130,,,NoAct
1623720048.5,fixation,2,130,,,NoAct
1623720048.5,fixation,1,615,,,PerfumeSession
1623720050.0,stimulus,1,616,,,PerfumeSession
1623720050.0,stimulus,2,131,,,NoAct
1623720050.5,fixation,2,131,,,NoAct
1623720050.5,fixation,1,616,,,PerfumeSession
1623720052.0,stimulus,1,617,,,PerfumeSession
1623720052.0,stimulus,2,132,,,NoAct
1623720052.5,fixation,2,132,,,NoAct
1623720052.5,fixation,1,617,,,PerfumeSession
1623720054.0,stimulus,1,618,,,PerfumeSession
1623720054.0,stimulus,2,133,,,NoAct
1623720054.5,fixation,2,133,,,NoAct
1623720054.5,fixation,1,618,,,PerfumeSession
1623720056.0,stimulus,1,619,,,PerfumeSession
1623720056.0,stimulus,2,134,,,NoAct
1623720056.5,fixation,2,134,,,NoAct
1623720056.5,fixation,1,619,,,PerfumeSession
1623720058.0,stimulus,1,620,,,PerfumeSession
1623720058.0,stimulus,2,135,,,NoAct
1623720058.5,fixation,2,135,,,NoAct
1623720058.5,fixation,1,620,,,PerfumeSession
1623720060.0,stimulus,1,621,,,PerfumeSession
1623720060.0,stimulus,2,136,,,NoAct
1623720060.5,fixation,2,136,,,NoAct
1623720060.5,fixation,1,621,,,PerfumeSession
1623720062.0,stimulus,1,622,,,PerfumeSession
1623720062.0,stimulus,2,137,,,NoAct
1623720062.5,fixation,2,137,,,NoAct
1623720062.5,fixation,1,622,,,PerfumeSession
1623720064.0,stimulus,2,138,,,NoAct
1623720064.0,stimulus,1,623,,,PerfumeSession
1623720064.5,fixation,1,623,,,PerfumeSession
1623720064.5,fixation,2,138,,,NoAct
1623720066.0,stimulus,2,139,,,NoAct
1623720066.0,stimulus,1,624,,,PerfumeSession
1623720066.5,fixation,1,624,,,PerfumeSession
1623720066.5,fixation,2,139,,,NoAct
1623720068.0,stimulus,2,140,,,NoAct
1623720068.0,stimulus,1,625,,,PerfumeSession
1623720068.5,fixation,1,625,,,PerfumeSession
1623720068.5,fixation,2,140,,,NoAct
1623720070.0,stimulus,2,141,,,NoAct
1623720070.0,stimulus,1,626,,,PerfumeSession
1623720070.5,fixation,1,626,,,PerfumeSession
1623720070.5,fixation,2,141,,,NoAct
1623720072.0,stimulus,2,142,,,NoAct
1623720072.0,stimulus,1,627,,,PerfumeSession
1623720072.5,fixation,1,627,,,PerfumeSession
1623720072.5,fixation,2,142,,,NoAct
1623720074.0,stimulus,2,143,,,NoAct
1623720074.0,stimulus,1,628,,,PerfumeSession
1623720074.5,fixation,1,628,,,PerfumeSession
1623720074.5,fixation,2,143,,,NoAct
1623720076.0,stimulus,2,144,,,NoAct
1623720076.0,stimulus,1,629,,,PerfumeSession
1623720076.5,fixation,1,629,,,PerfumeSession
1623720076.5,fixation,2,144,,,NoAct
1623720078.0,stimulus,2,145,,,NoAct
1623720078.0,stimulus,1,630,,,PerfumeSession
1623720078.5,fixation,1,630,,,PerfumeSession
1623720078.5,fixation,2,145,,,NoAct
1623720080.0,stimulus,2,146,,,NoAct
1623720080.0,stimulus,1,631,,,PerfumeSession
1623720080.5,fixation,1,631,,,PerfumeSession
1623720080.5,fixation,2,146,,,NoAct
1623720082.0,stimulus,2,147,,,NoAct
1623720082.0,stimulus,1,632,,,PerfumeSession
1623720082.5,fixation,1,632,,,PerfumeSession
1623720082.5,fixation,2,147,,,NoAct
1623720084.0,stimulus,2,148,,,NoAct
1623720084.0,stimulus,1,633,,,PerfumeSession
1623720084.5,fixation,1,633,,,PerfumeSession
1623720084.5,fixation,2,148,,,NoAct
1623720086.0,stimulus,2,149,,,NoAct
1623720086.0,stimulus,1,634,,,PerfumeSession
1623720086.5,fixation,1,634,,,PerfumeSession
1623720086.5,fixation,2,149,,,NoAct
1623720088.0,stimulus,2,150,,,NoAct
1623720088.0,stimulus,1,635,,,PerfumeSession
1623720088.5,fixation,1,635,,,PerfumeSession
1623720088.5,fixation,2,150,,,NoAct
1623720090.0,stimulus,2,151,,,NoAct
1623720090.0,stimulus,1,636,,,PerfumeSession
1623720090.5,fixation,1,636,,,PerfumeSession
1623720090.5,fixation,2,151,,,NoAct
1623720092.0,stimulus,2,152,,,NoAct
1623720092.0,stimulus,1,637,,,PerfumeSession
1623720092.5,fixation,1,637,,,PerfumeSession
1623720092.5,fixation,2,152,,,NoAct
1623720094.0,stimulus,2,153,,,NoAct
1623720094.0,stimulus,1,638,,,PerfumeSession
1623720094.5,fixation,1,638,,,PerfumeSession
1623720094.5,fixation,2,153,,,NoAct
1623720096.0,stimulus,2,154,,,NoAct
1623720096.0,stimulus,1,639,,,PerfumeSession
1623720096.5,fixation,1,639,,,PerfumeSession
1623720096.5,fixation,2,154,,,NoAct
1623720098.0,stimulus,2,155,,,NoAct
1623720098.0,stimulus,1,640,,,PerfumeSession
1623720098.5,fixation,1,640,,,PerfumeSession
1623720098.5,fixation,2,155,,,NoAct
1623720100.0,stimulus,2,156,,,NoAct
1623720100.0,stimulus,1,641,,,PerfumeSession
1623720100.5,fixation,1,641,,,PerfumeSession
1623720100.5,fixation,2,156,,,NoAct
1623720102.0,stimulus,2,157,,,NoAct
1623720102.0,stimulus,1,642,,,PerfumeSession
1623720102.5,fixation,1,642,,,PerfumeSession
1623720102.5,fixation,2,157,,,NoAct
1623720104.0,stimulus,2,158,,,NoAct
1623720104.0,stimulus,1,643,,,PerfumeSession
1623720104.5,fixation,1,643,,,PerfumeSession
1623720104.5,fixation,2,158,,,NoAct
1623720106.0,stimulus,2,159,,,NoAct
1623720106.0,stimulus,1,644,,,PerfumeSession
1623720106.5,fixation,1,644,,,PerfumeSession
1623720106.5,fixation,2,159,,,NoAct
1623720108.0,stimulus,2,160,,,NoAct
1623720108.0,stimulus,1,645,,,PerfumeSession
1623720108.5,fixation,1,645,,,PerfumeSession
1623720108.5,fixation,2,160,,,NoAct
1623720110.0,stimulus,2,161,,,NoAct
1623720110.0,stimulus,1,646,,,PerfumeSession
1623720110.5,fixation,1,646,,,PerfumeSession
1623720110.5,fixation,2,161,,,NoAct
1623720112.0,stimulus,1,647,,,PerfumeSession
1623720112.0,stimulus,2,162,,,NoAct
1623720112.5,fixation,1,647,,,PerfumeSession
1623720112.5,fixation,2,162,,,NoAct
1623720114.0,stimulus,1,648,,,PerfumeSession
1623720114.0,stimulus,2,163,,,NoAct
1623720114.5,fixation,2,163,,,NoAct
1623720114.5,fixation,1,648,,,PerfumeSession
1623720116.0,stimulus,2,164,,,NoAct
1623720116.0,stimulus,1,649,,,PerfumeSession
1623720116.5,fixation,1,649,,,PerfumeSession
1623720116.5,fixation,2,164,,,NoAct
1623720118.0,stimulus,2,165,,,NoAct
1623720118.0,stimulus,1,650,,,PerfumeSession
1623720118.5,fixation,1,650,,,PerfumeSession
1623720118.5,fixation,2,165,,,NoAct
1623720120.0,stimulus,2,166,,,NoAct
1623720120.0,stimulus,1,651,,,PerfumeSession
1623720120.5,fixation,1,651,,,PerfumeSession
1623720120.5,fixation,2,166,,,NoAct
1623720122.0,stimulus,1,652,,,PerfumeSession
1623720122.0,stimulus,2,167,,,NoAct
1623720122.5,fixation,2,167,,,NoAct
1623720122.5,fixation,1,652,,,PerfumeSession
1623720124.0,stimulus,1,653,,,PerfumeSession
1623720124.0,stimulus,2,168,,,NoAct
1623720124.5,fixation,2,168,,,NoAct
1623720124.5,fixation,1,653,,,PerfumeSession
1623720126.0,stimulus,2,169,,,NoAct
1623720126.0,stimulus,1,654,,,PerfumeSession
1623720126.5,fixation,1,654,,,PerfumeSession
1623720126.5,fixation,2,169,,,NoAct
1623720128.0,stimulus,1,655,,,PerfumeSession
1623720128.0,stimulus,2,170,,,NoAct
1623720128.5,fixation,1,655,,,PerfumeSession
1623720128.5,fixation,2,170,,,NoAct
1623720130.0,stimulus,2,171,,,NoAct
1623720130.0,stimulus,1,656,,,PerfumeSession
1623720130.5,fixation,1,656,,,PerfumeSession
1623720130.5,fixation,2,171,,,NoAct
1623720132.0,stimulus,2,172,,,NoAct
1623720132.0,stimulus,1,657,,,PerfumeSession
1623720132.5,fixation,1,657,,,PerfumeSession
1623720132.5,fixation,2,172,,,NoAct
1623720134.0,stimulus,2,173,,,NoAct
1623720134.0,stimulus,1,658,,,PerfumeSession
1623720134.5,fixation,1,658,,,PerfumeSession
1623720134.5,fixation,2,173,,,NoAct
1623720136.0,stimulus,2,174,,,NoAct
1623720136.0,stimulus,1,659,,,PerfumeSession
1623720136.5,fixation,1,659,,,PerfumeSession
1623720136.5,fixation,2,174,,,NoAct
1623720138.0,stimulus,2,175,,,NoAct
1623720138.0,stimulus,1,660,,,PerfumeSession
1623720138.5,fixation,1,660,,,PerfumeSession
1623720138.5,fixation,2,175,,,NoAct
1623720140.0,stimulus,2,176,,,NoAct
1623720140.0,stimulus,1,661,,,PerfumeSession
1623720140.5,fixation,1,661,,,PerfumeSession
1623720140.5,fixation,2,176,,,NoAct
1623720142.0,stimulus,2,177,,,NoAct
1623720142.0,stimulus,1,662,,,PerfumeSession
1623720142.5,fixation,1,662,,,PerfumeSession
1623720142.5,fixation,2,177,,,NoAct
1623720144.0,stimulus,2,178,,,NoAct
1623720144.0,stimulus,1,663,,,PerfumeSession
1623720144.5,fixation,1,663,,,PerfumeSession
1623720144.5,fixation,2,178,,,NoAct
1623720146.0,stimulus,2,179,,,NoAct
1623720146.0,stimulus,1,664,,,PerfumeSession
1623720146.5,fixation,1,664,,,PerfumeSession
1623720146.5,fixation,2,179,,,NoAct
1623720148.0,stimulus,1,665,,,PerfumeSession
1623720148.0,stimulus,2,180,,,NoAct
1623720148.5,fixation,2,180,,,NoAct
1623720148.5,fixation,1,665,,,PerfumeSession
1623720150.0,stimulus,1,666,,,PerfumeSession
1623720150.0,stimulus,2,181,,,NoAct
1623720150.5,fixation,2,181,,,NoAct
1623720150.5,fixation,1,666,,,PerfumeSession
1623720152.0,stimulus,1,667,,,PerfumeSession
1623720152.0,stimulus,2,182,,,NoAct
1623720152.5,fixation,2,182,,,NoAct
1623720152.5,fixation,1,667,,,PerfumeSession
1623720154.0,stimulus,1,668,,,PerfumeSession
1623720154.0,stimulus,2,183,,,NoAct
1623720154.5,fixation,2,183,,,NoAct
1623720154.5,fixation,1,668,,,PerfumeSession
1623720156.0,stimulus,1,669,,,PerfumeSession
1623720156.0,stimulus,2,184,,,NoAct
1623720156.5,fixation,1,669,,,PerfumeSession
1623720156.5,fixation,2,184,,,NoAct
1623720158.0,stimulus,2,185,,,NoAct
1623720158.0,stimulus,1,670,,,PerfumeSession
1623720158.5,fixation,1,670,,,PerfumeSession
1623720158.5,fixation,2,185,,,NoAct
1623720160.0,stimulus,2,186,,,NoAct
1623720160.0,stimulus,1,671,,,PerfumeSession
1623720160.5,fixation,2,186,,,NoAct
1623720160.5,fixation,1,671,,,PerfumeSession
1623720162.0,stimulus,1,672,,,PerfumeSession
1623720162.0,stimulus,2,187,,,NoAct
1623720162.5,fixation,2,187,,,NoAct
1623720162.5,fixation,1,672,,,PerfumeSession
1623720164.0,stimulus,2,188,,,NoAct
1623720164.0,stimulus,1,673,,,PerfumeSession
1623720164.5,fixation,1,673,,,PerfumeSession
1623720164.5,fixation,2,188,,,NoAct
1623720166.0,stimulus,2,189,,,NoAct
1623720166.0,stimulus,1,674,,,PerfumeSession
1623720166.0,stimulus,3,1,,,PracticeSession
1623720166.5,fixation,1,674,,,PerfumeSession
1623720166.5,fixation,3,1,,,PracticeSession
1623720166.5,fixation,2,189,,,NoAct
1623720168.0,stimulus,2,190,,,NoAct
1623720168.0,stimulus,3,2,,,PracticeSession
1623720168.0,stimulus,1,675,,,PerfumeSession
1623720168.5,fixation,2,190,,,NoAct
1623720168.5,fixation,1,675,,,PerfumeSession
1623720168.5,fixation,3,2,,,PracticeSession
1623720170.0,stimulus,3,3,,,PracticeSession
1623720170.0,stimulus,2,191,,,NoAct
1623720170.0,stimulus,1,676,,,PerfumeSession
1623720170.5,fixation,2,191,,,NoAct
1623720170.5,fixation,3,3,,,PracticeSession
1623720170.5,fixation,1,676,,,PerfumeSession
1623720172.0,stimulus,1,677,,,PerfumeSession
1623720172.0,stimulus,3,4,,,PracticeSession
1623720172.0,stimulus,2,192,,,NoAct
1623720172.5,fixation,1,677,,,PerfumeSession
1623720172.5,fixation,3,4,,,PracticeSession
1623720172.5,fixation,2,192,,,NoAct
1623720174.0,stimulus,1,678,,,PerfumeSession
1623720174.0,stimulus,3,5,,,PracticeSession
1623720174.0,stimulus,2,193,,,NoAct
1623720174.5,fixation,1,678,,,PerfumeSession
1623720174.5,fixation,3,5,,,PracticeSession
1623720174.5,fixation,2,193,,,NoAct
1623720176.0,stimulus,2,194,,,NoAct
1623720176.0,stimulus,3,6,,,PracticeSession
1623720176.0,stimulus,1,679,,,PerfumeSession
1623720176.5,fixation,3,6,,,PracticeSession
1623720176.5,fixation,1,679,,,PerfumeSession
1623720176.5,fixation,2,194,,,NoAct
1623720178.0,stimulus,1,680,,,PerfumeSession
1623720178.0,stimulus,3,7,,,PracticeSession
1623720178.0,stimulus,2,195,,,NoAct
1623720178.5,fixation,2,195,,,NoAct
1623720178.5,fixation,1,680,,,PerfumeSession
1623720178.5,fixation,3,7,,,PracticeSession
1623720180.0,stimulus,2,196,,,NoAct
1623720180.0,stimulus,1,681,,,PerfumeSession
1623720180.0,stimulus,3,8,,,PracticeSession
1623720180.5,fixation,2,196,,,NoAct
1623720180.5,fixation,3,8,,,PracticeSession
1623720180.5,fixation,1,681,,,PerfumeSession
1623720182.0,stimulus,3,9,,,PracticeSession
1623720182.0,stimulus,1,682,,,PerfumeSession
1623720182.0,stimulus,2,197,,,NoAct
1623720182.5,fixation,3,9,,,PracticeSession
1623720182.5,fixation,1,682,,,PerfumeSession
1623720182.5,fixation,2,197,,,NoAct
1623720184.0,stimulus,3,10,,,PracticeSession
1623720184.0,stimulus,1,683,,,PerfumeSession
1623720184.0,stimulus,2,198,,,NoAct
1623720184.5,fixation,1,683,,,PerfumeSession
1623720184.5,fixation,3,10,,,PracticeSession
1623720184.5,fixation,2,198,,,NoAct
1623720186.0,stimulus,3,11,,,PracticeSession
1623720186.0,stimulus,1,684,,,PerfumeSession
1623720186.0,stimulus,2,199,,,NoAct
1623720186.5,fixation,1,684,,,PerfumeSession
1623720186.5,fixation,2,199,,,NoAct
1623720186.5,fixation,3,11,,,PracticeSession
1623720188.0,stimulus,1,685,,,PerfumeSession
1623720188.0,stimulus,2,200,,,NoAct
1623720188.0,stimulus,3,12,,,PracticeSession
1623720188.5,fixation,3,12,,,PracticeSession
1623720188.5,fixation,2,200,,,NoAct
1623720188.5,fixation,1,685,,,PerfumeSession
1623720190.0,stimulus,3,13,,,PracticeSession
1623720190.0,stimulus,2,201,,,NoAct
1623720190.0,stimulus,1,686,,,PerfumeSession
1623720190.5,fixation,1,686,,,PerfumeSession
1623720190.5,fixation,2,201,,,NoAct
1623720190.5,fixation,3,13,,,PracticeSession
1623720192.0,stimulus,2,202,,,NoAct
1623720192.0,stimulus,3,14,,,PracticeSession
1623720192.0,stimulus,1,687,,,PerfumeSession
1623720192.5,fixation,1,687,,,PerfumeSession
1623720192.5,fixation,2,202,,,NoAct
1623720192.5,fixation,3,14,,,PracticeSession
1623720194.0,stimulus,3,15,,,PracticeSession
1623720194.0,stimulus,2,203,,,NoAct
1623720194.0,stimulus,1,688,,,PerfumeSession
1623720194.5,fixation,1,688,,,PerfumeSession
1623720194.5,fixation,2,203,,,NoAct
1623720194.5,fixation,3,15,,,PracticeSession
1623720196.0,stimulus,2,204,,,NoAct
1623720196.0,stimulus,3,16,,,PracticeSession
1623720196.0,stimulus,1,689,,,PerfumeSession
1623720196.5,fixation,2,204,,,NoAct
1623720196.5,fixation,3,16,,,PracticeSession
1623720196.5,fixation,1,689,,,PerfumeSession
1623720198.0,stimulus,3,17,,,PracticeSession
1623720198.0,stimulus,1,690,,,PerfumeSession
1623720198.0,stimulus,2,205,,,NoAct
1623720198.5,fixation,2,205,,,NoAct
1623720198.5,fixation,1,690,,,PerfumeSession
1623720198.5,fixation,3,17,,,PracticeSession
1623720200.0,stimulus,1,691,,,PerfumeSession
1623720200.0,stimulus,3,18,,,PracticeSession
1623720200.0,stimulus,2,206,,,NoAct
1623720200.5,fixation,2,206,,,NoAct
1623720200.5,fixation,1,691,,,PerfumeSession
1623720200.5,fixation,3,18,,,PracticeSession
1623720202.0,stimulus,3,19,,,PracticeSession
1623720202.0,stimulus,1,692,,,PerfumeSession
1623720202.0,stimulus,2,207,,,NoAct
1623720202.5,fixation,2,207,,,NoAct
1623720202.5,fixation,1,692,,,PerfumeSession
1623720202.5,fixation,3,19,,,PracticeSession
1623720204.0,stimulus,2,208,,,NoAct
1623720204.0,stimulus,1,693,,,PerfumeSession
1623720204.0,stimulus,3,20,,,PracticeSession
1623720204.5,fixation,3,20,,,PracticeSession
1623720204.5,fixation,1,693,,,PerfumeSession
1623720204.5,fixation,2,208,,,NoAct
1623720206.0,stimulus,1,694,,,PerfumeSession
1623720206.0,stimulus,3,21,,,PracticeSession
1623720206.0,stimulus,2,209,,,NoAct
1623720206.5,fixation,1,694,,,PerfumeSession
1623720206.5,fixation,3,21,,,PracticeSession
1623720206.5,fixation,2,209,,,NoAct
1623720208.0,stimulus,3,22,,,PracticeSession
1623720208.0,stimulus,1,695,,,PerfumeSession
1623720208.0,stimulus,2,210,,,NoAct
1623720208.5,fixation,1,695,,,PerfumeSession
1623720208.5,fixation,2,210,,,NoAct
1623720208.5,fixation,3,22,,,PracticeSession
1623720210.0,stimulus,2,211,,,NoAct
1623720210.0,stimulus,3,23,,,PracticeSession
1623720210.0,stimulus,1,696,,,PerfumeSession
1623720210.5,fixation,1,696,,,PerfumeSession
1623720210.5,fixation,3,23,,,PracticeSession
1623720210.5,fixation,2,211,,,NoAct
1623720212.0,stimulus,1,697,,,PerfumeSession
1623720212.0,stimulus,3,24,,,PracticeSession
1623720212.0,stimulus,2,212,,,NoAct
1623720212.5,fixation,1,697,,,PerfumeSession
1623720212.5,fixation,3,24,,,PracticeSession
1623720212.5,fixation,2,212,,,NoAct
1623720214.0,stimulus,2,213,,,NoAct
1623720214.0,stimulus,3,25,,,PracticeSession
1623720214.0,stimulus,1,698,,,PerfumeSession
1623720214.5,fixation,1,698,,,PerfumeSession
1623720214.5,fixation,3,25,,,PracticeSession
1623720214.5,fixation,2,213,,,NoAct
1623720216.0,stimulus,3,26,,,PracticeSession
1623720216.0,stimulus,1,699,,,PerfumeSession
1623720216.0,stimulus,2,214,,,NoAct
1623720216.5,fixation,2,214,,,NoAct
1623720216.5,fixation,3,26,,,PracticeSession
1623720216.5,fixation,1,699,,,PerfumeSession
1623720218.0,stimulus,1,700,,,PerfumeSession
1623720218.0,stimulus,3,27,,,PracticeSession
1623720218.0,stimulus,2,215,,,NoAct
1623720218.5,fixation,2,215,,,NoAct
1623720218.5,fixation,3,27,,,PracticeSession
1623720218.5,fixation,1,700,,,PerfumeSession
1623720220.0,stimulus,1,701,,,PerfumeSession
1623720220.0,stimulus,2,216,,,NoAct
1623720220.0,stimulus,3,28,,,PracticeSession
1623720220.5,fixation,1,701,,,PerfumeSession
1623720220.5,fixation,2,216,,,NoAct
1623720220.5,fixation,3,28,,,PracticeSession
1623720222.0,stimulus,2,217,,,NoAct
1623720222.0,stimulus,3,29,,,PracticeSession
1623720222.0,stimulus,1,702,,,PerfumeSession
1623720222.5,fixation,1,702,,,PerfumeSession
1623720222.5,fixation,3,29,,,PracticeSession
1623720222.5,fixation,2,217,,,NoAct
1623720224.0,stimulus,2,218,,,NoAct
1623720224.0,stimulus,3,30,,,PracticeSession
1623720224.0,stimulus,1,703,,,PerfumeSession
1623720224.5,fixation,2,218,,,NoAct
1623720224.5,fixation,3,30,,,PracticeSession
1623720224.5,fixation,1,703,,,PerfumeSession
1623720226.0,stimulus,3,31,,,PracticeSession
1623720226.0,stimulus,1,704,,,PerfumeSession
1623720226.0,stimulus,2,219,,,NoAct
1623720226.5,fixation,2,219,,,NoAct
1623720226.5,fixation,1,704,,,PerfumeSession
1623720226.5,fixation,3,31,,,PracticeSession
1623720228.0,stimulus,3,32,,,PracticeSession
1623720228.0,stimulus,2,220,,,NoAct
1623720228.0,stimulus,1,705,,,PerfumeSession
1623720228.5,fixation,2,220,,,NoAct
1623720228.5,fixation,1,705,,,PerfumeSession
1623720228.5,fixation,3,32,,,PracticeSession
1623720230.0,stimulus,3,33,,,PracticeSession
1623720230.0,stimulus,1,706,,,PerfumeSession
1623720230.0,stimulus,2,221,,,NoAct
1623720230.5,fixation,1,706,,,PerfumeSession
1623720230.5,fixation,3,33,,,PracticeSession
1623720230.5,fixation,2,221,,,NoAct
1623720232.0,stimulus,3,34,,,PracticeSession
1623720232.0,stimulus,2,222,,,NoAct
1623720232.0,stimulus,1,707,,,PerfumeSession
1623720232.5,fixation,2,222,,,NoAct
1623720232.5,fixation,1,707,,,PerfumeSession
1623720232.5,fixation,3,34,,,PracticeSession
1623720234.0,stimulus,2,223,,,NoAct
1623720234.0,stimulus,1,708,,,PerfumeSession
1623720234.0,stimulus,3,35,,,PracticeSession
1623720234.5,fixation,1,708,,,PerfumeSession
1623720234.5,fixation,2,223,,,NoAct
1623720234.5,fixation,3,35,,,PracticeSession
1623720236.0,stimulus,3,36,,,PracticeSession
1623720236.0,stimulus,1,709,,,PerfumeSession
1623720236.0,stimulus,2,224,,,NoAct
1623720236.5,fixation,1,709,,,PerfumeSession
1623720236.5,fixation,2,224,,,NoAct
1623720236.5,fixation,3,36,,,PracticeSession
1623720238.0,stimulus,1,710,,,PerfumeSession
1623720238.0,stimulus,2,225,,,NoAct
1623720238.0,stimulus,3,37,,,PracticeSession
1623720238.5,fixation,2,225,,,NoAct
1623720238.5,fixation,1,710,,,PerfumeSession
1623720238.5,fixation,3,37,,,PracticeSession
1623720240.0,stimulus,2,226,,,NoAct
1623720240.0,stimulus,1,711,,,PerfumeSession
1623720240.0,stimulus,3,38,,,PracticeSession
1623720240.5,fixation,2,226,,,NoAct
1623720240.5,fixation,1,711,,,PerfumeSession
1623720240.5,fixation,3,38,,,PracticeSession
1623720242.0,stimulus,3,39,,,PracticeSession
1623720242.0,stimulus,1,712,,,PerfumeSession
1623720242.0,stimulus,2,227,,,NoAct
1623720242.5,fixation,2,227,,,NoAct
1623720242.5,fixation,1,712,,,PerfumeSession
1623720242.5,fixation,3,39,,,PracticeSession
1623720244.0,stimulus,1,713,,,PerfumeSession
1623720244.0,stimulus,3,40,,,PracticeSession
1623720244.0,stimulus,2,228,,,NoAct
1623720244.5,fixation,3,40,,,PracticeSession
1623720244.5,fixation,2,228,,,NoAct
1623720244.5,fixation,1,713,,,PerfumeSession
1623720246.0,stimulus,2,229,,,NoAct
1623720246.0,stimulus,3,41,,,PracticeSession
1623720246.0,stimulus,1,714,,,PerfumeSession
1623720246.5,fixation,3,41,,,PracticeSession
1623720246.5,fixation,1,714,,,PerfumeSession
1623720246.5,fixation,2,229,,,NoAct
1623720248.0,stimulus,2,230,,,NoAct
1623720248.0,stimulus,3,42,,,PracticeSession
1623720248.0,stimulus,1,715,,,PerfumeSession
1623720248.5,fixation,3,42,,,PracticeSession
1623720248.5,fixation,1,715,,,PerfumeSession
1623720248.5,fixation,2,230,,,NoAct
1623720250.0,stimulus,2,231,,,NoAct
1623720250.0,stimulus,3,43,,,PracticeSession
1623720250.0,stimulus,1,716,,,PerfumeSession
1623720250.5,fixation,1,716,,,PerfumeSession
1623720250.5,fixation,3,43,,,PracticeSession
1623720250.5,fixation,2,231,,,NoAct
1623720252.0,stimulus,2,232,,,NoAct
1623720252.0,stimulus,3,44,,,PracticeSession
1623720252.0,stimulus,1,717,,,PerfumeSession
1623720252.5,fixation,1,717,,,PerfumeSession
1623720252.5,fixation,3,44,,,PracticeSession
1623720252.5,fixation,2,232,,,NoAct
1623720254.0,stimulus,2,233,,,NoAct
1623720254.0,stimulus,3,45,,,NoAct
1623720254.0,stimulus,1,718,,,PerfumeSession
1623720254.5,fixation,2,233,,,NoAct
1623720254.5,fixation,3,45,,,NoAct
1623720254.5,fixation,1,718,,,PerfumeSession
1623720256.0,stimulus,2,234,,,NoAct
1623720256.0,stimulus,1,719,,,PerfumeSession
1623720256.0,stimulus,3,46,,,NoAct
1623720256.5,fixation,3,46,,,NoAct
1623720256.5,fixation,1,719,,,PerfumeSession
1623720256.5,fixation,2,234,,,NoAct
1623720258.0,stimulus,1,720,,,PerfumeSession
1623720258.0,stimulus,2,235,,,NoAct
1623720258.0,stimulus,3,47,,,NoAct
1623720258.5,fixation,2,235,,,NoAct
1623720258.5,fixation,3,47,,,NoAct
1623720258.5,fixation,1,720,,,PerfumeSession
1623720260.0,stimulus,2,236,,,NoAct
1623720260.0,stimulus,1,721,,,PerfumeSession
1623720260.0,stimulus,3,48,,,NoAct
1623720260.5,fixation,3,48,,,NoAct
1623720260.5,fixation,1,721,,,PerfumeSession
1623720260.5,fixation,2,236,,,NoAct
1623720262.0,stimulus,2,237,,,NoAct
1623720262.0,stimulus,1,722,,,PerfumeSession
1623720262.0,stimulus,3,49,,,NoAct
1623720262.5,fixation,2,237,,,NoAct
1623720262.5,fixation,3,49,,,NoAct
1623720262.5,fixation,1,722,,,PerfumeSession
1623720264.0,stimulus,1,723,,,PerfumeSession
1623720264.0,stimulus,3,50,,,NoAct
1623720264.0,stimulus,2,238,,,NoAct
1623720264.5,fixation,3,50,,,NoAct
1623720264.5,fixation,1,723,,,PerfumeSession
1623720264.5,fixation,2,238,,,NoAct
1623720266.0,stimulus,2,239,,,NoAct
1623720266.0,stimulus,3,51,,,NoAct
1623720266.0,stimulus,1,724,,,PerfumeSession
1623720266.5,fixation,3,51,,,NoAct
1623720266.5,fixation,2,239,,,NoAct
1623720266.5,fixation,1,724,,,PerfumeSession
1623720268.0,stimulus,2,240,,,NoAct
1623720268.0,stimulus,1,725,,,PerfumeSession
1623720268.0,stimulus,3,52,,,NoAct
1623720268.5,fixation,3,52,,,NoAct
1623720268.5,fixation,2,240,,,NoAct
1623720268.5,fixation,1,725,,,PerfumeSession
1623720270.0,stimulus,1,726,,,PerfumeSession
1623720270.0,stimulus,3,53,,,NoAct
1623720270.0,stimulus,2,241,,,NoAct
1623720270.5,fixation,3,53,,,NoAct
1623720270.5,fixation,2,241,,,NoAct
1623720270.5,fixation,1,726,,,PerfumeSession
1623720272.0,stimulus,1,727,,,PerfumeSession
1623720272.0,stimulus,3,54,,,NoAct
1623720272.0,stimulus,2,242,,,NoAct
1623720272.5,fixation,2,242,,,NoAct
1623720272.5,fixation,1,727,,,PerfumeSession
1623720272.5,fixation,3,54,,,NoAct
1623720274.0,stimulus,3,55,,,NoAct
1623720274.0,stimulus,1,728,,,PerfumeSession
1623720274.0,stimulus,2,243,,,NoAct
1623720274.5,fixation,3,55,,,NoAct
1623720274.5,fixation,2,243,,,NoAct
1623720274.5,fixation,1,728,,,PerfumeSession
1623720276.0,stimulus,1,729,,,PerfumeSession
1623720276.0,stimulus,3,56,,,NoAct
1623720276.0,stimulus,2,244,,,NoAct
1623720276.5,fixation,2,244,,,NoAct
1623720276.5,fixation,3,56,,,NoAct
1623720276.5,fixation,1,729,,,PerfumeSession
1623720278.0,stimulus,3,57,,,NoAct
1623720278.0,stimulus,1,730,,,PerfumeSession
1623720278.0,stimulus,2,245,,,NoAct
1623720278.5,fixation,2,245,,,NoAct
1623720278.5,fixation,1,730,,,PerfumeSession
1623720278.5,fixation,3,57,,,NoAct
1623720280.0,stimulus,1,731,,,PerfumeSession
1623720280.0,stimulus,3,58,,,NoAct
1623720280.0,stimulus,2,246,,,NoAct
1623720280.5,fixation,1,731,,,PerfumeSession
1623720280.5,fixation,2,246,,,NoAct
1623720280.5,fixation,3,58,,,NoAct
1623720282.0,stimulus,2,247,,,NoAct
1623720282.0,stimulus,1,732,,,PerfumeSession
1623720282.0,stimulus,3,59,,,NoAct
1623720282.5,fixation,2,247,,,NoAct
1623720282.5,fixation,3,59,,,NoAct
1623720282.5,fixation,1,732,,,PerfumeSession
1623720284.0,stimulus,1,733,,,PerfumeSession
1623720284.0,stimulus,3,60,,,NoAct
1623720284.0,stimulus,2,248,,,NoAct
1623720284.5,fixation,2,248,,,NoAct
1623720284.5,fixation,1,733,,,PerfumeSession
1623720284.5,fixation,3,60,,,NoAct
1623720286.0,stimulus,1,734,,,PerfumeSession
1623720286.0,stimulus,3,61,,,NoAct
1623720286.0,stimulus,2,249,,,NoAct
1623720286.5,fixation,2,249,,,NoAct
1623720286.5,fixation,3,61,,,NoAct
1623720286.5,fixation,1,734,,,PerfumeSession
1623720288.0,stimulus,1,735,,,PerfumeSession
1623720288.0,stimulus,3,62,,,NoAct
1623720288.0,stimulus,2,250,,,NoAct
1623720288.5,fixation,2,250,,,NoAct
1623720288.5,fixation,1,735,,,PerfumeSession
1623720288.5,fixation,3,62,,,NoAct
1623720290.0,stimulus,3,63,,,NoAct
1623720290.0,stimulus,1,736,,,PerfumeSession
1623720290.0,stimulus,2,251,,,NoAct
1623720290.5,fixation,2,251,,,NoAct
1623720290.5,fixation,3,63,,,NoAct
1623720290.5,fixation,1,736,,,PerfumeSession
1623720292.0,stimulus,1,737,,,PerfumeSession
1623720292.0,stimulus,3,64,,,NoAct
1623720292.0,stimulus,2,252,,,NoAct
1623720292.5,fixation,2,252,,,NoAct
1623720292.5,fixation,1,737,,,PerfumeSession
1623720292.5,fixation,3,64,,,NoAct
1623720294.0,stimulus,3,65,,,NoAct
1623720294.0,stimulus,1,738,,,PerfumeSession
1623720294.0,stimulus,2,253,,,NoAct
1623720294.5,fixation,2,253,,,NoAct
1623720294.5,fixation,3,65,,,NoAct
1623720294.5,fixation,1,738,,,PerfumeSession
1623720296.0,stimulus,3,66,,,NoAct
1623720296.0,stimulus,1,739,,,PerfumeSession
1623720296.0,stimulus,2,254,,,NoAct
1623720296.5,fixation,2,254,,,NoAct
1623720296.5,fixation,1,739,,,PerfumeSession
1623720296.5,fixation,3,66,,,NoAct
1623720298.0,stimulus,1,740,,,PerfumeSession
1623720298.0,stimulus,2,255,,,NoAct
1623720298.0,stimulus,3,67,,,NoAct
1623720298.5,fixation,3,67,,,NoAct
1623720298.5,fixation,2,255,,,NoAct
1623720298.5,fixation,1,740,,,PerfumeSession
1623720300.0,stimulus,1,741,,,PerfumeSession
1623720300.0,stimulus,2,256,,,NoAct
1623720300.0,stimulus,3,68,,,NoAct
1623720300.5,fixation,1,741,,,PerfumeSession
1623720300.5,fixation,2,256,,,NoAct
1623720300.5,fixation,3,68,,,NoAct
1623720302.0,stimulus,3,69,,,NoAct
1623720302.0,stimulus,2,257,,,NoAct
1623720302.0,stimulus,1,742,,,PerfumeSession
1623720302.5,fixation,2,257,,,NoAct
1623720302.5,fixation,1,742,,,PerfumeSession
1623720302.5,fixation,3,69,,,NoAct
1623720304.0,stimulus,3,70,,,NoAct
1623720304.0,stimulus,1,743,,,PerfumeSession
1623720304.0,stimulus,2,258,,,NoAct
1623720304.5,fixation,3,70,,,NoAct
1623720304.5,fixation,2,258,,,NoAct
1623720304.5,fixation,1,743,,,PerfumeSession
1623720306.0,stimulus,2,259,,,NoAct
1623720306.0,stimulus,3,71,,,NoAct
1623720306.0,stimulus,1,744,,,PerfumeSession
1623720306.5,fixation,2,259,,,NoAct
1623720306.5,fixation,3,71,,,NoAct
1623720306.5,fixation,1,744,,,PerfumeSession
1623720308.0,stimulus,3,72,,,NoAct
1623720308.0,stimulus,2,260,,,NoAct
1623720308.0,stimulus,1,745,,,PerfumeSession
1623720308.5,fixation,2,260,,,NoAct
1623720308.5,fixation,3,72,,,NoAct
1623720308.5,fixation,1,745,,,PerfumeSession
1623720310.0,stimulus,1,746,,,PerfumeSession
1623720310.0,stimulus,3,73,,,NoAct
1623720310.0,stimulus,2,261,,,NoAct
1623720310.5,fixation,1,746,,,PerfumeSession
1623720310.5,fixation,2,261,,,NoAct
1623720310.5,fixation,3,73,,,NoAct
1623720312.0,stimulus,3,74,,,NoAct
1623720312.0,stimulus,2,262,,,NoAct
1623720312.0,stimulus,1,747,,,PerfumeSession
1623720312.5,fixation,3,74,,,NoAct
1623720312.5,fixation,2,262,,,NoAct
1623720312.5,fixation,1,747,,,PerfumeSession
1623720314.0,stimulus,3,75,,,NoAct
1623720314.0,stimulus,2,263,,,NoAct
1623720314.0,stimulus,1,748,,,PerfumeSession
1623720314.5,fixation,1,748,,,PerfumeSession
1623720314.5,fixation,3,75,,,NoAct
1623720314.5,fixation,2,263,,,NoAct
1623720316.0,stimulus,2,264,,,NoAct
1623720316.0,stimulus,3,76,,,NoAct
1623720316.0,stimulus,1,749,,,PerfumeSession
1623720316.5,fixation,2,264,,,NoAct
1623720316.5,fixation,3,76,,,NoAct
1623720316.5,fixation,1,749,,,PerfumeSession
1623720318.0,stimulus,3,77,,,NoAct
1623720318.0,stimulus,2,265,,,NoAct
1623720318.0,stimulus,1,750,,,PerfumeSession
1623720318.5,fixation,1,750,,,PerfumeSession
1623720318.5,fixation,3,77,,,NoAct
1623720318.5,fixation,2,265,,,NoAct
1623720320.0,stimulus,1,751,,,CoffeeSession
1623720320.0,stimulus,3,78,,,NoAct
1623720320.0,stimulus,2,266,,,NoAct
1623720320.5,fixation,1,751,,,CoffeeSession
1623720320.5,fixation,2,266,,,NoAct
1623720320.5,fixation,3,78,,,NoAct
1623720322.0,stimulus,1,752,,,CoffeeSession
1623720322.0,stimulus,2,267,,,NoAct
1623720322.0,stimulus,3,79,,,NoAct
1623720322.5,fixation,2,267,,,NoAct
1623720322.5,fixation,3,79,,,NoAct
1623720322.5,fixation,1,752,,,CoffeeSession
1623720324.0,stimulus,1,753,,,CoffeeSession
1623720324.0,stimulus,2,268,,,NoAct
1623720324.0,stimulus,3,80,,,NoAct
1623720324.5,fixation,1,753,,,CoffeeSession
1623720324.5,fixation,2,268,,,NoAct
1623720324.5,fixation,3,80,,,NoAct
1623720326.0,stimulus,3,81,,,NoAct
1623720326.0,stimulus,2,269,,,NoAct
1623720326.0,stimulus,1,754,,,CoffeeSession
1623720326.5,fixation,2,269,,,NoAct
1623720326.5,fixation,3,81,,,NoAct
1623720326.5,fixation,1,754,,,CoffeeSession
1623720328.0,stimulus,3,82,,,NoAct
1623720328.0,stimulus,2,270,,,NoAct
1623720328.0,stimulus,1,755,,,CoffeeSession
1623720328.5,fixation,2,270,,,NoAct
1623720328.5,fixation,3,82,,,NoAct
1623720328.5,fixation,1,755,,,CoffeeSession
1623720330.0,stimulus,3,83,,,NoAct
1623720330.0,stimulus,1,756,,,CoffeeSession
1623720330.0,stimulus,2,271,,,NoAct
1623720330.5,fixation,2,271,,,NoAct
1623720330.5,fixation,1,756,,,CoffeeSession
1623720330.5,fixation,3,83,,,NoAct
1623720332.0,stimulus,2,272,,,NoAct
1623720332.0,stimulus,1,757,,,CoffeeSession
1623720332.0,stimulus,3,84,,,NoAct
1623720332.5,fixation,2,272,,,NoAct
1623720332.5,fixation,3,84,,,NoAct
1623720332.5,fixation,1,757,,,CoffeeSession
1623720334.0,stimulus,1,758,,,CoffeeSession
1623720334.0,stimulus,3,85,,,NoAct
1623720334.0,stimulus,2,273,,,NoAct
1623720334.5,fixation,3,85,,,NoAct
1623720334.5,fixation,1,758,,,CoffeeSession
1623720334.5,fixation,2,273,,,NoAct
1623720336.0,stimulus,3,86,,,NoAct
1623720336.0,stimulus,1,759,,,CoffeeSession
1623720336.0,stimulus,2,274,,,NoAct
1623720336.5,fixation,3,86,,,NoAct
1623720336.5,fixation,1,759,,,CoffeeSession
1623720336.5,fixation,2,274,,,NoAct
1623720338.0,stimulus,3,87,,,NoAct
1623720338.0,stimulus,1,760,,,CoffeeSession
1623720338.0,stimulus,2,275,,,NoAct
1623720338.5,fixation,3,87,,,NoAct
1623720338.5,fixation,1,760,,,CoffeeSession
1623720338.5,fixation,2,275,,,NoAct
1623720340.0,stimulus,3,88,,,NoAct
1623720340.0,stimulus,1,761,,,CoffeeSession
1623720340.0,stimulus,2,276,,,NoAct
1623720340.5,fixation,2,276,,,NoAct
1623720340.5,fixation,3,88,,,NoAct
1623720340.5,fixation,1,761,,,CoffeeSession
1623720342.0,stimulus,2,277,,,NoAct
1623720342.0,stimulus,3,89,,,NoAct
1623720342.0,stimulus,1,762,,,CoffeeSession
1623720342.5,fixation,3,89,,,NoAct
1623720342.5,fixation,2,277,,,NoAct
1623720342.5,fixation,1,762,,,CoffeeSession
1623720344.0,stimulus,3,90,,,NoAct
1623720344.0,stimulus,2,278,,,NoAct
1623720344.0,stimulus,1,763,,,CoffeeSession
1623720344.5,fixation,2,278,,,NoAct
1623720344.5,fixation,3,90,,,NoAct
1623720344.5,fixation,1,763,,,CoffeeSession
1623720346.0,stimulus,2,279,,,NoAct
1623720346.0,stimulus,3,91,,,NoAct
1623720346.0,stimulus,1,764,,,CoffeeSession
1623720346.5,fixation,2,279,,,NoAct
1623720346.5,fixation,3,91,,,NoAct
1623720346.5,fixation,1,764,,,CoffeeSession
1623720348.0,stimulus,2,280,,,NoAct
1623720348.0,stimulus,3,92,,,NoAct
1623720348.0,stimulus,1,765,,,CoffeeSession
1623720348.5,fixation,1,765,,,CoffeeSession
1623720348.5,fixation,3,92,,,NoAct
1623720348.5,fixation,2,280,,,NoAct
1623720350.0,stimulus,2,281,,,NoAct
1623720350.0,stimulus,3,93,,,NoAct
1623720350.0,stimulus,1,766,,,CoffeeSession
1623720350.5,fixation,2,281,,,NoAct
1623720350.5,fixation,3,93,,,NoAct
1623720350.5,fixation,1,766,,,CoffeeSession
1623720352.0,stimulus,2,282,,,NoAct
1623720352.0,stimulus,3,94,,,NoAct
1623720352.0,stimulus,1,767,,,CoffeeSession
1623720352.5,fixation,1,767,,,CoffeeSession
1623720352.5,fixation,2,282,,,NoAct
1623720352.5,fixation,3,94,,,NoAct
1623720354.0,stimulus,3,95,,,NoAct
1623720354.0,stimulus,2,283,,,NoAct
1623720354.0,stimulus,1,768,,,CoffeeSession
1623720354.5,fixation,2,283,,,NoAct
1623720354.5,fixation,3,95,,,NoAct
1623720354.5,fixation,1,768,,,CoffeeSession
1623720356.0,stimulus,3,96,,,NoAct
1623720356.0,stimulus,1,769,,,CoffeeSession
1623720356.0,stimulus,2,284,,,NoAct
1623720356.5,fixation,2,284,,,NoAct
1623720356.5,fixation,1,769,,,CoffeeSession
1623720356.5,fixation,3,96,,,NoAct
1623720358.0,stimulus,2,285,,,NoAct
1623720358.0,stimulus,1,770,,,CoffeeSession
1623720358.0,stimulus,3,97,,,NoAct
1623720358.5,fixation,2,285,,,NoAct
1623720358.5,fixation,1,770,,,CoffeeSession
1623720358.5,fixation,3,97,,,NoAct
1623720360.0,stimulus,3,98,,,NoAct
1623720360.0,stimulus,2,286,,,NoAct
1623720360.0,stimulus,1,771,,,CoffeeSession
1623720360.5,fixation,2,286,,,NoAct
1623720360.5,fixation,1,771,,,CoffeeSession
1623720360.5,fixation,3,98,,,NoAct
1623720362.0,stimulus,2,287,,,NoAct
1623720362.0,stimulus,1,772,,,CoffeeSession
1623720362.0,stimulus,3,99,,,NoAct
1623720362.5,fixation,3,99,,,NoAct
1623720362.5,fixation,1,772,,,CoffeeSession
1623720362.5,fixation,2,287,,,NoAct
1623720364.0,stimulus,3,100,,,NoAct
1623720364.0,stimulus,1,773,,,CoffeeSession
1623720364.0,stimulus,2,288,,,NoAct
1623720364.5,fixation,2,288,,,NoAct
1623720364.5,fixation,3,100,,,NoAct
1623720364.5,fixation,1,773,,,CoffeeSession
1623720366.0,stimulus,1,774,,,CoffeeSession
1623720366.0,stimulus,3,101,,,NoAct
1623720366.0,stimulus,2,289,,,NoAct
1623720366.5,fixation,2,289,,,NoAct
1623720366.5,fixation,3,101,,,NoAct
1623720366.5,fixation,1,774,,,CoffeeSession
1623720368.0,stimulus,3,102,,,NoAct
1623720368.0,stimulus,1,775,,,CoffeeSession
1623720368.0,stimulus,2,290,,,NoAct
1623720368.5,fixation,2,290,,,NoAct
1623720368.5,fixation,1,775,,,CoffeeSession
1623720368.5,fixation,3,102,,,NoAct
1623720370.0,stimulus,3,103,,,NoAct
1623720370.0,stimulus,2,291,,,NoAct
1623720370.0,stimulus,1,776,,,CoffeeSession
1623720370.5,fixation,2,291,,,NoAct
1623720370.5,fixation,1,776,,,CoffeeSession
1623720370.5,fixation,3,103,,,NoAct
1623720372.0,stimulus,1,777,,,CoffeeSession
1623720372.0,stimulus,2,292,,,NoAct
1623720372.0,stimulus,3,104,,,NoAct
1623720372.5,fixation,2,292,,,NoAct
1623720372.5,fixation,3,104,,,NoAct
1623720372.5,fixation,1,777,,,CoffeeSession
1623720374.0,stimulus,3,105,,,NoAct
1623720374.0,stimulus,2,293,,,NoAct
1623720374.0,stimulus,1,778,,,CoffeeSession
1623720374.5,fixation,3,105,,,NoAct
1623720374.5,fixation,2,293,,,NoAct
1623720374.5,fixation,1,778,,,CoffeeSession
1623720376.0,stimulus,2,294,,,NoAct
1623720376.0,stimulus,1,779,,,CoffeeSession
1623720376.0,stimulus,3,106,,,NoAct
1623720376.5,fixation,1,779,,,CoffeeSession
1623720376.5,fixation,2,294,,,NoAct
1623720376.5,fixation,3,106,,,NoAct
1623720378.0,stimulus,1,780,,,CoffeeSession
1623720378.0,stimulus,3,107,,,NoAct
1623720378.0,stimulus,2,295,,,NoAct
1623720378.5,fixation,3,107,,,NoAct
1623720378.5,fixation,1,780,,,CoffeeSession
1623720378.5,fixation,2,295,,,NoAct
1623720380.0,stimulus,2,296,,,NoAct
1623720380.0,stimulus,1,781,,,CoffeeSession
1623720380.0,stimulus,3,108,,,NoAct
1623720380.5,fixation,2,296,,,NoAct
1623720380.5,fixation,1,781,,,CoffeeSession
1623720380.5,fixation,3,108,,,NoAct
1623720382.0,stimulus,3,109,,,NoAct
1623720382.0,stimulus,2,297,,,NoAct
1623720382.0,stimulus,1,782,,,CoffeeSession
1623720382.5,fixation,1,782,,,CoffeeSession
1623720382.5,fixation,2,297,,,NoAct
1623720382.5,fixation,3,109,,,NoAct
1623720384.0,stimulus,1,783,,,CoffeeSession
1623720384.0,stimulus,3,110,,,NoAct
1623720384.0,stimulus,2,298,,,NoAct
1623720384.5,fixation,3,110,,,NoAct
1623720384.5,fixation,2,298,,,NoAct
1623720384.5,fixation,1,783,,,CoffeeSession
1623720386.0,stimulus,3,111,,,NoAct
1623720386.0,stimulus,2,299,,,NoAct
1623720386.0,stimulus,1,784,,,CoffeeSession
1623720386.5,fixation,1,784,,,CoffeeSession
1623720386.5,fixation,2,299,,,NoAct
1623720386.5,fixation,3,111,,,NoAct
1623720388.0,stimulus,1,785,,,CoffeeSession
1623720388.0,stimulus,3,112,,,NoAct
1623720388.0,stimulus,2,300,,,NoAct
1623720388.5,fixation,1,785,,,CoffeeSession
1623720388.5,fixation,2,300,,,NoAct
1623720388.5,fixation,3,112,,,NoAct
1623720390.0,stimulus,1,786,,,CoffeeSession
1623720390.0,stimulus,2,301,,,NoAct
1623720390.0,stimulus,3,113,,,NoAct
1623720390.5,fixation,3,113,,,NoAct
1623720390.5,fixation,2,301,,,NoAct
1623720390.5,fixation,1,786,,,CoffeeSession
1623720392.0,stimulus,2,302,,,NoAct
1623720392.0,stimulus,1,787,,,CoffeeSession
1623720392.0,stimulus,3,114,,,NoAct
