event_time_s,trial_type,session_idx,trial_idx,RT_s,ACC,session_type
1624262445.88,stimulus,1,1,,,PracticeSession
1624262446.38,fixation,1,1,,,PracticeSession
1624262447.88,stimulus,1,2,,,PracticeSession
1624262448.38,fixation,1,2,,,PracticeSession
1624262449.88,stimulus,1,3,,,PracticeSession
1624262450.38,fixation,1,3,,,PracticeSession
1624262451.88,stimulus,1,4,,,PracticeSession
1624262452.38,fixation,1,4,,,PracticeSession
1624262453.88,stimulus,1,5,,,PracticeSession
1624262454.38,fixation,1,5,,,PracticeSession
1624262455.88,stimulus,1,6,,,PracticeSession
1624262456.38,fixation,1,6,,,PracticeSession
1624262457.88,stimulus,1,7,,,PracticeSession
1624262458.38,fixation,1,7,,,PracticeSession
1624262459.88,stimulus,1,8,,,PracticeSession
1624262460.38,fixation,1,8,,,PracticeSession
1624262461.88,stimulus,1,9,,,PracticeSession
1624262462.38,fixation,1,9,,,PracticeSession
1624262463.88,stimulus,1,10,,,PracticeSession
1624262464.38,fixation,1,10,,,PracticeSession
1624262465.88,stimulus,1,11,,,PracticeSession
1624262466.38,fixation,1,11,,,PracticeSession
1624262467.88,stimulus,1,12,,,PracticeSession
1624262468.38,fixation,1,12,,,PracticeSession
1624262469.88,stimulus,1,13,,,PracticeSession
1624262470.38,fixation,1,13,,,PracticeSession
1624262471.88,stimulus,1,14,,,PracticeSession
1624262472.38,fixation,1,14,,,PracticeSession
1624262473.88,stimulus,1,15,,,PracticeSession
1624262474.38,fixation,1,15,,,PracticeSession
1624262475.88,stimulus,1,16,,,PracticeSession
1624262476.38,fixation,1,16,,,PracticeSession
1624262477.88,stimulus,1,17,,,PracticeSession
1624262478.38,fixation,1,17,,,PracticeSession
1624262479.88,stimulus,1,18,,,PracticeSession
1624262480.38,fixation,1,18,,,PracticeSession
1624262481.88,stimulus,1,19,,,PracticeSession
1624262482.38,fixation,1,19,,,PracticeSession
1624262483.88,stimulus,1,20,,,PracticeSession
1624262484.38,fixation,1,20,,,PracticeSession
1624262485.88,stimulus,1,21,,,PracticeSession
1624262486.38,fixation,1,21,,,PracticeSession
1624262487.88,stimulus,1,22,,,PracticeSession
1624262488.38,fixation,1,22,,,PracticeSession
1624262489.88,stimulus,1,23,,,PracticeSession
1624262490.38,fixation,1,23,,,PracticeSession
1624262491.88,stimulus,1,24,,,PracticeSession
1624262492.38,fixation,1,24,,,PracticeSession
1624262493.88,stimulus,1,25,,,PracticeSession
1624262494.38,fixation,1,25,,,PracticeSession
1624262495.88,stimulus,1,26,,,PracticeSession
1624262496.38,fixation,1,26,,,PracticeSession
1624262497.88,stimulus,1,27,,,PracticeSession
1624262498.38,fixation,1,27,,,PracticeSession
1624262499.88,stimulus,1,28,,,PracticeSession
1624262500.38,fixation,1,28,,,PracticeSession
1624262501.88,stimulus,1,29,,,PracticeSession
1624262502.38,fixation,1,29,,,PracticeSession
1624262503.88,stimulus,1,30,,,PracticeSession
1624262504.38,fixation,1,30,,,PracticeSession
1624262505.88,stimulus,1,31,,,PracticeSession
1624262506.38,fixation,1,31,,,PracticeSession
1624262507.88,stimulus,1,32,,,PracticeSession
1624262508.38,fixation,1,32,,,PracticeSession
1624262509.88,stimulus,1,33,,,PracticeSession
1624262510.38,fixation,1,33,,,PracticeSession
1624262511.88,stimulus,1,34,,,PracticeSession
1624262512.38,fixation,1,34,,,PracticeSession
1624262513.88,stimulus,1,35,,,PracticeSession
1624262514.38,fixation,1,35,,,PracticeSession
1624262515.88,stimulus,1,36,,,PracticeSession
1624262516.38,fixation,1,36,,,PracticeSession
1624262517.88,stimulus,1,37,,,PracticeSession
1624262518.38,fixation,1,37,,,PracticeSession
1624262519.88,stimulus,1,38,,,PracticeSession
1624262520.38,fixation,1,38,,,PracticeSession
1624262521.88,stimulus,1,39,,,PracticeSession
1624262522.38,fixation,1,39,,,PracticeSession
1624262523.88,stimulus,1,40,,,PracticeSession
1624262524.38,fixation,1,40,,,PracticeSession
1624262525.88,stimulus,1,41,,,PracticeSession
1624262526.38,fixation,1,41,,,PracticeSession
1624262527.88,stimulus,1,42,,,PracticeSession
1624262528.38,fixation,1,42,,,PracticeSession
1624262529.88,stimulus,1,43,,,PracticeSession
1624262530.38,fixation,1,43,,,PracticeSession
1624262531.88,stimulus,1,44,,,PracticeSession
1624262532.38,fixation,1,44,,,PracticeSession
1624262534.2910001,stimulus,1,45,0.411,1.0,NoMusic
1624262534.38,fixation,1,45,,0.0,NoMusic
1624262536.2110002,stimulus,1,46,0.331,1.0,NoMusic
1624262536.38,fixation,1,46,,0.0,NoMusic
1624262538.206,stimulus,1,47,0.326,1.0,NoMusic
1624262538.38,fixation,1,47,,0.0,NoMusic
1624262540.2350001,stimulus,1,48,0.355,1.0,NoMusic
1624262540.38,fixation,1,48,,0.0,NoMusic
1624262542.236,stimulus,1,49,0.356,1.0,NoMusic
1624262542.38,fixation,1,49,,0.0,NoMusic
1624262544.19,stimulus,1,50,0.31,1.0,NoMusic
1624262544.38,fixation,1,50,,0.0,NoMusic
1624262546.249,stimulus,1,51,0.369,0.0,NoMusic
1624262546.38,fixation,1,51,,0.0,NoMusic
1624262548.266,stimulus,1,52,0.386,1.0,NoMusic
1624262548.38,fixation,1,52,,0.0,NoMusic
1624262550.219,stimulus,1,53,0.339,1.0,NoMusic
1624262550.38,fixation,1,53,,0.0,NoMusic
1624262552.269,stimulus,1,54,0.389,1.0,NoMusic
1624262552.38,fixation,1,54,,0.0,NoMusic
1624262554.197,stimulus,1,55,0.317,1.0,NoMusic
1624262554.38,fixation,1,55,,0.0,NoMusic
1624262556.1880002,stimulus,1,56,0.308,1.0,NoMusic
1624262556.38,fixation,1,56,,0.0,NoMusic
1624262558.213,stimulus,1,57,0.333,1.0,NoMusic
1624262558.38,fixation,1,57,,0.0,NoMusic
1624262560.233,stimulus,1,58,0.353,1.0,NoMusic
1624262560.38,fixation,1,58,,0.0,NoMusic
1624262562.242,stimulus,1,59,0.362,1.0,NoMusic
1624262562.38,fixation,1,59,,0.0,NoMusic
1624262564.196,stimulus,1,60,0.316,1.0,NoMusic
1624262564.38,fixation,1,60,,0.0,NoMusic
1624262566.2640002,stimulus,1,61,0.384,1.0,NoMusic
1624262566.38,fixation,1,61,,0.0,NoMusic
1624262568.2540002,stimulus,1,62,0.374,1.0,NoMusic
1624262568.38,fixation,1,62,,0.0,NoMusic
1624262570.23,stimulus,1,63,0.35,1.0,NoMusic
1624262570.38,fixation,1,63,,0.0,NoMusic
1624262572.219,stimulus,1,64,0.339,1.0,NoMusic
1624262572.38,fixation,1,64,,0.0,NoMusic
1624262574.232,stimulus,1,65,0.352,1.0,NoMusic
1624262574.38,fixation,1,65,,0.0,NoMusic
1624262576.216,stimulus,1,66,0.336,1.0,NoMusic
1624262576.38,fixation,1,66,,0.0,NoMusic
1624262578.289,stimulus,1,67,0.409,1.0,NoMusic
1624262578.38,fixation,1,67,,0.0,NoMusic
1624262580.1350002,stimulus,1,68,0.255,1.0,NoMusic
1624262580.38,fixation,1,68,,0.0,NoMusic
1624262582.171,stimulus,1,69,0.291,1.0,NoMusic
1624262582.38,fixation,1,69,,0.0,NoMusic
1624262584.2,stimulus,1,70,0.32,1.0,NoMusic
1624262584.38,fixation,1,70,,0.0,NoMusic
1624262586.2,stimulus,1,71,0.32,1.0,NoMusic
1624262586.38,fixation,1,71,,0.0,NoMusic
1624262588.2370002,stimulus,1,72,0.357,1.0,NoMusic
1624262588.38,fixation,1,72,,0.0,NoMusic
1624262590.216,stimulus,1,73,0.336,1.0,NoMusic
1624262590.38,fixation,1,73,,0.0,NoMusic
1624262592.197,stimulus,1,74,0.317,0.0,NoMusic
1624262592.38,fixation,1,74,,0.0,NoMusic
1624262594.183,stimulus,1,75,0.303,1.0,NoMusic
1624262594.38,fixation,1,75,,0.0,NoMusic
1624262596.2450001,stimulus,1,76,0.365,1.0,NoMusic
1624262596.38,fixation,1,76,,0.0,NoMusic
1624262598.233,stimulus,1,77,0.353,1.0,NoMusic
1624262598.38,fixation,1,77,,0.0,NoMusic
1624262600.197,stimulus,1,78,0.317,1.0,NoMusic
1624262600.38,fixation,1,78,,0.0,NoMusic
1624262602.1880002,stimulus,1,79,0.308,1.0,NoMusic
1624262602.38,fixation,1,79,,0.0,NoMusic
1624262604.206,stimulus,1,80,0.326,1.0,NoMusic
1624262604.38,fixation,1,80,,0.0,NoMusic
1624262606.246,stimulus,1,81,0.366,1.0,NoMusic
1624262606.38,fixation,1,81,,0.0,NoMusic
1624262608.263,stimulus,1,82,0.383,1.0,NoMusic
1624262608.38,fixation,1,82,,0.0,NoMusic
1624262610.2610002,stimulus,1,83,0.381,1.0,NoMusic
1624262610.38,fixation,1,83,,0.0,NoMusic
1624262612.3530002,stimulus,1,84,0.473,1.0,NoMusic
1624262612.38,fixation,1,84,,0.0,NoMusic
1624262614.223,stimulus,1,85,0.343,1.0,NoMusic
1624262614.38,fixation,1,85,,0.0,NoMusic
1624262616.2020001,stimulus,1,86,0.322,1.0,NoMusic
1624262616.38,fixation,1,86,,0.0,NoMusic
1624262618.209,stimulus,1,87,0.329,1.0,NoMusic
1624262618.38,fixation,1,87,,0.0,NoMusic
1624262620.3170002,stimulus,1,88,0.437,1.0,NoMusic
1624262620.38,fixation,1,88,,0.0,NoMusic
1624262622.2870002,stimulus,1,89,0.407,1.0,NoMusic
1624262622.38,fixation,1,89,,0.0,NoMusic
1624262624.1290002,stimulus,1,90,0.249,1.0,NoMusic
1624262624.38,fixation,1,90,,0.0,NoMusic
1624262626.173,stimulus,1,91,0.293,1.0,NoMusic
1624262626.38,fixation,1,91,,0.0,NoMusic
1624262628.1430001,stimulus,1,92,0.263,1.0,NoMusic
1624262628.38,fixation,1,92,,0.0,NoMusic
1624262630.217,stimulus,1,93,0.337,1.0,NoMusic
1624262630.694,fixation,1,93,0.314,0.0,NoMusic
1624262632.2250001,stimulus,1,94,0.345,1.0,NoMusic
1624262632.38,fixation,1,94,,0.0,NoMusic
1624262634.2380002,stimulus,1,95,0.358,1.0,NoMusic
1624262634.38,fixation,1,95,,0.0,NoMusic
1624262636.213,stimulus,1,96,0.333,1.0,NoMusic
1624262636.38,fixation,1,96,,0.0,NoMusic
1624262638.2480001,stimulus,1,97,0.368,1.0,NoMusic
1624262638.38,fixation,1,97,,0.0,NoMusic
1624262640.243,stimulus,1,98,0.363,1.0,NoMusic
1624262640.38,fixation,1,98,,0.0,NoMusic
1624262642.2120001,stimulus,1,99,0.332,1.0,NoMusic
1624262642.38,fixation,1,99,,0.0,NoMusic
1624262644.216,stimulus,1,100,0.336,1.0,NoMusic
1624262644.38,fixation,1,100,,0.0,NoMusic
1624262646.2470002,stimulus,1,101,0.367,1.0,NoMusic
1624262646.38,fixation,1,101,,0.0,NoMusic
1624262648.2600002,stimulus,1,102,0.38,1.0,NoMusic
1624262648.38,fixation,1,102,,0.0,NoMusic
1624262650.2280002,stimulus,1,103,0.348,1.0,NoMusic
1624262650.38,fixation,1,103,,0.0,NoMusic
1624262651.88,stimulus,1,104,,0.0,NoMusic
1624262652.3820002,fixation,1,104,0.002,1.0,NoMusic
1624262654.22,stimulus,1,105,0.34,1.0,NoMusic
1624262654.38,fixation,1,105,,0.0,NoMusic
1624262656.213,stimulus,1,106,0.333,1.0,NoMusic
1624262656.38,fixation,1,106,,0.0,NoMusic
1624262658.2480001,stimulus,1,107,0.368,1.0,NoMusic
1624262658.38,fixation,1,107,,0.0,NoMusic
1624262660.2810001,stimulus,1,108,0.401,1.0,NoMusic
1624262660.38,fixation,1,108,,0.0,NoMusic
1624262661.88,stimulus,1,109,,0.0,NoMusic
1624262662.446,fixation,1,109,0.066,1.0,NoMusic
1624262664.22,stimulus,1,110,0.34,1.0,NoMusic
1624262664.38,fixation,1,110,,0.0,NoMusic
1624262666.21,stimulus,1,111,0.33,1.0,NoMusic
1624262666.38,fixation,1,111,,0.0,NoMusic
1624262668.0970001,stimulus,1,112,0.217,1.0,NoMusic
1624262668.38,fixation,1,112,,0.0,NoMusic
1624262670.204,stimulus,1,113,0.324,1.0,NoMusic
1624262670.38,fixation,1,113,,0.0,NoMusic
1624262672.2120001,stimulus,1,114,0.332,1.0,NoMusic
1624262672.38,fixation,1,114,,0.0,NoMusic
1624262674.183,stimulus,1,115,0.303,1.0,NoMusic
1624262674.38,fixation,1,115,,0.0,NoMusic
1624262676.171,stimulus,1,116,0.291,1.0,NoMusic
1624262676.38,fixation,1,116,,0.0,NoMusic
1624262678.1850002,stimulus,1,117,0.305,1.0,NoMusic
1624262678.38,fixation,1,117,,0.0,NoMusic
1624262680.2670002,stimulus,1,118,0.387,1.0,NoMusic
1624262680.38,fixation,1,118,,0.0,NoMusic
1624262682.2830002,stimulus,1,119,0.403,1.0,NoMusic
1624262682.38,fixation,1,119,,0.0,NoMusic
1624262684.22,stimulus,1,120,0.34,1.0,NoMusic
1624262684.38,fixation,1,120,,0.0,NoMusic
1624262686.298,stimulus,1,121,0.418,1.0,NoMusic
1624262686.38,fixation,1,121,,0.0,NoMusic
1624262688.2480001,stimulus,1,122,0.368,1.0,NoMusic
1624262688.38,fixation,1,122,,0.0,NoMusic
1624262690.292,stimulus,1,123,0.412,1.0,NoMusic
1624262690.38,fixation,1,123,,0.0,NoMusic
1624262692.1880002,stimulus,1,124,0.308,1.0,NoMusic
1624262692.38,fixation,1,124,,0.0,NoMusic
1624262694.154,stimulus,1,125,0.274,1.0,NoMusic
1624262694.38,fixation,1,125,,0.0,NoMusic
1624262696.2050002,stimulus,1,126,0.325,1.0,NoMusic
1624262696.38,fixation,1,126,,0.0,NoMusic
1624262698.161,stimulus,1,127,0.281,1.0,NoMusic
1624262698.38,fixation,1,127,,0.0,NoMusic
1624262700.3470001,stimulus,1,128,0.467,1.0,NoMusic
1624262700.38,fixation,1,128,,0.0,NoMusic
1624262702.2180002,stimulus,1,129,0.338,1.0,NoMusic
1624262702.38,fixation,1,129,,0.0,NoMusic
1624262704.288,stimulus,1,130,0.408,1.0,NoMusic
1624262704.38,fixation,1,130,,0.0,NoMusic
1624262706.1990001,stimulus,1,131,0.319,1.0,NoMusic
1624262706.38,fixation,1,131,,0.0,NoMusic
1624262708.2280002,stimulus,1,132,0.348,1.0,NoMusic
1624262708.38,fixation,1,132,,0.0,NoMusic
1624262710.226,stimulus,1,133,0.346,1.0,NoMusic
1624262710.38,fixation,1,133,,0.0,NoMusic
1624262712.105,stimulus,1,134,0.225,1.0,NoMusic
1624262712.38,fixation,1,134,,0.0,NoMusic
1624262714.125,stimulus,1,135,0.245,1.0,NoMusic
1624262714.38,fixation,1,135,,0.0,NoMusic
1624262716.2080002,stimulus,1,136,0.328,1.0,NoMusic
1624262716.38,fixation,1,136,,0.0,NoMusic
1624262718.1980002,stimulus,1,137,0.318,1.0,NoMusic
1624262718.38,fixation,1,137,,0.0,NoMusic
1624262720.2010002,stimulus,1,138,0.321,1.0,NoMusic
1624262720.38,fixation,1,138,,0.0,NoMusic
1624262722.2210002,stimulus,1,139,0.341,1.0,NoMusic
1624262722.38,fixation,1,139,,0.0,NoMusic
1624262724.183,stimulus,1,140,0.303,1.0,NoMusic
1624262724.38,fixation,1,140,,0.0,NoMusic
1624262726.1790001,stimulus,1,141,0.299,1.0,NoMusic
1624262726.38,fixation,1,141,,0.0,NoMusic
1624262728.295,stimulus,1,142,0.415,1.0,NoMusic
1624262728.38,fixation,1,142,,0.0,NoMusic
1624262730.2440002,stimulus,1,143,0.364,1.0,NoMusic
1624262730.38,fixation,1,143,,0.0,NoMusic
1624262732.219,stimulus,1,144,0.339,1.0,NoMusic
1624262732.38,fixation,1,144,,0.0,NoMusic
1624262734.1890001,stimulus,1,145,0.309,0.0,NoMusic
1624262734.38,fixation,1,145,,0.0,NoMusic
1624262736.1810002,stimulus,1,146,0.301,1.0,NoMusic
1624262736.38,fixation,1,146,,0.0,NoMusic
1624262738.176,stimulus,1,147,0.296,0.0,NoMusic
1624262738.38,fixation,1,147,,0.0,NoMusic
1624262740.236,stimulus,1,148,0.356,1.0,NoMusic
1624262740.38,fixation,1,148,,0.0,NoMusic
1624262742.203,stimulus,1,149,0.323,1.0,NoMusic
1624262742.38,fixation,1,149,,0.0,NoMusic
1624262744.1990001,stimulus,1,150,0.319,1.0,NoMusic
1624262744.38,fixation,1,150,,0.0,NoMusic
1624262746.2450001,stimulus,1,151,0.365,1.0,NoMusic
1624262746.38,fixation,1,151,,0.0,NoMusic
1624262748.21,stimulus,1,152,0.33,1.0,NoMusic
1624262748.38,fixation,1,152,,0.0,NoMusic
1624262750.2010002,stimulus,1,153,0.321,1.0,NoMusic
1624262750.38,fixation,1,153,,0.0,NoMusic
1624262752.21,stimulus,1,154,0.33,1.0,NoMusic
1624262752.38,fixation,1,154,,0.0,NoMusic
1624262754.352,stimulus,1,155,0.472,1.0,NoMusic
1624262754.38,fixation,1,155,,0.0,NoMusic
1624262756.21,stimulus,1,156,0.33,1.0,NoMusic
1624262756.38,fixation,1,156,,0.0,NoMusic
1624262758.1460001,stimulus,1,157,0.266,1.0,NoMusic
1624262758.38,fixation,1,157,,0.0,NoMusic
1624262760.204,stimulus,1,158,0.324,1.0,NoMusic
1624262760.38,fixation,1,158,,0.0,NoMusic
1624262762.2580001,stimulus,1,159,0.378,1.0,NoMusic
1624262762.38,fixation,1,159,,0.0,NoMusic
1624262764.272,stimulus,1,160,0.392,1.0,NoMusic
1624262764.38,fixation,1,160,,0.0,NoMusic
1624262766.167,stimulus,1,161,0.287,1.0,NoMusic
1624262766.38,fixation,1,161,,0.0,NoMusic
1624262768.187,stimulus,1,162,0.307,1.0,NoMusic
1624262768.38,fixation,1,162,,0.0,NoMusic
1624262770.19,stimulus,1,163,0.31,1.0,NoMusic
1624262770.38,fixation,1,163,,0.0,NoMusic
1624262772.1890001,stimulus,1,164,0.309,1.0,NoMusic
1624262772.38,fixation,1,164,,0.0,NoMusic
1624262774.2450001,stimulus,1,165,0.365,1.0,NoMusic
1624262774.38,fixation,1,165,,0.0,NoMusic
1624262776.173,stimulus,1,166,0.293,1.0,NoMusic
1624262776.38,fixation,1,166,,0.0,NoMusic
1624262778.2150002,stimulus,1,167,0.335,1.0,NoMusic
1624262778.38,fixation,1,167,,0.0,NoMusic
1624262780.2010002,stimulus,1,168,0.321,1.0,NoMusic
1624262780.38,fixation,1,168,,0.0,NoMusic
1624262782.21,stimulus,1,169,0.33,1.0,NoMusic
1624262782.38,fixation,1,169,,0.0,NoMusic
1624262784.226,stimulus,1,170,0.346,1.0,NoMusic
1624262784.38,fixation,1,170,,0.0,NoMusic
1624262786.187,stimulus,1,171,0.307,1.0,NoMusic
1624262786.38,fixation,1,171,,0.0,NoMusic
1624262788.2340002,stimulus,1,172,0.354,1.0,NoMusic
1624262788.38,fixation,1,172,,0.0,NoMusic
1624262790.17,stimulus,1,173,0.29,1.0,NoMusic
1624262790.38,fixation,1,173,,0.0,NoMusic
1624262792.2340002,stimulus,1,174,0.354,1.0,NoMusic
1624262792.38,fixation,1,174,,0.0,NoMusic
1624262794.174,stimulus,1,175,0.294,0.0,NoMusic
1624262794.38,fixation,1,175,,0.0,NoMusic
1624262796.256,stimulus,1,176,0.376,1.0,NoMusic
1624262796.38,fixation,1,176,,0.0,NoMusic
1624262798.2410002,stimulus,1,177,0.361,1.0,NoMusic
1624262798.38,fixation,1,177,,0.0,NoMusic
1624262800.18,stimulus,1,178,0.3,1.0,NoMusic
1624262800.38,fixation,1,178,,0.0,NoMusic
1624262802.19,stimulus,1,179,0.31,1.0,NoMusic
1624262802.38,fixation,1,179,,0.0,NoMusic
1624262804.2210002,stimulus,1,180,0.341,1.0,NoMusic
1624262804.38,fixation,1,180,,0.0,NoMusic
1624262806.1650002,stimulus,1,181,0.285,1.0,NoMusic
1624262806.38,fixation,1,181,,0.0,NoMusic
1624262808.1720002,stimulus,1,182,0.292,1.0,NoMusic
1624262808.38,fixation,1,182,,0.0,NoMusic
1624262810.1620002,stimulus,1,183,0.282,1.0,NoMusic
1624262810.38,fixation,1,183,,0.0,NoMusic
1624262812.1490002,stimulus,1,184,0.269,1.0,NoMusic
1624262812.38,fixation,1,184,,0.0,NoMusic
1624262814.1560001,stimulus,1,185,0.276,1.0,NoMusic
1624262814.38,fixation,1,185,,0.0,NoMusic
1624262816.171,stimulus,1,186,0.291,1.0,NoMusic
1624262816.38,fixation,1,186,,0.0,NoMusic
1624262818.17,stimulus,1,187,0.29,0.0,NoMusic
1624262818.6920002,fixation,1,187,0.312,1.0,NoMusic
1624262820.177,stimulus,1,188,0.297,1.0,NoMusic
1624262820.38,fixation,1,188,,0.0,NoMusic
1624262822.2700002,stimulus,1,189,0.39,1.0,NoMusic
1624262822.38,fixation,1,189,,0.0,NoMusic
1624262824.378,stimulus,1,190,0.498,1.0,NoMusic
1624262824.38,fixation,1,190,,0.0,NoMusic
1624262826.2020001,stimulus,1,191,0.322,1.0,NoMusic
1624262826.38,fixation,1,191,,0.0,NoMusic
1624262828.173,stimulus,1,192,0.293,1.0,NoMusic
1624262828.38,fixation,1,192,,0.0,NoMusic
1624262830.255,stimulus,1,193,0.375,1.0,NoMusic
1624262830.38,fixation,1,193,,0.0,NoMusic
1624262832.177,stimulus,1,194,0.297,1.0,NoMusic
1624262832.38,fixation,1,194,,0.0,NoMusic
1624262834.217,stimulus,1,195,0.337,1.0,NoMusic
1624262834.38,fixation,1,195,,0.0,NoMusic
1624262836.2670002,stimulus,1,196,0.387,1.0,NoMusic
1624262836.38,fixation,1,196,,0.0,NoMusic
1624262838.1660001,stimulus,1,197,0.286,1.0,NoMusic
1624262838.38,fixation,1,197,,0.0,NoMusic
1624262840.204,stimulus,1,198,0.324,1.0,NoMusic
1624262840.38,fixation,1,198,,0.0,NoMusic
1624262842.2840002,stimulus,1,199,0.404,1.0,NoMusic
1624262842.38,fixation,1,199,,0.0,NoMusic
1624262844.091,stimulus,1,200,0.211,1.0,NoMusic
1624262844.38,fixation,1,200,,0.0,NoMusic
1624262846.21,stimulus,1,201,0.33,1.0,NoMusic
1624262846.38,fixation,1,201,,0.0,NoMusic
1624262848.17,stimulus,1,202,0.29,1.0,NoMusic
1624262848.38,fixation,1,202,,0.0,NoMusic
1624262850.176,stimulus,1,203,0.296,1.0,NoMusic
1624262850.38,fixation,1,203,,0.0,NoMusic
1624262852.1290002,stimulus,1,204,0.249,1.0,NoMusic
1624262852.38,fixation,1,204,,0.0,NoMusic
1624262854.331,stimulus,1,205,0.451,1.0,NoMusic
1624262854.38,fixation,1,205,,0.0,NoMusic
1624262856.219,stimulus,1,206,0.339,1.0,NoMusic
1624262856.38,fixation,1,206,,0.0,NoMusic
1624262858.2340002,stimulus,1,207,0.354,1.0,NoMusic
1624262858.38,fixation,1,207,,0.0,NoMusic
1624262860.256,stimulus,1,208,0.376,1.0,NoMusic
1624262860.38,fixation,1,208,,0.0,NoMusic
1624262862.2380002,stimulus,1,209,0.358,1.0,NoMusic
1624262862.38,fixation,1,209,,0.0,NoMusic
1624262864.2080002,stimulus,1,210,0.328,1.0,NoMusic
1624262864.38,fixation,1,210,,0.0,NoMusic
1624262866.2580001,stimulus,1,211,0.378,1.0,NoMusic
1624262866.38,fixation,1,211,,0.0,NoMusic
1624262868.227,stimulus,1,212,0.347,1.0,NoMusic
1624262868.38,fixation,1,212,,0.0,NoMusic
1624262870.1950002,stimulus,1,213,0.315,1.0,NoMusic
1624262870.38,fixation,1,213,,0.0,NoMusic
1624262872.2110002,stimulus,1,214,0.331,1.0,NoMusic
1624262872.38,fixation,1,214,,0.0,NoMusic
1624262874.371,stimulus,1,215,0.491,1.0,NoMusic
1624262874.38,fixation,1,215,,0.0,NoMusic
1624262876.236,stimulus,1,216,0.356,1.0,NoMusic
1624262876.38,fixation,1,216,,0.0,NoMusic
1624262878.255,stimulus,1,217,0.375,0.0,NoMusic
1624262878.38,fixation,1,217,,0.0,NoMusic
1624262880.2540002,stimulus,1,218,0.374,1.0,NoMusic
1624262880.38,fixation,1,218,,0.0,NoMusic
1624262882.2250001,stimulus,1,219,0.345,1.0,NoMusic
1624262882.38,fixation,1,219,,0.0,NoMusic
1624262884.2,stimulus,1,220,0.32,1.0,NoMusic
1624262884.38,fixation,1,220,,0.0,NoMusic
1624262885.88,stimulus,1,221,,,NoMusic
1624262886.38,fixation,1,221,,,NoMusic
1624262888.2310002,stimulus,1,222,0.351,1.0,NoMusic
1624262888.38,fixation,1,222,,0.0,NoMusic
1624262890.1260002,stimulus,1,223,0.246,1.0,NoMusic
1624262890.38,fixation,1,223,,0.0,NoMusic
1624262892.1490002,stimulus,1,224,0.269,1.0,NoMusic
1624262892.38,fixation,1,224,,0.0,NoMusic
1624262894.1780002,stimulus,1,225,0.298,1.0,NoMusic
1624262894.38,fixation,1,225,,0.0,NoMusic
1624262896.219,stimulus,1,226,0.339,1.0,NoMusic
1624262896.38,fixation,1,226,,0.0,NoMusic
1624262898.217,stimulus,1,227,0.337,1.0,NoMusic
1624262898.38,fixation,1,227,,0.0,NoMusic
1624262900.1910002,stimulus,1,228,0.311,1.0,NoMusic
1624262900.38,fixation,1,228,,0.0,NoMusic
1624262902.227,stimulus,1,229,0.347,1.0,NoMusic
1624262902.38,fixation,1,229,,0.0,NoMusic
1624262904.1790001,stimulus,1,230,0.299,0.0,NoMusic
1624262904.38,fixation,1,230,,0.0,NoMusic
1624262906.2310002,stimulus,1,231,0.351,1.0,NoMusic
1624262906.38,fixation,1,231,,0.0,NoMusic
1624262908.207,stimulus,1,232,0.327,1.0,NoMusic
1624262908.38,fixation,1,232,,0.0,NoMusic
1624262910.197,stimulus,1,233,0.317,0.0,NoMusic
1624262910.38,fixation,1,233,,0.0,NoMusic
1624262912.3700001,stimulus,1,234,0.49,1.0,NoMusic
1624262912.38,fixation,1,234,,0.0,NoMusic
1624262914.196,stimulus,1,235,0.316,0.0,NoMusic
1624262914.38,fixation,1,235,,0.0,NoMusic
1624262916.213,stimulus,1,236,0.333,1.0,NoMusic
1624262916.38,fixation,1,236,,0.0,NoMusic
1624262918.203,stimulus,1,237,0.323,1.0,NoMusic
1624262918.38,fixation,1,237,,0.0,NoMusic
1624262920.2140002,stimulus,1,238,0.334,1.0,NoMusic
1624262920.38,fixation,1,238,,0.0,NoMusic
1624262922.217,stimulus,1,239,0.337,1.0,NoMusic
1624262922.38,fixation,1,239,,0.0,NoMusic
1624262924.273,stimulus,1,240,0.393,1.0,NoMusic
1624262924.38,fixation,1,240,,0.0,NoMusic
1624262926.2910001,stimulus,1,241,0.411,1.0,NoMusic
1624262926.38,fixation,1,241,,0.0,NoMusic
1624262928.2220001,stimulus,1,242,0.342,1.0,NoMusic
1624262928.38,fixation,1,242,,0.0,NoMusic
1624262930.213,stimulus,1,243,0.333,0.0,NoMusic
1624262930.38,fixation,1,243,,0.0,NoMusic
1624262932.255,stimulus,1,244,0.375,1.0,NoMusic
1624262932.38,fixation,1,244,,0.0,NoMusic
1624262934.278,stimulus,1,245,0.398,1.0,NoMusic
1624262934.38,fixation,1,245,,0.0,NoMusic
1624262936.263,stimulus,1,246,0.383,1.0,NoMusic
1624262936.38,fixation,1,246,,0.0,NoMusic
1624262938.187,stimulus,1,247,0.307,1.0,NoMusic
1624262938.38,fixation,1,247,,0.0,NoMusic
1624262940.233,stimulus,1,248,0.353,1.0,NoMusic
1624262940.38,fixation,1,248,,0.0,NoMusic
1624262942.1850002,stimulus,1,249,0.305,1.0,NoMusic
1624262942.38,fixation,1,249,,0.0,NoMusic
1624262944.173,stimulus,1,250,0.293,1.0,NoMusic
1624262944.38,fixation,1,250,,0.0,NoMusic
1624262946.23,stimulus,1,251,0.35,1.0,NoMusic
1624262946.38,fixation,1,251,,0.0,NoMusic
1624262948.269,stimulus,1,252,0.389,1.0,NoMusic
1624262948.38,fixation,1,252,,0.0,NoMusic
1624262950.2380002,stimulus,1,253,0.358,1.0,NoMusic
1624262950.38,fixation,1,253,,0.0,NoMusic
1624262952.233,stimulus,1,254,0.353,1.0,NoMusic
1624262952.38,fixation,1,254,,0.0,NoMusic
1624262954.1810002,stimulus,1,255,0.301,1.0,NoMusic
1624262954.38,fixation,1,255,,0.0,NoMusic
1624262956.196,stimulus,1,256,0.316,1.0,NoMusic
1624262956.38,fixation,1,256,,0.0,NoMusic
1624262958.1460001,stimulus,1,257,0.266,1.0,NoMusic
1624262958.38,fixation,1,257,,0.0,NoMusic
1624262960.1910002,stimulus,1,258,0.311,1.0,NoMusic
1624262960.38,fixation,1,258,,0.0,NoMusic
1624262962.1920002,stimulus,1,259,0.312,1.0,NoMusic
1624262962.38,fixation,1,259,,0.0,NoMusic
1624262964.1580002,stimulus,1,260,0.278,1.0,NoMusic
1624262964.38,fixation,1,260,,0.0,NoMusic
1624262966.18,stimulus,1,261,0.3,1.0,NoMusic
1624262966.38,fixation,1,261,,0.0,NoMusic
1624262968.1790001,stimulus,1,262,0.299,1.0,NoMusic
1624262968.38,fixation,1,262,,0.0,NoMusic
1624262970.203,stimulus,1,263,0.323,1.0,NoMusic
1624262970.38,fixation,1,263,,0.0,NoMusic
1624262972.233,stimulus,1,264,0.353,1.0,NoMusic
1624262972.38,fixation,1,264,,0.0,NoMusic
1624262974.1820002,stimulus,1,265,0.302,1.0,NoMusic
1624262974.38,fixation,1,265,,0.0,NoMusic
1624262976.295,stimulus,1,266,0.415,1.0,NoMusic
1624262976.38,fixation,1,266,,0.0,NoMusic
1624262978.167,stimulus,1,267,0.287,1.0,NoMusic
1624262978.38,fixation,1,267,,0.0,NoMusic
1624262980.171,stimulus,1,268,0.291,1.0,NoMusic
1624262980.38,fixation,1,268,,0.0,NoMusic
1624262982.173,stimulus,1,269,0.293,1.0,NoMusic
1624262982.38,fixation,1,269,,0.0,NoMusic
1624262984.196,stimulus,1,270,0.316,1.0,NoMusic
1624262984.38,fixation,1,270,,0.0,NoMusic
1624262986.193,stimulus,1,271,0.313,1.0,NoMusic
1624262986.38,fixation,1,271,,0.0,NoMusic
1624262988.23,stimulus,1,272,0.35,1.0,NoMusic
1624262988.38,fixation,1,272,,0.0,NoMusic
1624262990.2280002,stimulus,1,273,0.348,1.0,NoMusic
1624262990.38,fixation,1,273,,0.0,NoMusic
1624262992.1490002,stimulus,1,274,0.269,1.0,NoMusic
1624262992.38,fixation,1,274,,0.0,NoMusic
1624262994.1790001,stimulus,1,275,0.299,1.0,NoMusic
1624262994.38,fixation,1,275,,0.0,NoMusic
1624262996.3030002,stimulus,1,276,0.423,1.0,NoMusic
1624262996.38,fixation,1,276,,0.0,NoMusic
1624262998.16,stimulus,1,277,0.28,1.0,NoMusic
1624262998.38,fixation,1,277,,0.0,NoMusic
1624263000.183,stimulus,1,278,0.303,1.0,NoMusic
1624263000.38,fixation,1,278,,0.0,NoMusic
1624263002.183,stimulus,1,279,0.303,1.0,NoMusic
1624263002.38,fixation,1,279,,0.0,NoMusic
1624263004.2110002,stimulus,1,280,0.331,1.0,NoMusic
1624263004.38,fixation,1,280,,0.0,NoMusic
1624263006.18,stimulus,1,281,0.3,1.0,NoMusic
1624263006.38,fixation,1,281,,0.0,NoMusic
1624263008.186,stimulus,1,282,0.306,1.0,NoMusic
1624263008.38,fixation,1,282,,0.0,NoMusic
1624263010.193,stimulus,1,283,0.313,1.0,NoMusic
1624263010.38,fixation,1,283,,0.0,NoMusic
1624263012.157,stimulus,1,284,0.277,1.0,NoMusic
1624263012.38,fixation,1,284,,0.0,NoMusic
1624263014.209,stimulus,1,285,0.329,1.0,NoMusic
1624263014.38,fixation,1,285,,0.0,NoMusic
1624263016.2770002,stimulus,1,286,0.397,1.0,NoMusic
1624263016.38,fixation,1,286,,0.0,NoMusic
1624263018.153,stimulus,1,287,0.273,1.0,NoMusic
1624263018.38,fixation,1,287,,0.0,NoMusic
1624263020.23,stimulus,1,288,0.35,1.0,NoMusic
1624263020.38,fixation,1,288,,0.0,NoMusic
1624263022.092,stimulus,1,289,0.212,1.0,NoMusic
1624263022.38,fixation,1,289,,0.0,NoMusic
1624263024.17,stimulus,1,290,0.29,1.0,NoMusic
1624263024.38,fixation,1,290,,0.0,NoMusic
1624263026.2050002,stimulus,1,291,0.325,1.0,NoMusic
1624263026.38,fixation,1,291,,0.0,NoMusic
1624263028.1750002,stimulus,1,292,0.295,1.0,NoMusic
1624263028.38,fixation,1,292,,0.0,NoMusic
1624263030.197,stimulus,1,293,0.317,1.0,NoMusic
1624263030.38,fixation,1,293,,0.0,NoMusic
1624263032.2240002,stimulus,1,294,0.344,0.0,NoMusic
1624263032.38,fixation,1,294,,0.0,NoMusic
1624263034.1690001,stimulus,1,295,0.289,1.0,NoMusic
1624263034.38,fixation,1,295,,0.0,NoMusic
1624263036.216,stimulus,1,296,0.336,1.0,NoMusic
1624263036.38,fixation,1,296,,0.0,NoMusic
1624263038.24,stimulus,1,297,0.36,1.0,NoMusic
1624263038.38,fixation,1,297,,0.0,NoMusic
1624263040.2180002,stimulus,1,298,0.338,1.0,NoMusic
1624263040.38,fixation,1,298,,0.0,NoMusic
1624263042.2220001,stimulus,1,299,0.342,1.0,NoMusic
1624263042.38,fixation,1,299,,0.0,NoMusic
1624263044.217,stimulus,1,300,0.337,1.0,NoMusic
1624263044.38,fixation,1,300,,0.0,NoMusic
1624263046.1790001,stimulus,1,301,0.299,1.0,NoMusic
1624263046.38,fixation,1,301,,0.0,NoMusic
1624263048.2120001,stimulus,1,302,0.332,1.0,NoMusic
1624263048.38,fixation,1,302,,0.0,NoMusic
1624263050.19,stimulus,1,303,0.31,1.0,NoMusic
1624263050.38,fixation,1,303,,0.0,NoMusic
1624263052.2020001,stimulus,1,304,0.322,1.0,NoMusic
1624263052.38,fixation,1,304,,0.0,NoMusic
1624263054.1780002,stimulus,1,305,0.298,1.0,NoMusic
1624263054.38,fixation,1,305,,0.0,NoMusic
1624263056.219,stimulus,1,306,0.339,1.0,NoMusic
1624263056.38,fixation,1,306,,0.0,NoMusic
1624263058.1890001,stimulus,1,307,0.309,1.0,NoMusic
1624263058.38,fixation,1,307,,0.0,NoMusic
1624263060.236,stimulus,1,308,0.356,1.0,NoMusic
1624263060.38,fixation,1,308,,0.0,NoMusic
1624263062.203,stimulus,1,309,0.323,1.0,NoMusic
1624263062.38,fixation,1,309,,0.0,NoMusic
1624263064.3140001,stimulus,1,310,0.434,1.0,NoMusic
1624263064.38,fixation,1,310,,0.0,NoMusic
1624263066.1000001,stimulus,1,311,0.22,1.0,NoMusic
1624263066.38,fixation,1,311,,0.0,NoMusic
1624263068.137,stimulus,1,312,0.257,1.0,NoMusic
1624263068.38,fixation,1,312,,0.0,NoMusic
1624263070.2410002,stimulus,1,313,0.361,1.0,NoMusic
1624263070.38,fixation,1,313,,0.0,NoMusic
1624263072.16,stimulus,1,314,0.28,1.0,NoMusic
1624263072.38,fixation,1,314,,0.0,NoMusic
1624263074.2050002,stimulus,1,315,0.325,1.0,NoMusic
1624263074.38,fixation,1,315,,0.0,NoMusic
1624263076.2840002,stimulus,1,316,0.404,1.0,NoMusic
1624263076.38,fixation,1,316,,0.0,NoMusic
1624263078.2010002,stimulus,1,317,0.321,1.0,NoMusic
1624263078.38,fixation,1,317,,0.0,NoMusic
1624263080.22,stimulus,1,318,0.34,1.0,NoMusic
1624263080.38,fixation,1,318,,0.0,NoMusic
1624263082.213,stimulus,1,319,0.333,1.0,NoMusic
1624263082.5740001,fixation,1,319,0.194,0.0,NoMusic
1624263084.2180002,stimulus,1,320,0.338,1.0,NoMusic
1624263084.38,fixation,1,320,,0.0,NoMusic
1624263086.217,stimulus,1,321,0.337,1.0,NoMusic
1624263086.38,fixation,1,321,,0.0,NoMusic
1624263088.2240002,stimulus,1,322,0.344,1.0,NoMusic
1624263088.38,fixation,1,322,,0.0,NoMusic
1624263090.203,stimulus,1,323,0.323,1.0,NoMusic
1624263090.38,fixation,1,323,,0.0,NoMusic
1624263092.21,stimulus,1,324,0.33,1.0,NoMusic
1624263092.38,fixation,1,324,,0.0,NoMusic
1624263094.1780002,stimulus,1,325,0.298,1.0,NoMusic
1624263094.38,fixation,1,325,,0.0,NoMusic
1624263096.2080002,stimulus,1,326,0.328,1.0,NoMusic
1624263096.38,fixation,1,326,,0.0,NoMusic
1624263098.207,stimulus,1,327,0.327,1.0,NoMusic
1624263098.38,fixation,1,327,,0.0,NoMusic
1624263100.3070002,stimulus,1,328,0.427,1.0,NoMusic
1624263100.38,fixation,1,328,,0.0,NoMusic
1624263102.23,stimulus,1,329,0.35,1.0,NoMusic
1624263102.38,fixation,1,329,,0.0,NoMusic
1624263104.2450001,stimulus,1,330,0.365,1.0,NoMusic
1624263104.38,fixation,1,330,,0.0,NoMusic
1624263106.253,stimulus,1,331,0.373,1.0,NoMusic
1624263106.38,fixation,1,331,,0.0,NoMusic
1624263108.3530002,stimulus,1,332,0.473,1.0,NoMusic
1624263108.38,fixation,1,332,,0.0,NoMusic
1624263110.184,stimulus,1,333,0.304,1.0,NoMusic
1624263110.38,fixation,1,333,,0.0,NoMusic
1624263112.186,stimulus,1,334,0.306,1.0,NoMusic
1624263112.38,fixation,1,334,,0.0,NoMusic
1624263114.18,stimulus,1,335,0.3,1.0,NoMusic
1624263114.38,fixation,1,335,,0.0,NoMusic
1624263116.217,stimulus,1,336,0.337,1.0,NoMusic
1624263116.38,fixation,1,336,,0.0,NoMusic
1624263118.2700002,stimulus,1,337,0.39,1.0,NoMusic
1624263118.38,fixation,1,337,,0.0,NoMusic
1624263120.21,stimulus,1,338,0.33,1.0,NoMusic
1624263120.38,fixation,1,338,,0.0,NoMusic
1624263122.25,stimulus,1,339,0.37,0.0,NoMusic
1624263122.38,fixation,1,339,,0.0,NoMusic
1624263124.1680002,stimulus,1,340,0.288,1.0,NoMusic
1624263124.38,fixation,1,340,,0.0,NoMusic
1624263126.272,stimulus,1,341,0.392,1.0,NoMusic
1624263126.38,fixation,1,341,,0.0,NoMusic
1624263128.1430001,stimulus,1,342,0.263,1.0,NoMusic
1624263128.38,fixation,1,342,,0.0,NoMusic
1624263130.174,stimulus,1,343,0.294,1.0,NoMusic
1624263130.38,fixation,1,343,,0.0,NoMusic
1624263132.2150002,stimulus,1,344,0.335,1.0,NoMusic
1624263132.38,fixation,1,344,,0.0,NoMusic
1624263134.204,stimulus,1,345,0.324,1.0,NoMusic
1624263134.38,fixation,1,345,,0.0,NoMusic
1624263136.2570002,stimulus,1,346,0.377,1.0,NoMusic
1624263136.38,fixation,1,346,,0.0,NoMusic
1624263138.1720002,stimulus,1,347,0.292,1.0,NoMusic
1624263138.38,fixation,1,347,,0.0,NoMusic
1624263140.295,stimulus,1,348,0.415,1.0,NoMusic
1624263140.38,fixation,1,348,,0.0,NoMusic
1624263142.1790001,stimulus,1,349,0.299,1.0,NoMusic
1624263142.38,fixation,1,349,,0.0,NoMusic
1624263144.209,stimulus,1,350,0.329,1.0,NoMusic
1624263144.38,fixation,1,350,,0.0,NoMusic
1624263146.2,stimulus,1,351,0.32,1.0,NoMusic
1624263146.38,fixation,1,351,,0.0,NoMusic
1624263148.1980002,stimulus,1,352,0.318,1.0,NoMusic
1624263148.38,fixation,1,352,,0.0,NoMusic
1624263150.2930002,stimulus,1,353,0.413,1.0,NoMusic
1624263150.38,fixation,1,353,,0.0,NoMusic
1624263152.318,stimulus,1,354,0.438,1.0,NoMusic
1624263152.38,fixation,1,354,,0.0,NoMusic
1624263154.117,stimulus,1,355,0.237,1.0,NoMusic
1624263154.38,fixation,1,355,,0.0,NoMusic
1624263156.2080002,stimulus,1,356,0.328,1.0,NoMusic
1624263156.38,fixation,1,356,,0.0,NoMusic
1624263158.206,stimulus,1,357,0.326,1.0,NoMusic
1624263158.38,fixation,1,357,,0.0,NoMusic
1624263160.204,stimulus,1,358,0.324,1.0,NoMusic
1624263160.38,fixation,1,358,,0.0,NoMusic
1624263162.216,stimulus,1,359,0.336,1.0,NoMusic
1624263162.38,fixation,1,359,,0.0,NoMusic
1624263164.233,stimulus,1,360,0.353,1.0,NoMusic
1624263164.38,fixation,1,360,,0.0,NoMusic
1624263166.2570002,stimulus,1,361,0.377,1.0,NoMusic
1624263166.38,fixation,1,361,,0.0,NoMusic
1624263168.184,stimulus,1,362,0.304,1.0,NoMusic
1624263168.38,fixation,1,362,,0.0,NoMusic
1624263170.3060002,stimulus,1,363,0.426,1.0,NoMusic
1624263170.38,fixation,1,363,,0.0,NoMusic
1624263172.2150002,stimulus,1,364,0.335,0.0,NoMusic
1624263172.38,fixation,1,364,,0.0,NoMusic
1624263174.2220001,stimulus,1,365,0.342,1.0,NoMusic
1624263174.38,fixation,1,365,,0.0,NoMusic
1624263176.173,stimulus,1,366,0.293,1.0,NoMusic
1624263176.38,fixation,1,366,,0.0,NoMusic
1624263178.148,stimulus,1,367,0.268,1.0,NoMusic
1624263178.38,fixation,1,367,,0.0,NoMusic
1624263180.1990001,stimulus,1,368,0.319,1.0,NoMusic
1624263180.38,fixation,1,368,,0.0,NoMusic
1624263182.243,stimulus,1,369,0.363,0.0,NoMusic
1624263182.592,fixation,1,369,0.212,1.0,NoMusic
1624263184.23,stimulus,1,370,0.35,1.0,NoMusic
1624263184.38,fixation,1,370,,0.0,NoMusic
1624263186.239,stimulus,1,371,0.359,1.0,NoMusic
1624263186.38,fixation,1,371,,0.0,NoMusic
1624263188.233,stimulus,1,372,0.353,1.0,NoMusic
1624263188.38,fixation,1,372,,0.0,NoMusic
1624263190.2280002,stimulus,1,373,0.348,1.0,NoMusic
1624263190.38,fixation,1,373,,0.0,NoMusic
1624263192.219,stimulus,1,374,0.339,1.0,NoMusic
1624263192.38,fixation,1,374,,0.0,NoMusic
1624263194.269,stimulus,1,375,0.389,1.0,NoMusic
1624263194.38,fixation,1,375,,0.0,NoMusic
1624263196.355,stimulus,1,376,0.475,1.0,NoMusic
1624263196.38,fixation,1,376,,0.0,NoMusic
1624263198.2050002,stimulus,1,377,0.325,1.0,NoMusic
1624263198.38,fixation,1,377,,0.0,NoMusic
1624263200.23,stimulus,1,378,0.35,1.0,NoMusic
1624263200.38,fixation,1,378,,0.0,NoMusic
1624263202.279,stimulus,1,379,0.399,1.0,NoMusic
1624263202.38,fixation,1,379,,0.0,NoMusic
1624263204.2870002,stimulus,1,380,0.407,1.0,NoMusic
1624263204.38,fixation,1,380,,0.0,NoMusic
1624263206.2120001,stimulus,1,381,0.332,1.0,NoMusic
1624263206.38,fixation,1,381,,0.0,NoMusic
1624263208.2740002,stimulus,1,382,0.394,1.0,NoMusic
1624263208.38,fixation,1,382,,0.0,NoMusic
1624263210.2930002,stimulus,1,383,0.413,1.0,NoMusic
1624263210.38,fixation,1,383,,0.0,NoMusic
1624263212.164,stimulus,1,384,0.284,1.0,NoMusic
1624263212.38,fixation,1,384,,0.0,NoMusic
1624263214.2050002,stimulus,1,385,0.325,1.0,NoMusic
1624263214.38,fixation,1,385,,0.0,NoMusic
1624263216.295,stimulus,1,386,0.415,1.0,NoMusic
1624263216.38,fixation,1,386,,0.0,NoMusic
1624263218.194,stimulus,1,387,0.314,1.0,NoMusic
1624263218.38,fixation,1,387,,0.0,NoMusic
1624263220.204,stimulus,1,388,0.324,1.0,NoMusic
1624263220.38,fixation,1,388,,0.0,NoMusic
1624263222.242,stimulus,1,389,0.362,1.0,NoMusic
1624263222.38,fixation,1,389,,0.0,NoMusic
1624263224.197,stimulus,1,390,0.317,1.0,NoMusic
1624263224.38,fixation,1,390,,0.0,NoMusic
1624263226.1980002,stimulus,1,391,0.318,1.0,NoMusic
1624263226.38,fixation,1,391,,0.0,NoMusic
1624263228.1780002,stimulus,1,392,0.298,1.0,NoMusic
1624263228.38,fixation,1,392,,0.0,NoMusic
1624263230.2280002,stimulus,1,393,0.348,1.0,NoMusic
1624263230.38,fixation,1,393,,0.0,NoMusic
1624263232.2,stimulus,1,394,0.32,1.0,NoMusic
1624263232.38,fixation,1,394,,0.0,NoMusic
1624263234.183,stimulus,1,395,0.303,1.0,NoMusic
1624263234.38,fixation,1,395,,0.0,NoMusic
1624263236.365,stimulus,1,396,0.485,1.0,NoMusic
1624263236.38,fixation,1,396,,0.0,NoMusic
1624263238.1910002,stimulus,1,397,0.311,1.0,NoMusic
1624263238.38,fixation,1,397,,0.0,NoMusic
1624263239.88,stimulus,1,398,,,RelaxSession
1624263240.38,fixation,1,398,,,RelaxSession
1624263241.88,stimulus,1,399,,,RelaxSession
1624263242.38,fixation,1,399,,,RelaxSession
1624263243.88,stimulus,1,400,,,RelaxSession
1624263244.38,fixation,1,400,,,RelaxSession
1624263245.88,stimulus,1,401,,,RelaxSession
1624263246.38,fixation,1,401,,,RelaxSession
1624263247.88,stimulus,1,402,,,RelaxSession
1624263248.38,fixation,1,402,,,RelaxSession
1624263249.88,stimulus,1,403,,,RelaxSession
1624263250.38,fixation,1,403,,,RelaxSession
1624263251.88,stimulus,1,404,,,RelaxSession
1624263252.38,fixation,1,404,,,RelaxSession
1624263253.88,stimulus,1,405,,,RelaxSession
1624263254.38,fixation,1,405,,,RelaxSession
1624263255.88,stimulus,1,406,,,RelaxSession
1624263256.38,fixation,1,406,,,RelaxSession
1624263257.88,stimulus,1,407,,,RelaxSession
1624263258.38,fixation,1,407,,,RelaxSession
1624263259.88,stimulus,1,408,,,RelaxSession
1624263260.38,fixation,1,408,,,RelaxSession
1624263261.88,stimulus,1,409,,,RelaxSession
1624263262.38,fixation,1,409,,,RelaxSession
1624263263.88,stimulus,1,410,,,RelaxSession
1624263264.38,fixation,1,410,,,RelaxSession
1624263265.88,stimulus,1,411,,,RelaxSession
1624263266.38,fixation,1,411,,,RelaxSession
1624263267.88,stimulus,1,412,,,RelaxSession
1624263268.38,fixation,1,412,,,RelaxSession
1624263269.88,stimulus,1,413,,,RelaxSession
1624263270.38,fixation,1,413,,,RelaxSession
1624263271.88,stimulus,1,414,,,RelaxSession
1624263272.38,fixation,1,414,,,RelaxSession
1624263273.88,stimulus,1,415,,,RelaxSession
1624263274.38,fixation,1,415,,,RelaxSession
1624263275.88,stimulus,1,416,,,RelaxSession
1624263276.38,fixation,1,416,,,RelaxSession
1624263277.88,stimulus,1,417,,,RelaxSession
1624263278.38,fixation,1,417,,,RelaxSession
1624263279.88,stimulus,1,418,,,RelaxSession
1624263280.38,fixation,1,418,,,RelaxSession
1624263281.88,stimulus,1,419,,,RelaxSession
1624263282.38,fixation,1,419,,,RelaxSession
1624263283.88,stimulus,1,420,,,RelaxSession
1624263284.38,fixation,1,420,,,RelaxSession
1624263285.88,stimulus,1,421,,,RelaxSession
1624263286.38,fixation,1,421,,,RelaxSession
1624263287.88,stimulus,1,422,,,RelaxSession
1624263288.38,fixation,1,422,,,RelaxSession
1624263289.88,stimulus,1,423,,,RelaxSession
1624263290.38,fixation,1,423,,,RelaxSession
1624263291.88,stimulus,1,424,,,RelaxSession
1624263292.38,fixation,1,424,,,RelaxSession
1624263293.88,stimulus,1,425,,,RelaxSession
1624263294.38,fixation,1,425,,,RelaxSession
1624263295.88,stimulus,1,426,,,RelaxSession
1624263296.38,fixation,1,426,,,RelaxSession
1624263297.88,stimulus,1,427,,,RelaxSession
1624263298.38,fixation,1,427,,,RelaxSession
1624263299.88,stimulus,1,428,,,RelaxSession
1624263300.38,fixation,1,428,,,RelaxSession
1624263301.88,stimulus,1,429,,,RelaxSession
1624263302.38,fixation,1,429,,,RelaxSession
1624263303.88,stimulus,1,430,,,RelaxSession
1624263304.38,fixation,1,430,,,RelaxSession
1624263305.88,stimulus,1,431,,,RelaxSession
1624263306.38,fixation,1,431,,,RelaxSession
1624263307.88,stimulus,1,432,,,RelaxSession
1624263308.38,fixation,1,432,,,RelaxSession
1624263309.88,stimulus,1,433,,,RelaxSession
1624263310.38,fixation,1,433,,,RelaxSession
1624263311.88,stimulus,1,434,,,RelaxSession
1624263312.38,fixation,1,434,,,RelaxSession
1624263313.88,stimulus,1,435,,,RelaxSession
1624263314.38,fixation,1,435,,,RelaxSession
1624263315.88,stimulus,1,436,,,RelaxSession
1624263316.38,fixation,1,436,,,RelaxSession
1624263317.88,stimulus,1,437,,,RelaxSession
1624263318.38,fixation,1,437,,,RelaxSession
1624263319.88,stimulus,1,438,,,RelaxSession
1624263320.38,fixation,1,438,,,RelaxSession
1624263321.88,stimulus,1,439,,,RelaxSession
1624263322.38,fixation,1,439,,,RelaxSession
1624263323.88,stimulus,1,440,,,RelaxSession
1624263324.38,fixation,1,440,,,RelaxSession
1624263325.88,stimulus,1,441,,,RelaxSession
1624263326.38,fixation,1,441,,,RelaxSession
1624263327.88,stimulus,1,442,,,RelaxSession
1624263328.38,fixation,1,442,,,RelaxSession
1624263329.88,stimulus,1,443,,,RelaxSession
1624263330.38,fixation,1,443,,,RelaxSession
1624263331.88,stimulus,1,444,,,RelaxSession
1624263332.38,fixation,1,444,,,RelaxSession
1624263333.88,stimulus,1,445,,,RelaxSession
1624263334.38,fixation,1,445,,,RelaxSession
1624263335.88,stimulus,1,446,,,RelaxSession
1624263336.38,fixation,1,446,,,RelaxSession
1624263337.88,stimulus,1,447,,,RelaxSession
1624263338.38,fixation,1,447,,,RelaxSession
1624263339.88,stimulus,1,448,,,RelaxSession
1624263340.38,fixation,1,448,,,RelaxSession
1624263341.88,stimulus,1,449,,,RelaxSession
1624263342.38,fixation,1,449,,,RelaxSession
1624263343.88,stimulus,1,450,,,RelaxSession
1624263344.38,fixation,1,450,,,RelaxSession
1624263345.88,stimulus,1,451,,,RelaxSession
1624263346.38,fixation,1,451,,,RelaxSession
1624263347.88,stimulus,1,452,,,RelaxSession
1624263348.38,fixation,1,452,,,RelaxSession
1624263349.88,stimulus,1,453,,,RelaxSession
1624263350.38,fixation,1,453,,,RelaxSession
1624263351.88,stimulus,1,454,,,RelaxSession
1624263352.38,fixation,1,454,,,RelaxSession
1624263353.88,stimulus,1,455,,,RelaxSession
1624263354.38,fixation,1,455,,,RelaxSession
1624263355.88,stimulus,1,456,,,RelaxSession
1624263356.38,fixation,1,456,,,RelaxSession
1624263357.88,stimulus,1,457,,,RelaxSession
1624263358.38,fixation,1,457,,,RelaxSession
1624263359.88,stimulus,1,458,,,RelaxSession
1624263360.38,fixation,1,458,,,RelaxSession
1624263361.88,stimulus,1,459,,,RelaxSession
1624263362.38,fixation,1,459,,,RelaxSession
1624263363.88,stimulus,1,460,,,RelaxSession
1624263364.38,fixation,1,460,,,RelaxSession
1624263365.88,stimulus,1,461,,,RelaxSession
1624263366.38,fixation,1,461,,,RelaxSession
1624263367.88,stimulus,1,462,,,RelaxSession
1624263368.38,fixation,1,462,,,RelaxSession
1624263369.88,stimulus,1,463,,,RelaxSession
1624263370.38,fixation,1,463,,,RelaxSession
1624263371.88,stimulus,1,464,,,RelaxSession
1624263372.38,fixation,1,464,,,RelaxSession
1624263373.88,stimulus,1,465,,,RelaxSession
1624263374.38,fixation,1,465,,,RelaxSession
1624263375.88,stimulus,1,466,,,RelaxSession
1624263376.38,fixation,1,466,,,RelaxSession
1624263377.88,stimulus,1,467,,,RelaxSession
1624263378.38,fixation,1,467,,,RelaxSession
1624263379.88,stimulus,1,468,,,RelaxSession
1624263380.38,fixation,1,468,,,RelaxSession
1624263381.88,stimulus,1,469,,,RelaxSession
1624263382.38,fixation,1,469,,,RelaxSession
1624263382.95,stimulus,2,1,,,PracticeSession
1624263383.45,fixation,2,1,,,PracticeSession
1624263383.88,stimulus,1,470,,,RelaxSession
1624263384.38,fixation,1,470,,,RelaxSession
1624263384.95,stimulus,2,2,,,PracticeSession
1624263385.45,fixation,2,2,,,PracticeSession
1624263385.88,stimulus,1,471,,,RelaxSession
1624263386.38,fixation,1,471,,,RelaxSession
1624263386.95,stimulus,2,3,,,PracticeSession
1624263387.45,fixation,2,3,,,PracticeSession
1624263387.88,stimulus,1,472,,,RelaxSession
1624263388.38,fixation,1,472,,,RelaxSession
1624263388.95,stimulus,2,4,,,PracticeSession
1624263389.45,fixation,2,4,,,PracticeSession
1624263389.88,stimulus,1,473,,,RelaxSession
1624263390.38,fixation,1,473,,,RelaxSession
1624263390.95,stimulus,2,5,,,PracticeSession
1624263391.45,fixation,2,5,,,PracticeSession
1624263391.88,stimulus,1,474,,,RelaxSession
1624263392.38,fixation,1,474,,,RelaxSession
1624263392.95,stimulus,2,6,,,PracticeSession
1624263393.45,fixation,2,6,,,PracticeSession
1624263393.88,stimulus,1,475,,,RelaxSession
1624263394.38,fixation,1,475,,,RelaxSession
1624263394.95,stimulus,2,7,,,PracticeSession
1624263395.45,fixation,2,7,,,PracticeSession
1624263395.88,stimulus,1,476,,,RelaxSession
1624263396.38,fixation,1,476,,,RelaxSession
1624263396.95,stimulus,2,8,,,PracticeSession
1624263397.45,fixation,2,8,,,PracticeSession
1624263397.88,stimulus,1,477,,,RelaxSession
1624263398.38,fixation,1,477,,,RelaxSession
1624263398.95,stimulus,2,9,,,PracticeSession
1624263399.45,fixation,2,9,,,PracticeSession
1624263399.88,stimulus,1,478,,,RelaxSession
1624263400.38,fixation,1,478,,,RelaxSession
1624263400.95,stimulus,2,10,,,PracticeSession
1624263401.45,fixation,2,10,,,PracticeSession
1624263401.88,stimulus,1,479,,,RelaxSession
1624263402.38,fixation,1,479,,,RelaxSession
1624263402.95,stimulus,2,11,,,PracticeSession
1624263403.45,fixation,2,11,,,PracticeSession
1624263403.88,stimulus,1,480,,,RelaxSession
1624263404.38,fixation,1,480,,,RelaxSession
1624263404.95,stimulus,2,12,,,PracticeSession
1624263405.45,fixation,2,12,,,PracticeSession
1624263405.88,stimulus,1,481,,,RelaxSession
1624263406.38,fixation,1,481,,,RelaxSession
1624263406.95,stimulus,2,13,,,PracticeSession
1624263407.45,fixation,2,13,,,PracticeSession
1624263407.88,stimulus,1,482,,,RelaxSession
1624263408.38,fixation,1,482,,,RelaxSession
1624263408.95,stimulus,2,14,,,PracticeSession
1624263409.45,fixation,2,14,,,PracticeSession
1624263409.88,stimulus,1,483,,,RelaxSession
1624263410.38,fixation,1,483,,,RelaxSession
1624263410.95,stimulus,2,15,,,PracticeSession
1624263411.45,fixation,2,15,,,PracticeSession
1624263411.88,stimulus,1,484,,,RelaxSession
1624263412.38,fixation,1,484,,,RelaxSession
1624263412.95,stimulus,2,16,,,PracticeSession
1624263413.45,fixation,2,16,,,PracticeSession
1624263413.88,stimulus,1,485,,,RelaxSession
1624263414.38,fixation,1,485,,,RelaxSession
1624263414.95,stimulus,2,17,,,PracticeSession
1624263415.45,fixation,2,17,,,PracticeSession
1624263415.88,stimulus,1,486,,,RelaxSession
1624263416.38,fixation,1,486,,,RelaxSession
1624263416.95,stimulus,2,18,,,PracticeSession
1624263417.45,fixation,2,18,,,PracticeSession
1624263417.88,stimulus,1,487,,,RelaxSession
1624263418.38,fixation,1,487,,,RelaxSession
1624263418.95,stimulus,2,19,,,PracticeSession
1624263419.45,fixation,2,19,,,PracticeSession
1624263419.88,stimulus,1,488,,,RelaxSession
1624263420.38,fixation,1,488,,,RelaxSession
1624263420.95,stimulus,2,20,,,PracticeSession
1624263421.45,fixation,2,20,,,PracticeSession
1624263421.88,stimulus,1,489,,,RelaxSession
1624263422.38,fixation,1,489,,,RelaxSession
1624263422.95,stimulus,2,21,,,PracticeSession
1624263423.45,fixation,2,21,,,PracticeSession
1624263423.88,stimulus,1,490,,,RelaxSession
1624263424.38,fixation,1,490,,,RelaxSession
1624263424.95,stimulus,2,22,,,PracticeSession
1624263425.45,fixation,2,22,,,PracticeSession
1624263425.88,stimulus,1,491,,,RelaxSession
1624263426.38,fixation,1,491,,,RelaxSession
1624263426.95,stimulus,2,23,,,PracticeSession
1624263427.45,fixation,2,23,,,PracticeSession
1624263427.88,stimulus,1,492,,,RelaxSession
1624263428.38,fixation,1,492,,,RelaxSession
1624263428.95,stimulus,2,24,,,PracticeSession
1624263429.45,fixation,2,24,,,PracticeSession
1624263429.88,stimulus,1,493,,,RelaxSession
1624263430.38,fixation,1,493,,,RelaxSession
1624263430.95,stimulus,2,25,,,PracticeSession
1624263431.45,fixation,2,25,,,PracticeSession
1624263431.88,stimulus,1,494,,,RelaxSession
1624263432.38,fixation,1,494,,,RelaxSession
1624263432.95,stimulus,2,26,,,PracticeSession
1624263433.45,fixation,2,26,,,PracticeSession
1624263433.88,stimulus,1,495,,,RelaxSession
1624263434.38,fixation,1,495,,,RelaxSession
1624263434.95,stimulus,2,27,,,PracticeSession
1624263435.45,fixation,2,27,,,PracticeSession
1624263435.88,stimulus,1,496,,,RelaxSession
1624263436.38,fixation,1,496,,,RelaxSession
1624263436.95,stimulus,2,28,,,PracticeSession
1624263437.45,fixation,2,28,,,PracticeSession
1624263437.88,stimulus,1,497,,,RelaxSession
1624263438.38,fixation,1,497,,,RelaxSession
1624263438.95,stimulus,2,29,,,PracticeSession
1624263439.45,fixation,2,29,,,PracticeSession
1624263439.88,stimulus,1,498,,,RelaxSession
1624263440.38,fixation,1,498,,,RelaxSession
1624263440.95,stimulus,2,30,,,PracticeSession
1624263441.45,fixation,2,30,,,PracticeSession
1624263441.88,stimulus,1,499,,,RelaxSession
1624263442.38,fixation,1,499,,,RelaxSession
1624263442.95,stimulus,2,31,,,PracticeSession
1624263443.45,fixation,2,31,,,PracticeSession
1624263443.88,stimulus,1,500,,,RelaxSession
1624263444.38,fixation,1,500,,,RelaxSession
1624263444.95,stimulus,2,32,,,PracticeSession
1624263445.45,fixation,2,32,,,PracticeSession
1624263445.88,stimulus,1,501,,,RelaxSession
1624263446.38,fixation,1,501,,,RelaxSession
1624263446.95,stimulus,2,33,,,PracticeSession
1624263447.45,fixation,2,33,,,PracticeSession
1624263447.88,stimulus,1,502,,,RelaxSession
1624263448.38,fixation,1,502,,,RelaxSession
1624263448.95,stimulus,2,34,,,PracticeSession
1624263449.45,fixation,2,34,,,PracticeSession
1624263449.88,stimulus,1,503,,,RelaxSession
1624263450.38,fixation,1,503,,,RelaxSession
1624263450.95,stimulus,2,35,,,PracticeSession
1624263451.45,fixation,2,35,,,PracticeSession
1624263451.88,stimulus,1,504,,,RelaxSession
1624263452.38,fixation,1,504,,,RelaxSession
1624263452.95,stimulus,2,36,,,PracticeSession
1624263453.45,fixation,2,36,,,PracticeSession
1624263453.88,stimulus,1,505,,,RelaxSession
1624263454.38,fixation,1,505,,,RelaxSession
1624263454.95,stimulus,2,37,,,PracticeSession
1624263455.45,fixation,2,37,,,PracticeSession
1624263455.88,stimulus,1,506,,,RelaxSession
1624263456.38,fixation,1,506,,,RelaxSession
1624263456.95,stimulus,2,38,,,PracticeSession
1624263457.45,fixation,2,38,,,PracticeSession
1624263457.88,stimulus,1,507,,,RelaxSession
1624263458.38,fixation,1,507,,,RelaxSession
1624263458.95,stimulus,2,39,,,PracticeSession
1624263459.45,fixation,2,39,,,PracticeSession
1624263459.88,stimulus,1,508,,,RelaxSession
1624263460.38,fixation,1,508,,,RelaxSession
1624263460.95,stimulus,2,40,,,PracticeSession
1624263461.45,fixation,2,40,,,PracticeSession
1624263461.88,stimulus,1,509,,,RelaxSession
1624263462.38,fixation,1,509,,,RelaxSession
1624263462.95,stimulus,2,41,,,PracticeSession
1624263463.45,fixation,2,41,,,PracticeSession
1624263463.88,stimulus,1,510,,,RelaxSession
1624263464.38,fixation,1,510,,,RelaxSession
1624263464.95,stimulus,2,42,,,PracticeSession
1624263465.45,fixation,2,42,,,PracticeSession
1624263465.88,stimulus,1,511,,,RelaxSession
1624263466.38,fixation,1,511,,,RelaxSession
1624263466.95,stimulus,2,43,,,PracticeSession
1624263467.45,fixation,2,43,,,PracticeSession
1624263467.88,stimulus,1,512,,,RelaxSession
1624263468.38,fixation,1,512,,,RelaxSession
1624263468.95,stimulus,2,44,,,PracticeSession
1624263469.45,fixation,2,44,,,PracticeSession
1624263469.88,stimulus,1,513,,,RelaxSession
1624263470.38,fixation,1,513,,,RelaxSession
1624263470.95,stimulus,2,45,,,NoMusic
1624263471.45,fixation,2,45,,,NoMusic
1624263471.88,stimulus,1,514,,,RelaxSession
1624263472.38,fixation,1,514,,,RelaxSession
1624263472.95,stimulus,2,46,,,NoMusic
1624263473.45,fixation,2,46,,,NoMusic
1624263473.88,stimulus,1,515,,,RelaxSession
1624263474.38,fixation,1,515,,,RelaxSession
1624263474.95,stimulus,2,47,,,NoMusic
1624263475.45,fixation,2,47,,,NoMusic
1624263475.88,stimulus,1,516,,,RelaxSession
1624263476.38,fixation,1,516,,,RelaxSession
1624263476.95,stimulus,2,48,,,NoMusic
1624263477.45,fixation,2,48,,,NoMusic
1624263477.88,stimulus,1,517,,,RelaxSession
1624263478.38,fixation,1,517,,,RelaxSession
1624263478.95,stimulus,2,49,,,NoMusic
1624263479.45,fixation,2,49,,,NoMusic
1624263479.88,stimulus,1,518,,,RelaxSession
1624263480.38,fixation,1,518,,,RelaxSession
1624263480.95,stimulus,2,50,,,NoMusic
1624263481.45,fixation,2,50,,,NoMusic
1624263481.88,stimulus,1,519,,,RelaxSession
1624263482.38,fixation,1,519,,,RelaxSession
1624263482.95,stimulus,2,51,,,NoMusic
1624263483.45,fixation,2,51,,,NoMusic
1624263483.88,stimulus,1,520,,,RelaxSession
1624263484.38,fixation,1,520,,,RelaxSession
1624263484.95,stimulus,2,52,,,NoMusic
1624263485.45,fixation,2,52,,,NoMusic
1624263485.88,stimulus,1,521,,,RelaxSession
1624263486.38,fixation,1,521,,,RelaxSession
1624263486.95,stimulus,2,53,,,NoMusic
1624263487.45,fixation,2,53,,,NoMusic
1624263487.88,stimulus,1,522,,,RelaxSession
1624263488.38,fixation,1,522,,,RelaxSession
1624263488.95,stimulus,2,54,,,NoMusic
1624263489.45,fixation,2,54,,,NoMusic
1624263489.88,stimulus,1,523,,,RelaxSession
1624263490.38,fixation,1,523,,,RelaxSession
1624263490.95,stimulus,2,55,,,NoMusic
1624263491.45,fixation,2,55,,,NoMusic
1624263491.88,stimulus,1,524,,,RelaxSession
1624263492.38,fixation,1,524,,,RelaxSession
1624263492.95,stimulus,2,56,,,NoMusic
1624263493.45,fixation,2,56,,,NoMusic
1624263493.88,stimulus,1,525,,,RelaxSession
1624263494.38,fixation,1,525,,,RelaxSession
1624263494.95,stimulus,2,57,,,NoMusic
1624263495.45,fixation,2,57,,,NoMusic
1624263495.88,stimulus,1,526,,,RelaxSession
1624263496.38,fixation,1,526,,,RelaxSession
1624263496.95,stimulus,2,58,,,NoMusic
1624263497.45,fixation,2,58,,,NoMusic
1624263497.88,stimulus,1,527,,,RelaxSession
1624263498.38,fixation,1,527,,,RelaxSession
1624263498.95,stimulus,2,59,,,NoMusic
1624263499.45,fixation,2,59,,,NoMusic
1624263499.88,stimulus,1,528,,,RelaxSession
1624263500.38,fixation,1,528,,,RelaxSession
1624263500.95,stimulus,2,60,,,NoMusic
1624263501.45,fixation,2,60,,,NoMusic
1624263501.88,stimulus,1,529,,,RelaxSession
1624263502.38,fixation,1,529,,,RelaxSession
1624263502.95,stimulus,2,61,,,NoMusic
1624263503.45,fixation,2,61,,,NoMusic
1624263503.88,stimulus,1,530,,,RelaxSession
1624263504.38,fixation,1,530,,,RelaxSession
1624263504.95,stimulus,2,62,,,NoMusic
1624263505.45,fixation,2,62,,,NoMusic
1624263505.88,stimulus,1,531,,,RelaxSession
1624263506.38,fixation,1,531,,,RelaxSession
1624263506.95,stimulus,2,63,,,NoMusic
1624263507.45,fixation,2,63,,,NoMusic
1624263507.88,stimulus,1,532,,,RelaxSession
1624263508.38,fixation,1,532,,,RelaxSession
1624263508.95,stimulus,2,64,,,NoMusic
1624263509.45,fixation,2,64,,,NoMusic
1624263509.88,stimulus,1,533,,,RelaxSession
1624263510.38,fixation,1,533,,,RelaxSession
1624263510.95,stimulus,2,65,,,NoMusic
1624263511.45,fixation,2,65,,,NoMusic
1624263511.88,stimulus,1,534,,,RelaxSession
1624263512.38,fixation,1,534,,,RelaxSession
1624263512.95,stimulus,2,66,,,NoMusic
1624263513.45,fixation,2,66,,,NoMusic
1624263513.88,stimulus,1,535,,,RelaxSession
1624263514.38,fixation,1,535,,,RelaxSession
1624263514.95,stimulus,2,67,,,NoMusic
1624263515.45,fixation,2,67,,,NoMusic
1624263515.88,stimulus,1,536,,,RelaxSession
1624263516.38,fixation,1,536,,,RelaxSession
1624263516.95,stimulus,2,68,,,NoMusic
1624263517.45,fixation,2,68,,,NoMusic
1624263517.88,stimulus,1,537,,,RelaxSession
1624263518.38,fixation,1,537,,,RelaxSession
1624263518.95,stimulus,2,69,,,NoMusic
1624263519.45,fixation,2,69,,,NoMusic
1624263519.88,stimulus,1,538,,,RelaxSession
1624263520.38,fixation,1,538,,,RelaxSession
1624263520.95,stimulus,2,70,,,NoMusic
1624263521.45,fixation,2,70,,,NoMusic
1624263521.88,stimulus,1,539,,,RelaxSession
1624263522.38,fixation,1,539,,,RelaxSession
1624263522.95,stimulus,2,71,,,NoMusic
1624263523.45,fixation,2,71,,,NoMusic
1624263523.88,stimulus,1,540,,,RelaxSession
1624263524.38,fixation,1,540,,,RelaxSession
1624263524.95,stimulus,2,72,,,NoMusic
1624263525.45,fixation,2,72,,,NoMusic
1624263525.88,stimulus,1,541,,,RelaxSession
1624263526.38,fixation,1,541,,,RelaxSession
1624263526.95,stimulus,2,73,,,NoMusic
1624263527.45,fixation,2,73,,,NoMusic
1624263527.88,stimulus,1,542,,,RelaxSession
1624263528.38,fixation,1,542,,,RelaxSession
1624263528.95,stimulus,2,74,,,NoMusic
1624263529.45,fixation,2,74,,,NoMusic
1624263529.88,stimulus,1,543,,,RelaxSession
1624263530.38,fixation,1,543,,,RelaxSession
1624263530.95,stimulus,2,75,,,NoMusic
1624263531.45,fixation,2,75,,,NoMusic
1624263531.88,stimulus,1,544,,,RelaxSession
1624263532.38,fixation,1,544,,,RelaxSession
1624263532.95,stimulus,2,76,,,NoMusic
1624263533.45,fixation,2,76,,,NoMusic
1624263533.88,stimulus,1,545,,,RelaxSession
1624263534.38,fixation,1,545,,,RelaxSession
1624263534.95,stimulus,2,77,,,NoMusic
1624263535.45,fixation,2,77,,,NoMusic
1624263535.88,stimulus,1,546,,,RelaxSession
1624263536.38,fixation,1,546,,,RelaxSession
1624263536.95,stimulus,2,78,,,NoMusic
1624263537.45,fixation,2,78,,,NoMusic
1624263537.88,stimulus,1,547,,,RelaxSession
1624263538.38,fixation,1,547,,,RelaxSession
1624263538.95,stimulus,2,79,,,NoMusic
1624263539.45,fixation,2,79,,,NoMusic
1624263539.88,stimulus,1,548,,,RelaxSession
1624263540.38,fixation,1,548,,,RelaxSession
1624263540.95,stimulus,2,80,,,NoMusic
1624263541.45,fixation,2,80,,,NoMusic
1624263541.88,stimulus,1,549,,,RelaxSession
1624263542.38,fixation,1,549,,,RelaxSession
1624263542.95,stimulus,2,81,,,NoMusic
1624263543.45,fixation,2,81,,,NoMusic
1624263543.88,stimulus,1,550,,,RelaxSession
1624263544.38,fixation,1,550,,,RelaxSession
1624263544.95,stimulus,2,82,,,NoMusic
1624263545.45,fixation,2,82,,,NoMusic
1624263545.88,stimulus,1,551,,,RelaxSession
1624263546.38,fixation,1,551,,,RelaxSession
1624263546.95,stimulus,2,83,,,NoMusic
1624263547.45,fixation,2,83,,,NoMusic
1624263547.88,stimulus,1,552,,,RelaxSession
1624263548.38,fixation,1,552,,,RelaxSession
1624263548.95,stimulus,2,84,,,NoMusic
1624263549.45,fixation,2,84,,,NoMusic
1624263549.88,stimulus,1,553,,,RelaxSession
1624263550.38,fixation,1,553,,,RelaxSession
1624263550.95,stimulus,2,85,,,NoMusic
1624263551.45,fixation,2,85,,,NoMusic
1624263551.88,stimulus,1,554,,,RelaxSession
1624263552.38,fixation,1,554,,,RelaxSession
1624263552.95,stimulus,2,86,,,NoMusic
1624263553.45,fixation,2,86,,,NoMusic
1624263553.88,stimulus,1,555,,,RelaxSession
1624263554.38,fixation,1,555,,,RelaxSession
1624263554.95,stimulus,2,87,,,NoMusic
1624263555.45,fixation,2,87,,,NoMusic
1624263555.88,stimulus,1,556,,,RelaxSession
1624263556.38,fixation,1,556,,,RelaxSession
1624263556.95,stimulus,2,88,,,NoMusic
1624263557.45,fixation,2,88,,,NoMusic
1624263557.88,stimulus,1,557,,,RelaxSession
1624263558.38,fixation,1,557,,,RelaxSession
1624263558.95,stimulus,2,89,,,NoMusic
1624263559.45,fixation,2,89,,,NoMusic
1624263559.88,stimulus,1,558,,,RelaxSession
1624263560.38,fixation,1,558,,,RelaxSession
1624263560.95,stimulus,2,90,,,NoMusic
1624263561.45,fixation,2,90,,,NoMusic
1624263561.88,stimulus,1,559,,,RelaxSession
1624263562.38,fixation,1,559,,,RelaxSession
1624263562.95,stimulus,2,91,,,NoMusic
1624263563.45,fixation,2,91,,,NoMusic
1624263563.88,stimulus,1,560,,,RelaxSession
1624263564.38,fixation,1,560,,,RelaxSession
1624263564.95,stimulus,2,92,,,NoMusic
1624263565.45,fixation,2,92,,,NoMusic
1624263565.88,stimulus,1,561,,,RelaxSession
1624263566.38,fixation,1,561,,,RelaxSession
1624263566.95,stimulus,2,93,,,NoMusic
1624263567.14,stimulus,3,1,,,PracticeSession
1624263567.45,fixation,2,93,,,NoMusic
1624263567.64,fixation,3,1,,,PracticeSession
1624263567.88,stimulus,1,562,,,RelaxSession
1624263568.38,fixation,1,562,,,RelaxSession
1624263568.95,stimulus,2,94,,,NoMusic
1624263569.14,stimulus,3,2,,,PracticeSession
1624263569.45,fixation,2,94,,,NoMusic
1624263569.64,fixation,3,2,,,PracticeSession
1624263569.88,stimulus,1,563,,,RelaxSession
1624263570.38,fixation,1,563,,,RelaxSession
1624263570.95,stimulus,2,95,,,NoMusic
1624263571.14,stimulus,3,3,,,PracticeSession
1624263571.45,fixation,2,95,,,NoMusic
1624263571.64,fixation,3,3,,,PracticeSession
1624263571.88,stimulus,1,564,,,RelaxSession
1624263572.38,fixation,1,564,,,RelaxSession
1624263572.95,stimulus,2,96,,,NoMusic
1624263573.14,stimulus,3,4,,,PracticeSession
1624263573.45,fixation,2,96,,,NoMusic
1624263573.64,fixation,3,4,,,PracticeSession
1624263573.88,stimulus,1,565,,,RelaxSession
1624263574.38,fixation,1,565,,,RelaxSession
1624263574.95,stimulus,2,97,,,NoMusic
1624263575.14,stimulus,3,5,,,PracticeSession
1624263575.45,fixation,2,97,,,NoMusic
1624263575.64,fixation,3,5,,,PracticeSession
1624263575.88,stimulus,1,566,,,RelaxSession
1624263576.38,fixation,1,566,,,RelaxSession
1624263576.95,stimulus,2,98,,,NoMusic
1624263577.14,stimulus,3,6,,,PracticeSession
1624263577.45,fixation,2,98,,,NoMusic
1624263577.64,fixation,3,6,,,PracticeSession
1624263577.88,stimulus,1,567,,,RelaxSession
1624263578.38,fixation,1,567,,,RelaxSession
1624263578.95,stimulus,2,99,,,NoMusic
1624263579.14,stimulus,3,7,,,PracticeSession
1624263579.45,fixation,2,99,,,NoMusic
1624263579.64,fixation,3,7,,,PracticeSession
1624263579.88,stimulus,1,568,,,RelaxSession
1624263580.38,fixation,1,568,,,RelaxSession
1624263580.95,stimulus,2,100,,,NoMusic
1624263581.14,stimulus,3,8,,,PracticeSession
1624263581.45,fixation,2,100,,,NoMusic
1624263581.64,fixation,3,8,,,PracticeSession
1624263581.88,stimulus,1,569,,,RelaxSession
1624263582.38,fixation,1,569,,,RelaxSession
1624263582.95,stimulus,2,101,,,NoMusic
1624263583.14,stimulus,3,9,,,PracticeSession
1624263583.45,fixation,2,101,,,NoMusic
1624263583.64,fixation,3,9,,,PracticeSession
1624263583.88,stimulus,1,570,,,RelaxSession
1624263584.38,fixation,1,570,,,RelaxSession
1624263584.95,stimulus,2,102,,,NoMusic
1624263585.14,stimulus,3,10,,,PracticeSession
1624263585.45,fixation,2,102,,,NoMusic
1624263585.64,fixation,3,10,,,PracticeSession
1624263585.88,stimulus,1,571,,,RelaxSession
1624263586.38,fixation,1,571,,,RelaxSession
1624263586.95,stimulus,2,103,,,NoMusic
1624263587.14,stimulus,3,11,,,PracticeSession
1624263587.45,fixation,2,103,,,NoMusic
1624263587.64,fixation,3,11,,,PracticeSession
1624263587.88,stimulus,1,572,,,RelaxSession
1624263588.38,fixation,1,572,,,RelaxSession
1624263588.95,stimulus,2,104,,,NoMusic
1624263589.14,stimulus,3,12,,,PracticeSession
1624263589.45,fixation,2,104,,,NoMusic
1624263589.64,fixation,3,12,,,PracticeSession
1624263589.88,stimulus,1,573,,,RelaxSession
1624263590.38,fixation,1,573,,,RelaxSession
1624263590.95,stimulus,2,105,,,NoMusic
1624263591.14,stimulus,3,13,,,PracticeSession
1624263591.45,fixation,2,105,,,NoMusic
1624263591.64,fixation,3,13,,,PracticeSession
1624263591.88,stimulus,1,574,,,RelaxSession
1624263592.38,fixation,1,574,,,RelaxSession
1624263592.95,stimulus,2,106,,,NoMusic
1624263593.14,stimulus,3,14,,,PracticeSession
1624263593.45,fixation,2,106,,,NoMusic
1624263593.64,fixation,3,14,,,PracticeSession
1624263593.88,stimulus,1,575,,,RelaxSession
1624263594.38,fixation,1,575,,,RelaxSession
1624263594.95,stimulus,2,107,,,NoMusic
1624263595.14,stimulus,3,15,,,PracticeSession
1624263595.45,fixation,2,107,,,NoMusic
1624263595.64,fixation,3,15,,,PracticeSession
1624263595.88,stimulus,1,576,,,RelaxSession
1624263596.38,fixation,1,576,,,RelaxSession
1624263596.95,stimulus,2,108,,,NoMusic
1624263597.14,stimulus,3,16,,,PracticeSession
1624263597.45,fixation,2,108,,,NoMusic
1624263597.64,fixation,3,16,,,PracticeSession
1624263597.88,stimulus,1,577,,,RelaxSession
1624263598.38,fixation,1,577,,,RelaxSession
1624263598.95,stimulus,2,109,,,NoMusic
1624263599.14,stimulus,3,17,,,PracticeSession
1624263599.45,fixation,2,109,,,NoMusic
1624263599.64,fixation,3,17,,,PracticeSession
1624263599.88,stimulus,1,578,,,RelaxSession
1624263600.38,fixation,1,578,,,RelaxSession
1624263600.95,stimulus,2,110,,,NoMusic
1624263601.14,stimulus,3,18,,,PracticeSession
1624263601.45,fixation,2,110,,,NoMusic
1624263601.64,fixation,3,18,,,PracticeSession
1624263601.88,stimulus,1,579,,,RelaxSession
1624263602.38,fixation,1,579,,,RelaxSession
1624263602.95,stimulus,2,111,,,NoMusic
1624263603.14,stimulus,3,19,,,PracticeSession
1624263603.45,fixation,2,111,,,NoMusic
1624263603.64,fixation,3,19,,,PracticeSession
1624263603.88,stimulus,1,580,,,RelaxSession
1624263604.38,fixation,1,580,,,RelaxSession
1624263604.95,stimulus,2,112,,,NoMusic
1624263605.14,stimulus,3,20,,,PracticeSession
1624263605.45,fixation,2,112,,,NoMusic
1624263605.64,fixation,3,20,,,PracticeSession
1624263605.88,stimulus,1,581,,,RelaxSession
1624263606.38,fixation,1,581,,,RelaxSession
1624263606.95,stimulus,2,113,,,NoMusic
1624263607.14,stimulus,3,21,,,PracticeSession
1624263607.45,fixation,2,113,,,NoMusic
1624263607.64,fixation,3,21,,,PracticeSession
1624263607.88,stimulus,1,582,,,RelaxSession
1624263608.38,fixation,1,582,,,RelaxSession
1624263608.95,stimulus,2,114,,,NoMusic
1624263609.14,stimulus,3,22,,,PracticeSession
1624263609.45,fixation,2,114,,,NoMusic
1624263609.64,fixation,3,22,,,PracticeSession
1624263609.88,stimulus,1,583,,,RelaxSession
1624263610.38,fixation,1,583,,,RelaxSession
1624263610.95,stimulus,2,115,,,NoMusic
1624263611.14,stimulus,3,23,,,PracticeSession
1624263611.45,fixation,2,115,,,NoMusic
1624263611.64,fixation,3,23,,,PracticeSession
1624263611.88,stimulus,1,584,,,RelaxSession
1624263612.38,fixation,1,584,,,RelaxSession
1624263612.95,stimulus,2,116,,,NoMusic
1624263613.14,stimulus,3,24,,,PracticeSession
1624263613.45,fixation,2,116,,,NoMusic
1624263613.64,fixation,3,24,,,PracticeSession
1624263613.88,stimulus,1,585,,,RelaxSession
1624263614.38,fixation,1,585,,,RelaxSession
1624263614.95,stimulus,2,117,,,NoMusic
1624263615.14,stimulus,3,25,,,PracticeSession
1624263615.45,fixation,2,117,,,NoMusic
1624263615.64,fixation,3,25,,,PracticeSession
1624263615.88,stimulus,1,586,,,RelaxSession
1624263616.38,fixation,1,586,,,RelaxSession
1624263616.95,stimulus,2,118,,,NoMusic
1624263617.14,stimulus,3,26,,,PracticeSession
1624263617.45,fixation,2,118,,,NoMusic
1624263617.64,fixation,3,26,,,PracticeSession
1624263617.88,stimulus,1,587,,,RelaxSession
1624263618.38,fixation,1,587,,,RelaxSession
1624263618.95,stimulus,2,119,,,NoMusic
1624263619.14,stimulus,3,27,,,PracticeSession
1624263619.45,fixation,2,119,,,NoMusic
1624263619.64,fixation,3,27,,,PracticeSession
1624263619.88,stimulus,1,588,,,RelaxSession
1624263620.38,fixation,1,588,,,RelaxSession
1624263620.95,stimulus,2,120,,,NoMusic
1624263621.14,stimulus,3,28,,,PracticeSession
1624263621.45,fixation,2,120,,,NoMusic
1624263621.64,fixation,3,28,,,PracticeSession
1624263621.88,stimulus,1,589,,,RelaxSession
1624263622.38,fixation,1,589,,,RelaxSession
1624263622.95,stimulus,2,121,,,NoMusic
1624263623.14,stimulus,3,29,,,PracticeSession
1624263623.45,fixation,2,121,,,NoMusic
1624263623.64,fixation,3,29,,,PracticeSession
1624263623.88,stimulus,1,590,,,RelaxSession
1624263624.38,fixation,1,590,,,RelaxSession
1624263624.95,stimulus,2,122,,,NoMusic
1624263625.14,stimulus,3,30,,,PracticeSession
1624263625.45,fixation,2,122,,,NoMusic
1624263625.64,fixation,3,30,,,PracticeSession
1624263625.88,stimulus,1,591,,,RelaxSession
1624263626.38,fixation,1,591,,,RelaxSession
1624263626.95,stimulus,2,123,,,NoMusic
1624263627.14,stimulus,3,31,,,PracticeSession
1624263627.45,fixation,2,123,,,NoMusic
1624263627.64,fixation,3,31,,,PracticeSession
1624263627.88,stimulus,1,592,,,RelaxSession
1624263628.38,fixation,1,592,,,RelaxSession
1624263628.95,stimulus,2,124,,,NoMusic
1624263629.14,stimulus,3,32,,,PracticeSession
1624263629.45,fixation,2,124,,,NoMusic
1624263629.64,fixation,3,32,,,PracticeSession
1624263629.88,stimulus,1,593,,,RelaxSession
1624263630.38,fixation,1,593,,,RelaxSession
1624263630.95,stimulus,2,125,,,NoMusic
1624263631.14,stimulus,3,33,,,PracticeSession
1624263631.45,fixation,2,125,,,NoMusic
1624263631.64,fixation,3,33,,,PracticeSession
1624263631.88,stimulus,1,594,,,RelaxSession
1624263632.38,fixation,1,594,,,RelaxSession
1624263632.95,stimulus,2,126,,,NoMusic
1624263633.14,stimulus,3,34,,,PracticeSession
1624263633.45,fixation,2,126,,,NoMusic
1624263633.64,fixation,3,34,,,PracticeSession
1624263633.88,stimulus,1,595,,,RelaxSession
1624263634.38,fixation,1,595,,,RelaxSession
1624263634.95,stimulus,2,127,,,NoMusic
1624263635.14,stimulus,3,35,,,PracticeSession
1624263635.45,fixation,2,127,,,NoMusic
1624263635.64,fixation,3,35,,,PracticeSession
1624263635.88,stimulus,1,596,,,RelaxSession
1624263636.38,fixation,1,596,,,RelaxSession
1624263636.95,stimulus,2,128,,,NoMusic
1624263637.14,stimulus,3,36,,,PracticeSession
1624263637.45,fixation,2,128,,,NoMusic
1624263637.64,fixation,3,36,,,PracticeSession
1624263637.88,stimulus,1,597,,,RelaxSession
1624263638.38,fixation,1,597,,,RelaxSession
1624263638.95,stimulus,2,129,,,NoMusic
1624263639.14,stimulus,3,37,,,PracticeSession
1624263639.45,fixation,2,129,,,NoMusic
1624263639.64,fixation,3,37,,,PracticeSession
1624263639.88,stimulus,1,598,,,RelaxSession
1624263640.38,fixation,1,598,,,RelaxSession
1624263640.95,stimulus,2,130,,,NoMusic
1624263641.14,stimulus,3,38,,,PracticeSession
1624263641.45,fixation,2,130,,,NoMusic
1624263641.64,fixation,3,38,,,PracticeSession
1624263641.88,stimulus,1,599,,,RelaxSession
1624263642.38,fixation,1,599,,,RelaxSession
1624263642.95,stimulus,2,131,,,NoMusic
1624263643.14,stimulus,3,39,,,PracticeSession
1624263643.45,fixation,2,131,,,NoMusic
1624263643.64,fixation,3,39,,,PracticeSession
1624263643.88,stimulus,1,600,,,RelaxSession
1624263644.38,fixation,1,600,,,RelaxSession
1624263644.95,stimulus,2,132,,,NoMusic
1624263645.14,stimulus,3,40,,,PracticeSession
1624263645.45,fixation,2,132,,,NoMusic
1624263645.64,fixation,3,40,,,PracticeSession
1624263645.88,stimulus,1,601,,,RelaxSession
1624263646.38,fixation,1,601,,,RelaxSession
1624263646.95,stimulus,2,133,,,NoMusic
1624263647.14,stimulus,3,41,,,PracticeSession
1624263647.45,fixation,2,133,,,NoMusic
1624263647.64,fixation,3,41,,,PracticeSession
1624263647.88,stimulus,1,602,,,RelaxSession
1624263648.38,fixation,1,602,,,RelaxSession
1624263648.95,stimulus,2,134,,,NoMusic
1624263649.14,stimulus,3,42,,,PracticeSession
1624263649.45,fixation,2,134,,,NoMusic
1624263649.64,fixation,3,42,,,PracticeSession
1624263649.88,stimulus,1,603,,,RelaxSession
1624263650.38,fixation,1,603,,,RelaxSession
1624263650.95,stimulus,2,135,,,NoMusic
1624263651.14,stimulus,3,43,,,PracticeSession
1624263651.45,fixation,2,135,,,NoMusic
1624263651.64,fixation,3,43,,,PracticeSession
1624263651.88,stimulus,1,604,,,RelaxSession
1624263652.38,fixation,1,604,,,RelaxSession
1624263652.95,stimulus,2,136,,,NoMusic
1624263653.14,stimulus,3,44,,,PracticeSession
1624263653.45,fixation,2,136,,,NoMusic
1624263653.64,fixation,3,44,,,PracticeSession
1624263653.88,stimulus,1,605,,,RelaxSession
1624263654.38,fixation,1,605,,,RelaxSession
1624263654.95,stimulus,2,137,,,NoMusic
1624263655.14,stimulus,3,45,,,NoMusic
1624263655.45,fixation,2,137,,,NoMusic
1624263655.64,fixation,3,45,,,NoMusic
1624263655.88,stimulus,1,606,,,RelaxSession
1624263656.38,fixation,1,606,,,RelaxSession
1624263656.95,stimulus,2,138,,,NoMusic
1624263657.14,stimulus,3,46,,,NoMusic
1624263657.45,fixation,2,138,,,NoMusic
1624263657.64,fixation,3,46,,,NoMusic
1624263657.88,stimulus,1,607,,,RelaxSession
1624263658.38,fixation,1,607,,,RelaxSession
1624263658.95,stimulus,2,139,,,NoMusic
1624263659.14,stimulus,3,47,,,NoMusic
1624263659.45,fixation,2,139,,,NoMusic
1624263659.64,fixation,3,47,,,NoMusic
1624263659.88,stimulus,1,608,,,RelaxSession
1624263660.38,fixation,1,608,,,RelaxSession
1624263660.95,stimulus,2,140,,,NoMusic
1624263661.14,stimulus,3,48,,,NoMusic
1624263661.45,fixation,2,140,,,NoMusic
1624263661.64,fixation,3,48,,,NoMusic
1624263661.88,stimulus,1,609,,,RelaxSession
1624263662.38,fixation,1,609,,,RelaxSession
1624263662.95,stimulus,2,141,,,NoMusic
1624263663.14,stimulus,3,49,,,NoMusic
1624263663.45,fixation,2,141,,,NoMusic
1624263663.64,fixation,3,49,,,NoMusic
1624263663.88,stimulus,1,610,,,RelaxSession
1624263664.38,fixation,1,610,,,RelaxSession
1624263664.95,stimulus,2,142,,,NoMusic
1624263665.14,stimulus,3,50,,,NoMusic
1624263665.45,fixation,2,142,,,NoMusic
1624263665.64,fixation,3,50,,,NoMusic
1624263665.88,stimulus,1,611,,,RelaxSession
1624263666.38,fixation,1,611,,,RelaxSession
1624263666.95,stimulus,2,143,,,NoMusic
1624263667.14,stimulus,3,51,,,NoMusic
1624263667.45,fixation,2,143,,,NoMusic
1624263667.64,fixation,3,51,,,NoMusic
1624263667.88,stimulus,1,612,,,RelaxSession
1624263668.38,fixation,1,612,,,RelaxSession
1624263668.95,stimulus,2,144,,,NoMusic
1624263669.14,stimulus,3,52,,,NoMusic
1624263669.45,fixation,2,144,,,NoMusic
1624263669.64,fixation,3,52,,,NoMusic
1624263669.88,stimulus,1,613,,,RelaxSession
1624263670.38,fixation,1,613,,,RelaxSession
1624263670.95,stimulus,2,145,,,NoMusic
1624263671.14,stimulus,3,53,,,NoMusic
1624263671.45,fixation,2,145,,,NoMusic
1624263671.64,fixation,3,53,,,NoMusic
1624263671.88,stimulus,1,614,,,RelaxSession
1624263672.38,fixation,1,614,,,RelaxSession
1624263672.95,stimulus,2,146,,,NoMusic
1624263673.14,stimulus,3,54,,,NoMusic
1624263673.45,fixation,2,146,,,NoMusic
1624263673.64,fixation,3,54,,,NoMusic
1624263673.88,stimulus,1,615,,,RelaxSession
1624263674.38,fixation,1,615,,,RelaxSession
1624263674.95,stimulus,2,147,,,NoMusic
1624263675.14,stimulus,3,55,,,NoMusic
1624263675.45,fixation,2,147,,,NoMusic
1624263675.64,fixation,3,55,,,NoMusic
1624263675.88,stimulus,1,616,,,RelaxSession
1624263676.38,fixation,1,616,,,RelaxSession
1624263676.95,stimulus,2,148,,,NoMusic
1624263677.14,stimulus,3,56,,,NoMusic
1624263677.45,fixation,2,148,,,NoMusic
1624263677.64,fixation,3,56,,,NoMusic
1624263677.88,stimulus,1,617,,,RelaxSession
1624263678.38,fixation,1,617,,,RelaxSession
1624263678.95,stimulus,2,149,,,NoMusic
1624263679.14,stimulus,3,57,,,NoMusic
1624263679.45,fixation,2,149,,,NoMusic
1624263679.64,fixation,3,57,,,NoMusic
1624263679.88,stimulus,1,618,,,RelaxSession
1624263680.38,fixation,1,618,,,RelaxSession
1624263680.95,stimulus,2,150,,,NoMusic
1624263681.14,stimulus,3,58,,,NoMusic
1624263681.45,fixation,2,150,,,NoMusic
1624263681.64,fixation,3,58,,,NoMusic
1624263681.88,stimulus,1,619,,,RelaxSession
1624263682.38,fixation,1,619,,,RelaxSession
1624263682.95,stimulus,2,151,,,NoMusic
1624263683.14,stimulus,3,59,,,NoMusic
1624263683.45,fixation,2,151,,,NoMusic
1624263683.64,fixation,3,59,,,NoMusic
1624263683.88,stimulus,1,620,,,RelaxSession
1624263684.38,fixation,1,620,,,RelaxSession
1624263684.95,stimulus,2,152,,,NoMusic
1624263685.14,stimulus,3,60,,,NoMusic
1624263685.45,fixation,2,152,,,NoMusic
1624263685.64,fixation,3,60,,,NoMusic
1624263685.88,stimulus,1,621,,,RelaxSession
1624263686.38,fixation,1,621,,,RelaxSession
1624263686.95,stimulus,2,153,,,NoMusic
1624263687.14,stimulus,3,61,,,NoMusic
1624263687.45,fixation,2,153,,,NoMusic
1624263687.64,fixation,3,61,,,NoMusic
1624263687.88,stimulus,1,622,,,RelaxSession
1624263688.38,fixation,1,622,,,RelaxSession
1624263688.95,stimulus,2,154,,,NoMusic
1624263689.14,stimulus,3,62,,,NoMusic
1624263689.45,fixation,2,154,,,NoMusic
1624263689.64,fixation,3,62,,,NoMusic
1624263689.88,stimulus,1,623,,,RelaxSession
1624263690.38,fixation,1,623,,,RelaxSession
1624263690.95,stimulus,2,155,,,NoMusic
1624263691.14,stimulus,3,63,,,NoMusic
1624263691.45,fixation,2,155,,,NoMusic
1624263691.64,fixation,3,63,,,NoMusic
1624263691.88,stimulus,1,624,,,RelaxSession
1624263692.38,fixation,1,624,,,RelaxSession
1624263692.95,stimulus,2,156,,,NoMusic
1624263693.14,stimulus,3,64,,,NoMusic
1624263693.45,fixation,2,156,,,NoMusic
1624263693.64,fixation,3,64,,,NoMusic
1624263693.88,stimulus,1,625,,,RelaxSession
1624263694.38,fixation,1,625,,,RelaxSession
1624263694.95,stimulus,2,157,,,NoMusic
1624263695.14,stimulus,3,65,,,NoMusic
1624263695.45,fixation,2,157,,,NoMusic
1624263695.64,fixation,3,65,,,NoMusic
1624263695.88,stimulus,1,626,,,RelaxSession
1624263696.38,fixation,1,626,,,RelaxSession
1624263696.95,stimulus,2,158,,,NoMusic
1624263697.14,stimulus,3,66,,,NoMusic
1624263697.45,fixation,2,158,,,NoMusic
1624263697.64,fixation,3,66,,,NoMusic
1624263697.88,stimulus,1,627,,,RelaxSession
1624263698.38,fixation,1,627,,,RelaxSession
1624263698.95,stimulus,2,159,,,NoMusic
1624263699.14,stimulus,3,67,,,NoMusic
1624263699.45,fixation,2,159,,,NoMusic
1624263699.64,fixation,3,67,,,NoMusic
1624263699.88,stimulus,1,628,,,RelaxSession
1624263700.38,fixation,1,628,,,RelaxSession
1624263700.95,stimulus,2,160,,,NoMusic
1624263701.14,stimulus,3,68,,,NoMusic
1624263701.45,fixation,2,160,,,NoMusic
1624263701.64,fixation,3,68,,,NoMusic
1624263701.88,stimulus,1,629,,,RelaxSession
1624263702.38,fixation,1,629,,,RelaxSession
1624263702.95,stimulus,2,161,,,NoMusic
1624263703.14,stimulus,3,69,,,NoMusic
1624263703.45,fixation,2,161,,,NoMusic
1624263703.64,fixation,3,69,,,NoMusic
1624263703.88,stimulus,1,630,,,RelaxSession
1624263704.38,fixation,1,630,,,RelaxSession
1624263704.95,stimulus,2,162,,,NoMusic
1624263705.14,stimulus,3,70,,,NoMusic
1624263705.45,fixation,2,162,,,NoMusic
1624263705.64,fixation,3,70,,,NoMusic
1624263705.88,stimulus,1,631,,,RelaxSession
1624263706.38,fixation,1,631,,,RelaxSession
1624263706.95,stimulus,2,163,,,NoMusic
1624263707.14,stimulus,3,71,,,NoMusic
1624263707.45,fixation,2,163,,,NoMusic
1624263707.64,fixation,3,71,,,NoMusic
1624263707.88,stimulus,1,632,,,RelaxSession
1624263708.38,fixation,1,632,,,RelaxSession
1624263708.95,stimulus,2,164,,,NoMusic
1624263709.14,stimulus,3,72,,,NoMusic
1624263709.45,fixation,2,164,,,NoMusic
1624263709.64,fixation,3,72,,,NoMusic
1624263709.88,stimulus,1,633,,,RelaxSession
1624263710.38,fixation,1,633,,,RelaxSession
1624263710.95,stimulus,2,165,,,NoMusic
1624263711.14,stimulus,3,73,,,NoMusic
1624263711.45,fixation,2,165,,,NoMusic
1624263711.64,fixation,3,73,,,NoMusic
1624263711.88,stimulus,1,634,,,RelaxSession
1624263712.38,fixation,1,634,,,RelaxSession
1624263712.95,stimulus,2,166,,,NoMusic
1624263713.14,stimulus,3,74,,,NoMusic
1624263713.45,fixation,2,166,,,NoMusic
1624263713.64,fixation,3,74,,,NoMusic
1624263713.88,stimulus,1,635,,,RelaxSession
1624263714.38,fixation,1,635,,,RelaxSession
1624263714.95,stimulus,2,167,,,NoMusic
1624263715.14,stimulus,3,75,,,NoMusic
1624263715.45,fixation,2,167,,,NoMusic
1624263715.64,fixation,3,75,,,NoMusic
1624263715.88,stimulus,1,636,,,RelaxSession
1624263716.38,fixation,1,636,,,RelaxSession
1624263716.95,stimulus,2,168,,,NoMusic
1624263717.14,stimulus,3,76,,,NoMusic
1624263717.45,fixation,2,168,,,NoMusic
1624263717.64,fixation,3,76,,,NoMusic
1624263717.88,stimulus,1,637,,,RelaxSession
1624263718.38,fixation,1,637,,,RelaxSession
1624263718.95,stimulus,2,169,,,NoMusic
1624263719.14,stimulus,3,77,,,NoMusic
1624263719.45,fixation,2,169,,,NoMusic
1624263719.64,fixation,3,77,,,NoMusic
1624263719.88,stimulus,1,638,,,RelaxSession
1624263720.38,fixation,1,638,,,RelaxSession
1624263720.95,stimulus,2,170,,,NoMusic
1624263721.14,stimulus,3,78,,,NoMusic
1624263721.45,fixation,2,170,,,NoMusic
1624263721.64,fixation,3,78,,,NoMusic
1624263721.88,stimulus,1,639,,,RelaxSession
1624263722.38,fixation,1,639,,,RelaxSession
1624263722.95,stimulus,2,171,,,NoMusic
1624263723.14,stimulus,3,79,,,NoMusic
1624263723.45,fixation,2,171,,,NoMusic
1624263723.64,fixation,3,79,,,NoMusic
1624263723.88,stimulus,1,640,,,RelaxSession
1624263724.38,fixation,1,640,,,RelaxSession
1624263724.95,stimulus,2,172,,,NoMusic
1624263725.14,stimulus,3,80,,,NoMusic
1624263725.45,fixation,2,172,,,NoMusic
1624263725.64,fixation,3,80,,,NoMusic
1624263725.88,stimulus,1,641,,,RelaxSession
1624263726.38,fixation,1,641,,,RelaxSession
1624263726.95,stimulus,2,173,,,NoMusic
1624263727.14,stimulus,3,81,,,NoMusic
1624263727.45,fixation,2,173,,,NoMusic
1624263727.64,fixation,3,81,,,NoMusic
1624263727.88,stimulus,1,642,,,RelaxSession
1624263728.38,fixation,1,642,,,RelaxSession
1624263728.95,stimulus,2,174,,,NoMusic
1624263729.14,stimulus,3,82,,,NoMusic
1624263729.45,fixation,2,174,,,NoMusic
1624263729.64,fixation,3,82,,,NoMusic
1624263729.88,stimulus,1,643,,,RelaxSession
1624263730.38,fixation,1,643,,,RelaxSession
1624263730.95,stimulus,2,175,,,NoMusic
1624263731.14,stimulus,3,83,,,NoMusic
1624263731.45,fixation,2,175,,,NoMusic
1624263731.64,fixation,3,83,,,NoMusic
1624263731.88,stimulus,1,644,,,RelaxSession
1624263732.38,fixation,1,644,,,RelaxSession
1624263732.95,stimulus,2,176,,,NoMusic
1624263733.14,stimulus,3,84,,,NoMusic
1624263733.45,fixation,2,176,,,NoMusic
1624263733.64,fixation,3,84,,,NoMusic
1624263733.88,stimulus,1,645,,,RelaxSession
1624263734.38,fixation,1,645,,,RelaxSession
1624263734.95,stimulus,2,177,,,NoMusic
1624263735.14,stimulus,3,85,,,NoMusic
1624263735.45,fixation,2,177,,,NoMusic
1624263735.64,fixation,3,85,,,NoMusic
1624263735.88,stimulus,1,646,,,RelaxSession
1624263736.38,fixation,1,646,,,RelaxSession
1624263736.95,stimulus,2,178,,,NoMusic
1624263737.14,stimulus,3,86,,,NoMusic
1624263737.45,fixation,2,178,,,NoMusic
1624263737.64,fixation,3,86,,,NoMusic
1624263737.88,stimulus,1,647,,,RelaxSession
1624263738.38,fixation,1,647,,,RelaxSession
1624263738.95,stimulus,2,179,,,NoMusic
1624263739.14,stimulus,3,87,,,NoMusic
1624263739.45,fixation,2,179,,,NoMusic
1624263739.64,fixation,3,87,,,NoMusic
1624263739.88,stimulus,1,648,,,RelaxSession
1624263740.38,fixation,1,648,,,RelaxSession
1624263740.95,stimulus,2,180,,,NoMusic
1624263741.14,stimulus,3,88,,,NoMusic
1624263741.45,fixation,2,180,,,NoMusic
1624263741.64,fixation,3,88,,,NoMusic
1624263741.88,stimulus,1,649,,,RelaxSession
1624263742.38,fixation,1,649,,,RelaxSession
1624263742.95,stimulus,2,181,,,NoMusic
1624263743.14,stimulus,3,89,,,NoMusic
1624263743.45,fixation,2,181,,,NoMusic
1624263743.64,fixation,3,89,,,NoMusic
1624263743.88,stimulus,1,650,,,RelaxSession
1624263744.38,fixation,1,650,,,RelaxSession
1624263744.95,stimulus,2,182,,,NoMusic
1624263745.14,stimulus,3,90,,,NoMusic
1624263745.45,fixation,2,182,,,NoMusic
1624263745.64,fixation,3,90,,,NoMusic
1624263745.88,stimulus,1,651,,,RelaxSession
1624263746.38,fixation,1,651,,,RelaxSession
1624263746.95,stimulus,2,183,,,NoMusic
1624263747.14,stimulus,3,91,,,NoMusic
1624263747.45,fixation,2,183,,,NoMusic
1624263747.64,fixation,3,91,,,NoMusic
1624263747.88,stimulus,1,652,,,RelaxSession
1624263748.38,fixation,1,652,,,RelaxSession
1624263748.95,stimulus,2,184,,,NoMusic
1624263749.14,stimulus,3,92,,,NoMusic
1624263749.45,fixation,2,184,,,NoMusic
1624263749.64,fixation,3,92,,,NoMusic
1624263749.88,stimulus,1,653,,,RelaxSession
1624263750.38,fixation,1,653,,,RelaxSession
1624263750.95,stimulus,2,185,,,NoMusic
1624263751.14,stimulus,3,93,,,NoMusic
1624263751.45,fixation,2,185,,,NoMusic
1624263751.64,fixation,3,93,,,NoMusic
1624263751.88,stimulus,1,654,,,RelaxSession
1624263752.38,fixation,1,654,,,RelaxSession
1624263752.95,stimulus,2,186,,,NoMusic
1624263753.14,stimulus,3,94,,,NoMusic
1624263753.45,fixation,2,186,,,NoMusic
1624263753.64,fixation,3,94,,,NoMusic
1624263753.88,stimulus,1,655,,,RelaxSession
1624263754.38,fixation,1,655,,,RelaxSession
1624263754.95,stimulus,2,187,,,NoMusic
1624263755.14,stimulus,3,95,,,NoMusic
1624263755.45,fixation,2,187,,,NoMusic
1624263755.64,fixation,3,95,,,NoMusic
1624263755.88,stimulus,1,656,,,RelaxSession
1624263756.38,fixation,1,656,,,RelaxSession
1624263756.95,stimulus,2,188,,,NoMusic
1624263757.14,stimulus,3,96,,,NoMusic
1624263757.45,fixation,2,188,,,NoMusic
1624263757.64,fixation,3,96,,,NoMusic
1624263757.88,stimulus,1,657,,,RelaxSession
1624263758.38,fixation,1,657,,,RelaxSession
1624263758.95,stimulus,2,189,,,NoMusic
1624263759.14,stimulus,3,97,,,NoMusic
1624263759.45,fixation,2,189,,,NoMusic
1624263759.64,fixation,3,97,,,NoMusic
1624263759.88,stimulus,1,658,,,RelaxSession
1624263760.38,fixation,1,658,,,RelaxSession
1624263760.95,stimulus,2,190,,,NoMusic
1624263761.14,stimulus,3,98,,,NoMusic
1624263761.45,fixation,2,190,,,NoMusic
1624263761.64,fixation,3,98,,,NoMusic
1624263761.88,stimulus,1,659,,,RelaxSession
1624263762.38,fixation,1,659,,,RelaxSession
1624263762.95,stimulus,2,191,,,NoMusic
1624263763.14,stimulus,3,99,,,NoMusic
1624263763.45,fixation,2,191,,,NoMusic
1624263763.64,fixation,3,99,,,NoMusic
1624263763.88,stimulus,1,660,,,RelaxSession
1624263764.38,fixation,1,660,,,RelaxSession
1624263764.95,stimulus,2,192,,,NoMusic
1624263765.14,stimulus,3,100,,,NoMusic
1624263765.45,fixation,2,192,,,NoMusic
1624263765.64,fixation,3,100,,,NoMusic
1624263765.88,stimulus,1,661,,,RelaxSession
1624263766.38,fixation,1,661,,,RelaxSession
1624263766.95,stimulus,2,193,,,NoMusic
1624263767.14,stimulus,3,101,,,NoMusic
1624263767.45,fixation,2,193,,,NoMusic
1624263767.64,fixation,3,101,,,NoMusic
1624263767.88,stimulus,1,662,,,RelaxSession
1624263768.38,fixation,1,662,,,RelaxSession
1624263768.95,stimulus,2,194,,,NoMusic
1624263769.14,stimulus,3,102,,,NoMusic
1624263769.45,fixation,2,194,,,NoMusic
1624263769.64,fixation,3,102,,,NoMusic
1624263769.88,stimulus,1,663,,,RelaxSession
1624263770.38,fixation,1,663,,,RelaxSession
1624263770.95,stimulus,2,195,,,NoMusic
1624263771.14,stimulus,3,103,,,NoMusic
1624263771.45,fixation,2,195,,,NoMusic
1624263771.64,fixation,3,103,,,NoMusic
1624263771.88,stimulus,1,664,,,RelaxSession
1624263772.38,fixation,1,664,,,RelaxSession
1624263772.95,stimulus,2,196,,,NoMusic
1624263773.14,stimulus,3,104,,,NoMusic
1624263773.45,fixation,2,196,,,NoMusic
1624263773.64,fixation,3,104,,,NoMusic
1624263773.88,stimulus,1,665,,,RelaxSession
1624263774.38,fixation,1,665,,,RelaxSession
1624263774.95,stimulus,2,197,,,NoMusic
1624263775.14,stimulus,3,105,,,NoMusic
1624263775.45,fixation,2,197,,,NoMusic
1624263775.64,fixation,3,105,,,NoMusic
1624263775.88,stimulus,1,666,,,RelaxSession
1624263776.38,fixation,1,666,,,RelaxSession
1624263776.95,stimulus,2,198,,,NoMusic
1624263777.14,stimulus,3,106,,,NoMusic
1624263777.45,fixation,2,198,,,NoMusic
1624263777.64,fixation,3,106,,,NoMusic
1624263777.88,stimulus,1,667,,,RelaxSession
1624263778.38,fixation,1,667,,,RelaxSession
1624263778.95,stimulus,2,199,,,NoMusic
1624263779.14,stimulus,3,107,,,NoMusic
1624263779.45,fixation,2,199,,,NoMusic
1624263779.64,fixation,3,107,,,NoMusic
1624263779.88,stimulus,1,668,,,RelaxSession
1624263780.38,fixation,1,668,,,RelaxSession
1624263780.95,stimulus,2,200,,,NoMusic
1624263781.14,stimulus,3,108,,,NoMusic
1624263781.45,fixation,2,200,,,NoMusic
1624263781.64,fixation,3,108,,,NoMusic
1624263781.88,stimulus,1,669,,,RelaxSession
1624263782.38,fixation,1,669,,,RelaxSession
1624263782.95,stimulus,2,201,,,NoMusic
1624263783.14,stimulus,3,109,,,NoMusic
1624263783.45,fixation,2,201,,,NoMusic
1624263783.64,fixation,3,109,,,NoMusic
1624263783.88,stimulus,1,670,,,RelaxSession
1624263784.38,fixation,1,670,,,RelaxSession
1624263784.95,stimulus,2,202,,,NoMusic
1624263785.14,stimulus,3,110,,,NoMusic
1624263785.45,fixation,2,202,,,NoMusic
1624263785.64,fixation,3,110,,,NoMusic
1624263785.88,stimulus,1,671,,,RelaxSession
1624263786.38,fixation,1,671,,,RelaxSession
1624263786.95,stimulus,2,203,,,NoMusic
1624263787.14,stimulus,3,111,,,NoMusic
1624263787.45,fixation,2,203,,,NoMusic
1624263787.64,fixation,3,111,,,NoMusic
1624263787.88,stimulus,1,672,,,RelaxSession
1624263788.38,fixation,1,672,,,RelaxSession
1624263788.95,stimulus,2,204,,,NoMusic
1624263789.14,stimulus,3,112,,,NoMusic
1624263789.45,fixation,2,204,,,NoMusic
1624263789.64,fixation,3,112,,,NoMusic
1624263789.88,stimulus,1,673,,,RelaxSession
1624263790.38,fixation,1,673,,,RelaxSession
1624263790.95,stimulus,2,205,,,NoMusic
1624263791.14,stimulus,3,113,,,NoMusic
1624263791.45,fixation,2,205,,,NoMusic
1624263791.64,fixation,3,113,,,NoMusic
1624263791.88,stimulus,1,674,,,RelaxSession
1624263792.38,fixation,1,674,,,RelaxSession
1624263792.95,stimulus,2,206,,,NoMusic
1624263793.14,stimulus,3,114,,,NoMusic
1624263793.45,fixation,2,206,,,NoMusic
1624263793.64,fixation,3,114,,,NoMusic
1624263793.88,stimulus,1,675,,,RelaxSession
1624263794.38,fixation,1,675,,,RelaxSession
1624263794.95,stimulus,2,207,,,NoMusic
1624263795.14,stimulus,3,115,,,NoMusic
1624263795.45,fixation,2,207,,,NoMusic
1624263795.64,fixation,3,115,,,NoMusic
1624263795.88,stimulus,1,676,,,RelaxSession
1624263796.38,fixation,1,676,,,RelaxSession
1624263796.95,stimulus,2,208,,,NoMusic
1624263797.14,stimulus,3,116,,,NoMusic
1624263797.45,fixation,2,208,,,NoMusic
1624263797.64,fixation,3,116,,,NoMusic
1624263797.88,stimulus,1,677,,,RelaxSession
1624263798.38,fixation,1,677,,,RelaxSession
1624263798.95,stimulus,2,209,,,NoMusic
1624263799.14,stimulus,3,117,,,NoMusic
1624263799.45,fixation,2,209,,,NoMusic
1624263799.64,fixation,3,117,,,NoMusic
1624263799.88,stimulus,1,678,,,RelaxSession
1624263800.38,fixation,1,678,,,RelaxSession
1624263800.95,stimulus,2,210,,,NoMusic
1624263801.14,stimulus,3,118,,,NoMusic
1624263801.45,fixation,2,210,,,NoMusic
1624263801.64,fixation,3,118,,,NoMusic
1624263801.88,stimulus,1,679,,,RelaxSession
1624263802.38,fixation,1,679,,,RelaxSession
1624263802.95,stimulus,2,211,,,NoMusic
1624263803.14,stimulus,3,119,,,NoMusic
1624263803.45,fixation,2,211,,,NoMusic
1624263803.64,fixation,3,119,,,NoMusic
1624263803.88,stimulus,1,680,,,RelaxSession
1624263804.38,fixation,1,680,,,RelaxSession
1624263804.95,stimulus,2,212,,,NoMusic
1624263805.14,stimulus,3,120,,,NoMusic
1624263805.45,fixation,2,212,,,NoMusic
1624263805.64,fixation,3,120,,,NoMusic
1624263805.88,stimulus,1,681,,,RelaxSession
1624263806.38,fixation,1,681,,,RelaxSession
1624263806.95,stimulus,2,213,,,NoMusic
1624263807.14,stimulus,3,121,,,NoMusic
1624263807.45,fixation,2,213,,,NoMusic
1624263807.64,fixation,3,121,,,NoMusic
1624263807.88,stimulus,1,682,,,RelaxSession
1624263808.38,fixation,1,682,,,RelaxSession
1624263808.95,stimulus,2,214,,,NoMusic
1624263809.14,stimulus,3,122,,,NoMusic
1624263809.45,fixation,2,214,,,NoMusic
1624263809.64,fixation,3,122,,,NoMusic
1624263809.88,stimulus,1,683,,,RelaxSession
1624263810.38,fixation,1,683,,,RelaxSession
1624263810.95,stimulus,2,215,,,NoMusic
1624263811.14,stimulus,3,123,,,NoMusic
1624263811.45,fixation,2,215,,,NoMusic
1624263811.64,fixation,3,123,,,NoMusic
1624263811.88,stimulus,1,684,,,RelaxSession
1624263812.38,fixation,1,684,,,RelaxSession
1624263812.95,stimulus,2,216,,,NoMusic
1624263813.14,stimulus,3,124,,,NoMusic
1624263813.45,fixation,2,216,,,NoMusic
1624263813.64,fixation,3,124,,,NoMusic
1624263813.88,stimulus,1,685,,,RelaxSession
1624263814.38,fixation,1,685,,,RelaxSession
1624263814.95,stimulus,2,217,,,NoMusic
1624263815.14,stimulus,3,125,,,NoMusic
1624263815.45,fixation,2,217,,,NoMusic
1624263815.64,fixation,3,125,,,NoMusic
1624263815.88,stimulus,1,686,,,RelaxSession
1624263816.38,fixation,1,686,,,RelaxSession
1624263816.95,stimulus,2,218,,,NoMusic
1624263817.14,stimulus,3,126,,,NoMusic
1624263817.45,fixation,2,218,,,NoMusic
1624263817.64,fixation,3,126,,,NoMusic
1624263817.88,stimulus,1,687,,,RelaxSession
1624263818.38,fixation,1,687,,,RelaxSession
1624263818.95,stimulus,2,219,,,NoMusic
1624263819.14,stimulus,3,127,,,NoMusic
1624263819.45,fixation,2,219,,,NoMusic
1624263819.64,fixation,3,127,,,NoMusic
1624263819.88,stimulus,1,688,,,RelaxSession
1624263820.38,fixation,1,688,,,RelaxSession
1624263820.95,stimulus,2,220,,,NoMusic
1624263821.14,stimulus,3,128,,,NoMusic
1624263821.45,fixation,2,220,,,NoMusic
1624263821.64,fixation,3,128,,,NoMusic
1624263821.88,stimulus,1,689,,,RelaxSession
1624263822.38,fixation,1,689,,,RelaxSession
1624263822.95,stimulus,2,221,,,NoMusic
1624263823.14,stimulus,3,129,,,NoMusic
1624263823.45,fixation,2,221,,,NoMusic
1624263823.64,fixation,3,129,,,NoMusic
1624263823.88,stimulus,1,690,,,RelaxSession
1624263824.38,fixation,1,690,,,RelaxSession
1624263824.95,stimulus,2,222,,,NoMusic
1624263825.14,stimulus,3,130,,,NoMusic
1624263825.45,fixation,2,222,,,NoMusic
1624263825.64,fixation,3,130,,,NoMusic
1624263825.88,stimulus,1,691,,,RelaxSession
1624263826.38,fixation,1,691,,,RelaxSession
1624263826.95,stimulus,2,223,,,NoMusic
1624263827.14,stimulus,3,131,,,NoMusic
1624263827.45,fixation,2,223,,,NoMusic
1624263827.64,fixation,3,131,,,NoMusic
1624263827.88,stimulus,1,692,,,RelaxSession
1624263828.38,fixation,1,692,,,RelaxSession
1624263828.95,stimulus,2,224,,,NoMusic
1624263829.14,stimulus,3,132,,,NoMusic
1624263829.45,fixation,2,224,,,NoMusic
1624263829.64,fixation,3,132,,,NoMusic
1624263829.88,stimulus,1,693,,,RelaxSession
1624263830.38,fixation,1,693,,,RelaxSession
1624263830.95,stimulus,2,225,,,NoMusic
1624263831.14,stimulus,3,133,,,NoMusic
1624263831.45,fixation,2,225,,,NoMusic
1624263831.64,fixation,3,133,,,NoMusic
1624263831.88,stimulus,1,694,,,RelaxSession
1624263832.38,fixation,1,694,,,RelaxSession
1624263832.95,stimulus,2,226,,,NoMusic
1624263833.14,stimulus,3,134,,,NoMusic
1624263833.45,fixation,2,226,,,NoMusic
1624263833.64,fixation,3,134,,,NoMusic
1624263833.88,stimulus,1,695,,,RelaxSession
1624263834.38,fixation,1,695,,,RelaxSession
1624263834.95,stimulus,2,227,,,NoMusic
1624263835.14,stimulus,3,135,,,NoMusic
1624263835.45,fixation,2,227,,,NoMusic
1624263835.64,fixation,3,135,,,NoMusic
1624263835.88,stimulus,1,696,,,RelaxSession
1624263836.38,fixation,1,696,,,RelaxSession
1624263836.95,stimulus,2,228,,,NoMusic
1624263837.14,stimulus,3,136,,,NoMusic
1624263837.45,fixation,2,228,,,NoMusic
1624263837.64,fixation,3,136,,,NoMusic
1624263837.88,stimulus,1,697,,,RelaxSession
1624263838.38,fixation,1,697,,,RelaxSession
1624263838.95,stimulus,2,229,,,NoMusic
1624263839.14,stimulus,3,137,,,NoMusic
1624263839.45,fixation,2,229,,,NoMusic
1624263839.64,fixation,3,137,,,NoMusic
1624263839.88,stimulus,1,698,,,RelaxSession
1624263840.38,fixation,1,698,,,RelaxSession
1624263840.95,stimulus,2,230,,,NoMusic
1624263841.14,stimulus,3,138,,,NoMusic
1624263841.45,fixation,2,230,,,NoMusic
1624263841.64,fixation,3,138,,,NoMusic
1624263841.88,stimulus,1,699,,,RelaxSession
1624263842.38,fixation,1,699,,,RelaxSession
1624263842.95,stimulus,2,231,,,NoMusic
1624263843.14,stimulus,3,139,,,NoMusic
1624263843.45,fixation,2,231,,,NoMusic
1624263843.64,fixation,3,139,,,NoMusic
1624263843.88,stimulus,1,700,,,RelaxSession
1624263844.38,fixation,1,700,,,RelaxSession
1624263844.95,stimulus,2,232,,,NoMusic
1624263845.14,stimulus,3,140,,,NoMusic
1624263845.45,fixation,2,232,,,NoMusic
1624263845.64,fixation,3,140,,,NoMusic
1624263845.88,stimulus,1,701,,,RelaxSession
1624263846.38,fixation,1,701,,,RelaxSession
1624263846.95,stimulus,2,233,,,NoMusic
1624263847.14,stimulus,3,141,,,NoMusic
1624263847.45,fixation,2,233,,,NoMusic
1624263847.64,fixation,3,141,,,NoMusic
1624263847.88,stimulus,1,702,,,RelaxSession
1624263848.38,fixation,1,702,,,RelaxSession
1624263848.95,stimulus,2,234,,,NoMusic
1624263849.14,stimulus,3,142,,,NoMusic
1624263849.45,fixation,2,234,,,NoMusic
1624263849.64,fixation,3,142,,,NoMusic
1624263849.88,stimulus,1,703,,,RelaxSession
1624263850.38,fixation,1,703,,,RelaxSession
1624263850.95,stimulus,2,235,,,NoMusic
1624263851.14,stimulus,3,143,,,NoMusic
1624263851.45,fixation,2,235,,,NoMusic
1624263851.64,fixation,3,143,,,NoMusic
1624263851.88,stimulus,1,704,,,RelaxSession
1624263852.38,fixation,1,704,,,RelaxSession
1624263852.95,stimulus,2,236,,,NoMusic
1624263853.14,stimulus,3,144,,,NoMusic
1624263853.45,fixation,2,236,,,NoMusic
1624263853.64,fixation,3,144,,,NoMusic
1624263853.88,stimulus,1,705,,,RelaxSession
1624263854.38,fixation,1,705,,,RelaxSession
1624263854.95,stimulus,2,237,,,NoMusic
1624263855.14,stimulus,3,145,,,NoMusic
1624263855.45,fixation,2,237,,,NoMusic
1624263855.64,fixation,3,145,,,NoMusic
1624263855.88,stimulus,1,706,,,RelaxSession
1624263856.38,fixation,1,706,,,RelaxSession
1624263856.95,stimulus,2,238,,,NoMusic
1624263857.14,stimulus,3,146,,,NoMusic
1624263857.45,fixation,2,238,,,NoMusic
1624263857.64,fixation,3,146,,,NoMusic
1624263857.88,stimulus,1,707,,,RelaxSession
1624263858.38,fixation,1,707,,,RelaxSession
1624263858.95,stimulus,2,239,,,NoMusic
1624263859.14,stimulus,3,147,,,NoMusic
1624263859.45,fixation,2,239,,,NoMusic
1624263859.64,fixation,3,147,,,NoMusic
1624263859.88,stimulus,1,708,,,RelaxSession
1624263860.38,fixation,1,708,,,RelaxSession
1624263860.95,stimulus,2,240,,,NoMusic
1624263861.14,stimulus,3,148,,,NoMusic
1624263861.45,fixation,2,240,,,NoMusic
1624263861.64,fixation,3,148,,,NoMusic
1624263861.88,stimulus,1,709,,,RelaxSession
1624263862.38,fixation,1,709,,,RelaxSession
1624263862.95,stimulus,2,241,,,NoMusic
1624263863.14,stimulus,3,149,,,NoMusic
1624263863.45,fixation,2,241,,,NoMusic
1624263863.64,fixation,3,149,,,NoMusic
1624263863.88,stimulus,1,710,,,RelaxSession
1624263864.38,fixation,1,710,,,RelaxSession
1624263864.95,stimulus,2,242,,,NoMusic
1624263865.14,stimulus,3,150,,,NoMusic
1624263865.45,fixation,2,242,,,NoMusic
1624263865.64,fixation,3,150,,,NoMusic
1624263865.88,stimulus,1,711,,,RelaxSession
1624263866.38,fixation,1,711,,,RelaxSession
1624263866.95,stimulus,2,243,,,NoMusic
1624263867.14,stimulus,3,151,,,NoMusic
1624263867.45,fixation,2,243,,,NoMusic
1624263867.64,fixation,3,151,,,NoMusic
1624263867.88,stimulus,1,712,,,RelaxSession
1624263868.38,fixation,1,712,,,RelaxSession
1624263868.95,stimulus,2,244,,,NoMusic
1624263869.14,stimulus,3,152,,,NoMusic
1624263869.45,fixation,2,244,,,NoMusic
1624263869.64,fixation,3,152,,,NoMusic
1624263869.88,stimulus,1,713,,,RelaxSession
1624263870.38,fixation,1,713,,,RelaxSession
1624263870.95,stimulus,2,245,,,NoMusic
1624263871.14,stimulus,3,153,,,NoMusic
1624263871.45,fixation,2,245,,,NoMusic
1624263871.64,fixation,3,153,,,NoMusic
1624263871.88,stimulus,1,714,,,RelaxSession
1624263872.38,fixation,1,714,,,RelaxSession
1624263872.95,stimulus,2,246,,,NoMusic
1624263873.14,stimulus,3,154,,,NoMusic
1624263873.45,fixation,2,246,,,NoMusic
1624263873.64,fixation,3,154,,,NoMusic
1624263873.88,stimulus,1,715,,,RelaxSession
1624263874.38,fixation,1,715,,,RelaxSession
1624263874.95,stimulus,2,247,,,NoMusic
1624263875.14,stimulus,3,155,,,NoMusic
1624263875.45,fixation,2,247,,,NoMusic
1624263875.64,fixation,3,155,,,NoMusic
1624263875.88,stimulus,1,716,,,RelaxSession
1624263876.38,fixation,1,716,,,RelaxSession
1624263876.95,stimulus,2,248,,,NoMusic
1624263877.14,stimulus,3,156,,,NoMusic
1624263877.45,fixation,2,248,,,NoMusic
1624263877.64,fixation,3,156,,,NoMusic
1624263877.88,stimulus,1,717,,,RelaxSession
1624263878.38,fixation,1,717,,,RelaxSession
1624263878.95,stimulus,2,249,,,NoMusic
1624263879.14,stimulus,3,157,,,NoMusic
1624263879.45,fixation,2,249,,,NoMusic
1624263879.64,fixation,3,157,,,NoMusic
1624263879.88,stimulus,1,718,,,RelaxSession
1624263880.38,fixation,1,718,,,RelaxSession
1624263880.95,stimulus,2,250,,,NoMusic
1624263881.14,stimulus,3,158,,,NoMusic
1624263881.45,fixation,2,250,,,NoMusic
1624263881.64,fixation,3,158,,,NoMusic
1624263881.88,stimulus,1,719,,,RelaxSession
1624263882.38,fixation,1,719,,,RelaxSession
1624263882.95,stimulus,2,251,,,NoMusic
1624263883.14,stimulus,3,159,,,NoMusic
1624263883.45,fixation,2,251,,,NoMusic
1624263883.64,fixation,3,159,,,NoMusic
1624263883.88,stimulus,1,720,,,RelaxSession
1624263884.38,fixation,1,720,,,RelaxSession
1624263884.95,stimulus,2,252,,,NoMusic
1624263885.14,stimulus,3,160,,,NoMusic
1624263885.45,fixation,2,252,,,NoMusic
1624263885.64,fixation,3,160,,,NoMusic
1624263885.88,stimulus,1,721,,,RelaxSession
1624263886.38,fixation,1,721,,,RelaxSession
1624263886.95,stimulus,2,253,,,NoMusic
1624263887.14,stimulus,3,161,,,NoMusic
1624263887.45,fixation,2,253,,,NoMusic
1624263887.64,fixation,3,161,,,NoMusic
1624263887.88,stimulus,1,722,,,RelaxSession
1624263888.38,fixation,1,722,,,RelaxSession
1624263888.95,stimulus,2,254,,,NoMusic
1624263889.14,stimulus,3,162,,,NoMusic
1624263889.45,fixation,2,254,,,NoMusic
1624263889.64,fixation,3,162,,,NoMusic
1624263889.88,stimulus,1,723,,,RelaxSession
1624263890.38,fixation,1,723,,,RelaxSession
1624263890.95,stimulus,2,255,,,NoMusic
1624263891.14,stimulus,3,163,,,NoMusic
1624263891.45,fixation,2,255,,,NoMusic
1624263891.64,fixation,3,163,,,NoMusic
1624263891.88,stimulus,1,724,,,RelaxSession
1624263892.38,fixation,1,724,,,RelaxSession
1624263892.95,stimulus,2,256,,,NoMusic
1624263893.14,stimulus,3,164,,,NoMusic
1624263893.45,fixation,2,256,,,NoMusic
1624263893.64,fixation,3,164,,,NoMusic
1624263893.88,stimulus,1,725,,,RelaxSession
1624263894.38,fixation,1,725,,,RelaxSession
1624263894.95,stimulus,2,257,,,NoMusic
1624263895.14,stimulus,3,165,,,NoMusic
1624263895.45,fixation,2,257,,,NoMusic
1624263895.64,fixation,3,165,,,NoMusic
1624263895.88,stimulus,1,726,,,RelaxSession
1624263896.38,fixation,1,726,,,RelaxSession
1624263896.95,stimulus,2,258,,,NoMusic
1624263897.14,stimulus,3,166,,,NoMusic
1624263897.45,fixation,2,258,,,NoMusic
1624263897.64,fixation,3,166,,,NoMusic
1624263897.88,stimulus,1,727,,,RelaxSession
1624263898.38,fixation,1,727,,,RelaxSession
1624263898.95,stimulus,2,259,,,NoMusic
1624263899.14,stimulus,3,167,,,NoMusic
1624263899.45,fixation,2,259,,,NoMusic
1624263899.64,fixation,3,167,,,NoMusic
1624263899.88,stimulus,1,728,,,RelaxSession
1624263900.38,fixation,1,728,,,RelaxSession
1624263900.95,stimulus,2,260,,,NoMusic
1624263901.14,stimulus,3,168,,,NoMusic
1624263901.45,fixation,2,260,,,NoMusic
1624263901.64,fixation,3,168,,,NoMusic
1624263901.88,stimulus,1,729,,,RelaxSession
1624263902.38,fixation,1,729,,,RelaxSession
1624263902.95,stimulus,2,261,,,NoMusic
1624263903.14,stimulus,3,169,,,NoMusic
1624263903.45,fixation,2,261,,,NoMusic
