event_time_s,trial_type,session_idx,trial_idx,RT_s,ACC,session_type
1623676765.69,stimulus,1,1,,,PracticeSession
1623676766.19,fixation,1,1,,,PracticeSession
1623676767.69,stimulus,1,2,,,PracticeSession
1623676768.19,fixation,1,2,,,PracticeSession
1623676769.69,stimulus,1,3,,,PracticeSession
1623676770.19,fixation,1,3,,,PracticeSession
1623676771.69,stimulus,1,4,,,PracticeSession
1623676772.19,fixation,1,4,,,PracticeSession
1623676773.69,stimulus,1,5,,,PracticeSession
1623676774.19,fixation,1,5,,,PracticeSession
1623676775.69,stimulus,1,6,,,PracticeSession
1623676776.19,fixation,1,6,,,PracticeSession
1623676777.69,stimulus,1,7,,,PracticeSession
1623676778.19,fixation,1,7,,,PracticeSession
1623676779.69,stimulus,1,8,,,PracticeSession
1623676780.19,fixation,1,8,,,PracticeSession
1623676781.69,stimulus,1,9,,,PracticeSession
1623676782.19,fixation,1,9,,,PracticeSession
1623676783.69,stimulus,1,10,,,PracticeSession
1623676784.19,fixation,1,10,,,PracticeSession
1623676785.69,stimulus,1,11,,,PracticeSession
1623676786.19,fixation,1,11,,,PracticeSession
1623676787.69,stimulus,1,12,,,PracticeSession
1623676788.19,fixation,1,12,,,PracticeSession
1623676789.69,stimulus,1,13,,,PracticeSession
1623676790.19,fixation,1,13,,,PracticeSession
1623676791.69,stimulus,1,14,,,PracticeSession
1623676792.19,fixation,1,14,,,PracticeSession
1623676793.69,stimulus,1,15,,,PracticeSession
1623676794.19,fixation,1,15,,,PracticeSession
1623676795.69,stimulus,1,16,,,PracticeSession
1623676796.19,fixation,1,16,,,PracticeSession
1623676797.69,stimulus,1,17,,,PracticeSession
1623676798.19,fixation,1,17,,,PracticeSession
1623676799.69,stimulus,1,18,,,PracticeSession
1623676800.19,fixation,1,18,,,PracticeSession
1623676801.69,stimulus,1,19,,,PracticeSession
1623676802.19,fixation,1,19,,,PracticeSession
1623676803.69,stimulus,1,20,,,PracticeSession
1623676804.19,fixation,1,20,,,PracticeSession
1623676805.69,stimulus,1,21,,,PracticeSession
1623676806.19,fixation,1,21,,,PracticeSession
1623676807.69,stimulus,1,22,,,PracticeSession
1623676808.19,fixation,1,22,,,PracticeSession
1623676809.69,stimulus,1,23,,,PracticeSession
1623676810.19,fixation,1,23,,,PracticeSession
1623676811.69,stimulus,1,24,,,PracticeSession
1623676812.19,fixation,1,24,,,PracticeSession
1623676813.69,stimulus,1,25,,,PracticeSession
1623676814.19,fixation,1,25,,,PracticeSession
1623676815.69,stimulus,1,26,,,PracticeSession
1623676816.19,fixation,1,26,,,PracticeSession
1623676817.69,stimulus,1,27,,,PracticeSession
1623676818.19,fixation,1,27,,,PracticeSession
1623676819.69,stimulus,1,28,,,PracticeSession
1623676820.19,fixation,1,28,,,PracticeSession
1623676821.69,stimulus,1,29,,,PracticeSession
1623676822.19,fixation,1,29,,,PracticeSession
1623676823.69,stimulus,1,30,,,PracticeSession
1623676824.19,fixation,1,30,,,PracticeSession
1623676825.69,stimulus,1,31,,,PracticeSession
1623676826.19,fixation,1,31,,,PracticeSession
1623676827.69,stimulus,1,32,,,PracticeSession
1623676828.19,fixation,1,32,,,PracticeSession
1623676829.69,stimulus,1,33,,,PracticeSession
1623676830.19,fixation,1,33,,,PracticeSession
1623676831.69,stimulus,1,34,,,PracticeSession
1623676832.19,fixation,1,34,,,PracticeSession
1623676833.69,stimulus,1,35,,,PracticeSession
1623676834.19,fixation,1,35,,,PracticeSession
1623676835.69,stimulus,1,36,,,PracticeSession
1623676836.19,fixation,1,36,,,PracticeSession
1623676837.69,stimulus,1,37,,,PracticeSession
1623676838.19,fixation,1,37,,,PracticeSession
1623676839.69,stimulus,1,38,,,PracticeSession
1623676840.19,fixation,1,38,,,PracticeSession
1623676841.69,stimulus,1,39,,,PracticeSession
1623676842.19,fixation,1,39,,,PracticeSession
1623676843.69,stimulus,1,40,,,PracticeSession
1623676844.19,fixation,1,40,,,PracticeSession
1623676845.69,stimulus,1,41,,,PracticeSession
1623676846.19,fixation,1,41,,,PracticeSession
1623676847.69,stimulus,1,42,,,PracticeSession
1623676848.19,fixation,1,42,,,PracticeSession
1623676849.69,stimulus,1,43,,,PracticeSession
1623676850.19,fixation,1,43,,,PracticeSession
1623676851.69,stimulus,1,44,,,PracticeSession
1623676852.19,fixation,1,44,,,PracticeSession
1623676853.69,stimulus,1,45,,0.0,NoMusic
1623676854.19,fixation,1,45,,0.0,NoMusic
1623676855.69,stimulus,1,46,,0.0,NoMusic
1623676856.3270001,fixation,1,46,0.137,1.0,NoMusic
1623676857.69,stimulus,1,47,,0.0,NoMusic
1623676858.313,fixation,1,47,0.123,1.0,NoMusic
1623676859.69,stimulus,1,48,,0.0,NoMusic
1623676860.359,fixation,1,48,0.169,1.0,NoMusic
1623676861.69,stimulus,1,49,,0.0,NoMusic
1623676862.253,fixation,1,49,0.063,1.0,NoMusic
1623676863.69,stimulus,1,50,,0.0,NoMusic
1623676864.315,fixation,1,50,0.125,1.0,NoMusic
1623676865.69,stimulus,1,51,,0.0,NoMusic
1623676866.352,fixation,1,51,0.162,0.0,NoMusic
1623676868.161,stimulus,1,52,0.471,1.0,NoMusic
1623676868.19,fixation,1,52,,0.0,NoMusic
1623676869.69,stimulus,1,53,,0.0,NoMusic
1623676870.364,fixation,1,53,0.174,1.0,NoMusic
1623676871.69,stimulus,1,54,,0.0,NoMusic
1623676872.242,fixation,1,54,0.052,1.0,NoMusic
1623676874.109,stimulus,1,55,0.419,1.0,NoMusic
1623676874.19,fixation,1,55,,0.0,NoMusic
1623676876.0740001,stimulus,1,56,0.384,1.0,NoMusic
1623676876.19,fixation,1,56,,0.0,NoMusic
1623676878.1820002,stimulus,1,57,0.492,1.0,NoMusic
1623676878.19,fixation,1,57,,0.0,NoMusic
1623676879.69,stimulus,1,58,,0.0,NoMusic
1623676880.206,fixation,1,58,0.016,1.0,NoMusic
1623676881.69,stimulus,1,59,,0.0,NoMusic
1623676882.2220001,fixation,1,59,0.032,1.0,NoMusic
1623676884.095,stimulus,1,60,0.405,1.0,NoMusic
1623676884.19,fixation,1,60,,0.0,NoMusic
1623676886.122,stimulus,1,61,0.432,1.0,NoMusic
1623676886.19,fixation,1,61,,0.0,NoMusic
1623676887.69,stimulus,1,62,,0.0,NoMusic
1623676888.193,fixation,1,62,0.003,1.0,NoMusic
1623676889.69,stimulus,1,63,,0.0,NoMusic
1623676890.232,fixation,1,63,0.042,1.0,NoMusic
1623676892.0800002,stimulus,1,64,0.39,1.0,NoMusic
1623676892.19,fixation,1,64,,0.0,NoMusic
1623676894.022,stimulus,1,65,0.332,1.0,NoMusic
1623676894.19,fixation,1,65,,0.0,NoMusic
1623676896.1130002,stimulus,1,66,0.423,1.0,NoMusic
1623676896.19,fixation,1,66,,0.0,NoMusic
1623676897.69,stimulus,1,67,,0.0,NoMusic
1623676898.28,fixation,1,67,0.09,1.0,NoMusic
1623676899.996,stimulus,1,68,0.306,1.0,NoMusic
1623676900.19,fixation,1,68,,0.0,NoMusic
1623676901.9680002,stimulus,1,69,0.278,1.0,NoMusic
1623676902.19,fixation,1,69,,0.0,NoMusic
1623676904.158,stimulus,1,70,0.468,1.0,NoMusic
1623676904.19,fixation,1,70,,0.0,NoMusic
1623676906.1230001,stimulus,1,71,0.433,0.0,NoMusic
1623676906.19,fixation,1,71,,0.0,NoMusic
1623676907.69,stimulus,1,72,,0.0,NoMusic
1623676908.615,fixation,1,72,0.425,1.0,NoMusic
1623676909.69,stimulus,1,73,,0.0,NoMusic
1623676910.341,fixation,1,73,0.151,0.0,NoMusic
1623676911.69,stimulus,1,74,,0.0,NoMusic
1623676912.229,fixation,1,74,0.039,1.0,NoMusic
1623676913.69,stimulus,1,75,,0.0,NoMusic
1623676914.39,fixation,1,75,0.2,1.0,NoMusic
1623676915.69,stimulus,1,76,,0.0,NoMusic
1623676916.4720001,fixation,1,76,0.282,0.0,NoMusic
1623676917.69,stimulus,1,77,,0.0,NoMusic
1623676918.3860002,fixation,1,77,0.196,0.0,NoMusic
1623676919.69,stimulus,1,78,,0.0,NoMusic
1623676920.497,fixation,1,78,0.307,1.0,NoMusic
1623676921.69,stimulus,1,79,,0.0,NoMusic
1623676922.458,fixation,1,79,0.268,1.0,NoMusic
1623676923.69,stimulus,1,80,,0.0,NoMusic
1623676924.196,fixation,1,80,0.006,1.0,NoMusic
1623676926.184,stimulus,1,81,0.494,1.0,NoMusic
1623676926.19,fixation,1,81,,0.0,NoMusic
1623676927.69,stimulus,1,82,,0.0,NoMusic
1623676928.264,fixation,1,82,0.074,1.0,NoMusic
1623676929.69,stimulus,1,83,,0.0,NoMusic
1623676930.279,fixation,1,83,0.089,1.0,NoMusic
1623676931.69,stimulus,1,84,,0.0,NoMusic
1623676932.437,fixation,1,84,0.247,1.0,NoMusic
1623676933.69,stimulus,1,85,,0.0,NoMusic
1623676934.387,fixation,1,85,0.197,1.0,NoMusic
1623676935.69,stimulus,1,86,,0.0,NoMusic
1623676936.2350001,fixation,1,86,0.045,1.0,NoMusic
1623676938.119,stimulus,1,87,0.429,0.0,NoMusic
1623676938.19,fixation,1,87,,0.0,NoMusic
1623676940.128,stimulus,1,88,0.438,1.0,NoMusic
1623676940.19,fixation,1,88,,0.0,NoMusic
1623676941.69,stimulus,1,89,,0.0,NoMusic
1623676942.6590002,fixation,1,89,0.469,1.0,NoMusic
1623676944.108,stimulus,1,90,0.418,1.0,NoMusic
1623676944.19,fixation,1,90,,0.0,NoMusic
1623676945.9450002,stimulus,1,91,0.255,1.0,NoMusic
1623676946.19,fixation,1,91,,0.0,NoMusic
1623676947.69,stimulus,1,92,,0.0,NoMusic
1623676948.2510002,fixation,1,92,0.061,1.0,NoMusic
1623676949.69,stimulus,1,93,,0.0,NoMusic
1623676950.368,fixation,1,93,0.178,0.0,NoMusic
1623676951.69,stimulus,1,94,,0.0,NoMusic
1623676952.31,fixation,1,94,0.12,1.0,NoMusic
1623676954.145,stimulus,1,95,0.455,1.0,NoMusic
1623676954.19,fixation,1,95,,0.0,NoMusic
1623676956.14,stimulus,1,96,0.45,1.0,NoMusic
1623676956.19,fixation,1,96,,0.0,NoMusic
1623676957.69,stimulus,1,97,,0.0,NoMusic
1623676958.2250001,fixation,1,97,0.035,1.0,NoMusic
1623676960.1030002,stimulus,1,98,0.413,1.0,NoMusic
1623676960.19,fixation,1,98,,0.0,NoMusic
1623676961.69,stimulus,1,99,,0.0,NoMusic
1623676962.19,fixation,1,99,,0.0,NoMusic
1623676964.15,stimulus,1,100,0.46,1.0,NoMusic
1623676964.19,fixation,1,100,,0.0,NoMusic
1623676965.69,stimulus,1,101,,0.0,NoMusic
1623676966.287,fixation,1,101,0.097,1.0,NoMusic
1623676967.69,stimulus,1,102,,0.0,NoMusic
1623676968.5540001,fixation,1,102,0.364,1.0,NoMusic
1623676970.0900002,stimulus,1,103,0.4,1.0,NoMusic
1623676970.19,fixation,1,103,,0.0,NoMusic
1623676971.69,stimulus,1,104,,0.0,NoMusic
1623676972.278,fixation,1,104,0.088,1.0,NoMusic
1623676974.086,stimulus,1,105,0.396,1.0,NoMusic
1623676974.19,fixation,1,105,,0.0,NoMusic
1623676975.69,stimulus,1,106,,0.0,NoMusic
1623676976.3070002,fixation,1,106,0.117,0.0,NoMusic
1623676977.69,stimulus,1,107,,0.0,NoMusic
1623676978.213,fixation,1,107,0.023,0.0,NoMusic
1623676979.69,stimulus,1,108,,0.0,NoMusic
1623676980.3530002,fixation,1,108,0.163,1.0,NoMusic
1623676981.69,stimulus,1,109,,0.0,NoMusic
1623676982.389,fixation,1,109,0.199,1.0,NoMusic
1623676983.69,stimulus,1,110,,0.0,NoMusic
1623676984.308,fixation,1,110,0.118,1.0,NoMusic
1623676985.69,stimulus,1,111,,0.0,NoMusic
1623676986.678,fixation,1,111,0.488,1.0,NoMusic
1623676987.69,stimulus,1,112,,0.0,NoMusic
1623676988.2410002,fixation,1,112,0.051,1.0,NoMusic
1623676990.157,stimulus,1,113,0.467,1.0,NoMusic
1623676990.19,fixation,1,113,,0.0,NoMusic
1623676992.176,stimulus,1,114,0.486,1.0,NoMusic
1623676992.19,fixation,1,114,,0.0,NoMusic
1623676994.061,stimulus,1,115,0.371,1.0,NoMusic
1623676994.19,fixation,1,115,,0.0,NoMusic
1623676996.0870001,stimulus,1,116,0.397,1.0,NoMusic
1623676996.19,fixation,1,116,,0.0,NoMusic
1623676998.081,stimulus,1,117,0.391,1.0,NoMusic
1623676998.19,fixation,1,117,,0.0,NoMusic
1623676999.69,stimulus,1,118,,0.0,NoMusic
1623677000.19,fixation,1,118,,0.0,NoMusic
1623677001.69,stimulus,1,119,,0.0,NoMusic
1623677002.237,fixation,1,119,0.047,1.0,NoMusic
1623677003.69,stimulus,1,120,,0.0,NoMusic
1623677004.19,fixation,1,120,,0.0,NoMusic
1623677005.69,stimulus,1,121,,0.0,NoMusic
1623677006.2220001,fixation,1,121,0.032,1.0,NoMusic
1623677008.0640001,stimulus,1,122,0.374,1.0,NoMusic
1623677008.19,fixation,1,122,,0.0,NoMusic
1623677010.1690001,stimulus,1,123,0.479,1.0,NoMusic
1623677010.19,fixation,1,123,,0.0,NoMusic
1623677011.69,stimulus,1,124,,0.0,NoMusic
1623677012.2350001,fixation,1,124,0.045,1.0,NoMusic
1623677013.69,stimulus,1,125,,0.0,NoMusic
1623677014.344,fixation,1,125,0.154,1.0,NoMusic
1623677016.098,stimulus,1,126,0.408,1.0,NoMusic
1623677016.19,fixation,1,126,,0.0,NoMusic
1623677018.14,stimulus,1,127,0.45,1.0,NoMusic
1623677018.19,fixation,1,127,,0.0,NoMusic
1623677019.69,stimulus,1,128,,0.0,NoMusic
1623677020.21,fixation,1,128,0.02,1.0,NoMusic
1623677022.036,stimulus,1,129,0.346,1.0,NoMusic
1623677022.19,fixation,1,129,,0.0,NoMusic
1623677023.9850001,stimulus,1,130,0.295,0.0,NoMusic
1623677024.19,fixation,1,130,,0.0,NoMusic
1623677026.049,stimulus,1,131,0.359,1.0,NoMusic
1623677026.19,fixation,1,131,,0.0,NoMusic
1623677027.69,stimulus,1,132,,0.0,NoMusic
1623677028.2150002,fixation,1,132,0.025,1.0,NoMusic
1623677029.69,stimulus,1,133,,0.0,NoMusic
1623677030.527,fixation,1,133,0.337,1.0,NoMusic
1623677032.0180001,stimulus,1,134,0.328,1.0,NoMusic
1623677032.19,fixation,1,134,,0.0,NoMusic
1623677034.0080001,stimulus,1,135,0.318,1.0,NoMusic
1623677034.19,fixation,1,135,,0.0,NoMusic
1623677036.107,stimulus,1,136,0.417,1.0,NoMusic
1623677036.19,fixation,1,136,,0.0,NoMusic
1623677038.134,stimulus,1,137,0.444,1.0,NoMusic
1623677038.19,fixation,1,137,,0.0,NoMusic
1623677040.162,stimulus,1,138,0.472,1.0,NoMusic
1623677040.19,fixation,1,138,,0.0,NoMusic
1623677041.69,stimulus,1,139,,0.0,NoMusic
1623677042.262,fixation,1,139,0.072,1.0,NoMusic
1623677044.073,stimulus,1,140,0.383,1.0,NoMusic
1623677044.19,fixation,1,140,,0.0,NoMusic
1623677045.69,stimulus,1,141,,0.0,NoMusic
1623677046.443,fixation,1,141,0.253,1.0,NoMusic
1623677047.69,stimulus,1,142,,0.0,NoMusic
1623677048.231,fixation,1,142,0.041,1.0,NoMusic
1623677049.69,stimulus,1,143,,0.0,NoMusic
1623677050.3370001,fixation,1,143,0.147,1.0,NoMusic
1623677052.1230001,stimulus,1,144,0.433,1.0,NoMusic
1623677052.19,fixation,1,144,,0.0,NoMusic
1623677054.122,stimulus,1,145,0.432,0.0,NoMusic
1623677054.19,fixation,1,145,,0.0,NoMusic
1623677055.69,stimulus,1,146,,0.0,NoMusic
1623677056.263,fixation,1,146,0.073,0.0,NoMusic
1623677057.69,stimulus,1,147,,0.0,NoMusic
1623677058.211,fixation,1,147,0.021,0.0,NoMusic
1623677060.1100001,stimulus,1,148,0.42,0.0,NoMusic
1623677060.19,fixation,1,148,,0.0,NoMusic
1623677062.0770001,stimulus,1,149,0.387,1.0,NoMusic
1623677062.19,fixation,1,149,,0.0,NoMusic
1623677064.078,stimulus,1,150,0.388,1.0,NoMusic
1623677064.19,fixation,1,150,,0.0,NoMusic
1623677065.69,stimulus,1,151,,0.0,NoMusic
1623677066.257,fixation,1,151,0.067,0.0,NoMusic
1623677067.69,stimulus,1,152,,0.0,NoMusic
1623677068.206,fixation,1,152,0.016,1.0,NoMusic
1623677070.18,stimulus,1,153,0.49,1.0,NoMusic
1623677070.19,fixation,1,153,,0.0,NoMusic
1623677072.111,stimulus,1,154,0.421,1.0,NoMusic
1623677072.19,fixation,1,154,,0.0,NoMusic
1623677073.69,stimulus,1,155,,0.0,NoMusic
1623677074.2910001,fixation,1,155,0.101,1.0,NoMusic
1623677075.69,stimulus,1,156,,0.0,NoMusic
1623677076.24,fixation,1,156,0.05,1.0,NoMusic
1623677078.0670002,stimulus,1,157,0.377,1.0,NoMusic
1623677078.19,fixation,1,157,,0.0,NoMusic
1623677080.007,stimulus,1,158,0.317,1.0,NoMusic
1623677080.19,fixation,1,158,,0.0,NoMusic
1623677081.69,stimulus,1,159,,0.0,NoMusic
1623677082.266,fixation,1,159,0.076,1.0,NoMusic
1623677084.0970001,stimulus,1,160,0.407,1.0,NoMusic
1623677084.19,fixation,1,160,,0.0,NoMusic
1623677086.0800002,stimulus,1,161,0.39,1.0,NoMusic
1623677086.19,fixation,1,161,,0.0,NoMusic
1623677088.148,stimulus,1,162,0.458,1.0,NoMusic
1623677088.19,fixation,1,162,,0.0,NoMusic
1623677089.69,stimulus,1,163,,0.0,NoMusic
1623677090.273,fixation,1,163,0.083,0.0,NoMusic
1623677092.1490002,stimulus,1,164,0.459,1.0,NoMusic
1623677092.19,fixation,1,164,,0.0,NoMusic
1623677094.177,stimulus,1,165,0.487,1.0,NoMusic
1623677094.19,fixation,1,165,,0.0,NoMusic
1623677096.063,stimulus,1,166,0.373,1.0,NoMusic
1623677096.19,fixation,1,166,,0.0,NoMusic
1623677098.081,stimulus,1,167,0.391,1.0,NoMusic
1623677098.19,fixation,1,167,,0.0,NoMusic
1623677100.043,stimulus,1,168,0.353,1.0,NoMusic
1623677100.19,fixation,1,168,,0.0,NoMusic
1623677102.0930002,stimulus,1,169,0.403,1.0,NoMusic
1623677102.19,fixation,1,169,,0.0,NoMusic
1623677104.147,stimulus,1,170,0.457,1.0,NoMusic
1623677104.19,fixation,1,170,,0.0,NoMusic
1623677106.0740001,stimulus,1,171,0.384,1.0,NoMusic
1623677106.19,fixation,1,171,,0.0,NoMusic
1623677108.1560001,stimulus,1,172,0.466,1.0,NoMusic
1623677108.19,fixation,1,172,,0.0,NoMusic
1623677110.0210001,stimulus,1,173,0.331,1.0,NoMusic
1623677110.19,fixation,1,173,,0.0,NoMusic
1623677111.69,stimulus,1,174,,0.0,NoMusic
1623677112.253,fixation,1,174,0.063,1.0,NoMusic
1623677113.69,stimulus,1,175,,0.0,NoMusic
1623677114.331,fixation,1,175,0.141,1.0,NoMusic
1623677116.019,stimulus,1,176,0.329,1.0,NoMusic
1623677116.19,fixation,1,176,,0.0,NoMusic
1623677117.69,stimulus,1,177,,0.0,NoMusic
1623677118.388,fixation,1,177,0.198,1.0,NoMusic
1623677119.69,stimulus,1,178,,0.0,NoMusic
1623677120.2050002,fixation,1,178,0.015,1.0,NoMusic
1623677122.18,stimulus,1,179,0.49,1.0,NoMusic
1623677122.19,fixation,1,179,,0.0,NoMusic
1623677123.69,stimulus,1,180,,0.0,NoMusic
1623677124.198,fixation,1,180,0.008,1.0,NoMusic
1623677126.0770001,stimulus,1,181,0.387,1.0,NoMusic
1623677126.19,fixation,1,181,,0.0,NoMusic
1623677128.127,stimulus,1,182,0.437,1.0,NoMusic
1623677128.19,fixation,1,182,,0.0,NoMusic
1623677130.0540001,stimulus,1,183,0.364,1.0,NoMusic
1623677130.19,fixation,1,183,,0.0,NoMusic
1623677132.0770001,stimulus,1,184,0.387,1.0,NoMusic
1623677132.19,fixation,1,184,,0.0,NoMusic
1623677134.15,stimulus,1,185,0.46,1.0,NoMusic
1623677134.19,fixation,1,185,,0.0,NoMusic
1623677136.122,stimulus,1,186,0.432,1.0,NoMusic
1623677136.19,fixation,1,186,,0.0,NoMusic
1623677137.69,stimulus,1,187,,0.0,NoMusic
1623677138.19,fixation,1,187,,0.0,NoMusic
1623677140.053,stimulus,1,188,0.363,1.0,NoMusic
1623677140.19,fixation,1,188,,0.0,NoMusic
1623677142.0670002,stimulus,1,189,0.377,1.0,NoMusic
1623677142.19,fixation,1,189,,0.0,NoMusic
1623677143.69,stimulus,1,190,,0.0,NoMusic
1623677144.287,fixation,1,190,0.097,1.0,NoMusic
1623677146.098,stimulus,1,191,0.408,1.0,NoMusic
1623677146.19,fixation,1,191,,0.0,NoMusic
1623677148.0640001,stimulus,1,192,0.374,1.0,NoMusic
1623677148.19,fixation,1,192,,0.0,NoMusic
1623677149.982,stimulus,1,193,0.292,0.0,NoMusic
1623677150.19,fixation,1,193,,0.0,NoMusic
1623677152.144,stimulus,1,194,0.454,1.0,NoMusic
1623677152.19,fixation,1,194,,0.0,NoMusic
1623677153.69,stimulus,1,195,,0.0,NoMusic
1623677154.2050002,fixation,1,195,0.015,1.0,NoMusic
1623677156.0930002,stimulus,1,196,0.403,1.0,NoMusic
1623677156.19,fixation,1,196,,0.0,NoMusic
1623677158.099,stimulus,1,197,0.409,1.0,NoMusic
1623677158.19,fixation,1,197,,0.0,NoMusic
1623677159.69,stimulus,1,198,,0.0,NoMusic
1623677160.338,fixation,1,198,0.148,1.0,NoMusic
1623677161.69,stimulus,1,199,,0.0,NoMusic
1623677162.2710001,fixation,1,199,0.081,1.0,NoMusic
1623677163.959,stimulus,1,200,0.269,1.0,NoMusic
1623677164.19,fixation,1,200,,0.0,NoMusic
1623677166.0310001,stimulus,1,201,0.341,1.0,NoMusic
1623677166.19,fixation,1,201,,0.0,NoMusic
1623677168.1590002,stimulus,1,202,0.469,1.0,NoMusic
1623677168.19,fixation,1,202,,0.0,NoMusic
1623677170.062,stimulus,1,203,0.372,1.0,NoMusic
1623677170.19,fixation,1,203,,0.0,NoMusic
1623677172.014,stimulus,1,204,0.324,1.0,NoMusic
1623677172.19,fixation,1,204,,0.0,NoMusic
1623677174.0240002,stimulus,1,205,0.334,1.0,NoMusic
1623677174.19,fixation,1,205,,0.0,NoMusic
1623677175.69,stimulus,1,206,,0.0,NoMusic
1623677176.214,fixation,1,206,0.024,1.0,NoMusic
1623677178.127,stimulus,1,207,0.437,1.0,NoMusic
1623677178.19,fixation,1,207,,0.0,NoMusic
1623677179.69,stimulus,1,208,,0.0,NoMusic
1623677180.2350001,fixation,1,208,0.045,0.0,NoMusic
1623677181.69,stimulus,1,209,,0.0,NoMusic
1623677182.273,fixation,1,209,0.083,1.0,NoMusic
1623677184.174,stimulus,1,210,0.484,1.0,NoMusic
1623677184.19,fixation,1,210,,0.0,NoMusic
1623677185.69,stimulus,1,211,,0.0,NoMusic
1623677186.296,fixation,1,211,0.106,1.0,NoMusic
1623677187.69,stimulus,1,212,,0.0,NoMusic
1623677188.285,fixation,1,212,0.095,1.0,NoMusic
1623677189.69,stimulus,1,213,,0.0,NoMusic
1623677190.213,fixation,1,213,0.023,1.0,NoMusic
1623677191.69,stimulus,1,214,,0.0,NoMusic
1623677192.3960001,fixation,1,214,0.206,1.0,NoMusic
1623677193.69,stimulus,1,215,,0.0,NoMusic
1623677194.256,fixation,1,215,0.066,1.0,NoMusic
1623677195.69,stimulus,1,216,,0.0,NoMusic
1623677196.197,fixation,1,216,0.007,1.0,NoMusic
1623677198.079,stimulus,1,217,0.389,0.0,NoMusic
1623677198.19,fixation,1,217,,0.0,NoMusic
1623677199.69,stimulus,1,218,,0.0,NoMusic
1623677200.1920002,fixation,1,218,0.002,1.0,NoMusic
1623677202.1230001,stimulus,1,219,0.433,1.0,NoMusic
1623677202.19,fixation,1,219,,0.0,NoMusic
1623677204.175,stimulus,1,220,0.485,1.0,NoMusic
1623677204.19,fixation,1,220,,0.0,NoMusic
1623677205.69,stimulus,1,221,,,NoMusic
1623677206.19,fixation,1,221,,,NoMusic
1623677207.69,stimulus,1,222,,0.0,NoMusic
1623677208.351,fixation,1,222,0.161,1.0,NoMusic
1623677209.69,stimulus,1,223,,0.0,NoMusic
1623677210.219,fixation,1,223,0.029,1.0,NoMusic
1623677212.148,stimulus,1,224,0.458,1.0,NoMusic
1623677212.19,fixation,1,224,,0.0,NoMusic
1623677214.185,stimulus,1,225,0.495,1.0,NoMusic
1623677214.19,fixation,1,225,,0.0,NoMusic
1623677216.17,stimulus,1,226,0.48,1.0,NoMusic
1623677216.19,fixation,1,226,,0.0,NoMusic
1623677218.129,stimulus,1,227,0.439,1.0,NoMusic
1623677218.19,fixation,1,227,,0.0,NoMusic
1623677220.089,stimulus,1,228,0.399,1.0,NoMusic
1623677220.19,fixation,1,228,,0.0,NoMusic
1623677222.1200001,stimulus,1,229,0.43,1.0,NoMusic
1623677222.19,fixation,1,229,,0.0,NoMusic
1623677224.098,stimulus,1,230,0.408,0.0,NoMusic
1623677224.19,fixation,1,230,,0.0,NoMusic
1623677226.119,stimulus,1,231,0.429,1.0,NoMusic
1623677226.19,fixation,1,231,,0.0,NoMusic
1623677227.69,stimulus,1,232,,0.0,NoMusic
1623677228.253,fixation,1,232,0.063,0.0,NoMusic
1623677230.125,stimulus,1,233,0.435,0.0,NoMusic
1623677230.19,fixation,1,233,,0.0,NoMusic
1623677231.69,stimulus,1,234,,0.0,NoMusic
1623677232.403,fixation,1,234,0.213,0.0,NoMusic
1623677233.69,stimulus,1,235,,0.0,NoMusic
1623677234.289,fixation,1,235,0.099,0.0,NoMusic
1623677235.69,stimulus,1,236,,0.0,NoMusic
1623677236.385,fixation,1,236,0.195,1.0,NoMusic
1623677238.184,stimulus,1,237,0.494,1.0,NoMusic
1623677238.19,fixation,1,237,,0.0,NoMusic
1623677240.106,stimulus,1,238,0.416,1.0,NoMusic
1623677240.19,fixation,1,238,,0.0,NoMusic
1623677242.177,stimulus,1,239,0.487,1.0,NoMusic
1623677242.19,fixation,1,239,,0.0,NoMusic
1623677243.69,stimulus,1,240,,0.0,NoMusic
1623677244.4950001,fixation,1,240,0.305,1.0,NoMusic
1623677245.69,stimulus,1,241,,0.0,NoMusic
1623677246.526,fixation,1,241,0.336,1.0,NoMusic
1623677247.69,stimulus,1,242,,0.0,NoMusic
1623677248.404,fixation,1,242,0.214,1.0,NoMusic
1623677250.04,stimulus,1,243,0.35,1.0,NoMusic
1623677250.19,fixation,1,243,,0.0,NoMusic
1623677251.69,stimulus,1,244,,0.0,NoMusic
1623677252.448,fixation,1,244,0.258,1.0,NoMusic
1623677253.69,stimulus,1,245,,0.0,NoMusic
1623677254.211,fixation,1,245,0.021,1.0,NoMusic
1623677256.072,stimulus,1,246,0.382,1.0,NoMusic
1623677256.19,fixation,1,246,,0.0,NoMusic
1623677257.69,stimulus,1,247,,0.0,NoMusic
1623677258.203,fixation,1,247,0.013,1.0,NoMusic
1623677259.69,stimulus,1,248,,0.0,NoMusic
1623677260.302,fixation,1,248,0.112,1.0,NoMusic
1623677261.69,stimulus,1,249,,0.0,NoMusic
1623677262.3860002,fixation,1,249,0.196,1.0,NoMusic
1623677263.69,stimulus,1,250,,0.0,NoMusic
1623677264.242,fixation,1,250,0.052,1.0,NoMusic
1623677265.69,stimulus,1,251,,0.0,NoMusic
1623677266.219,fixation,1,251,0.029,1.0,NoMusic
1623677268.0800002,stimulus,1,252,0.39,1.0,NoMusic
1623677268.19,fixation,1,252,,0.0,NoMusic
1623677270.151,stimulus,1,253,0.461,1.0,NoMusic
1623677270.19,fixation,1,253,,0.0,NoMusic
1623677272.144,stimulus,1,254,0.454,1.0,NoMusic
1623677272.19,fixation,1,254,,0.0,NoMusic
1623677274.107,stimulus,1,255,0.417,1.0,NoMusic
1623677274.19,fixation,1,255,,0.0,NoMusic
1623677276.1100001,stimulus,1,256,0.42,1.0,NoMusic
1623677276.19,fixation,1,256,,0.0,NoMusic
1623677277.69,stimulus,1,257,,0.0,NoMusic
1623677278.19,fixation,1,257,,0.0,NoMusic
1623677280.164,stimulus,1,258,0.474,1.0,NoMusic
1623677280.19,fixation,1,258,,0.0,NoMusic
1623677282.071,stimulus,1,259,0.381,1.0,NoMusic
1623677282.19,fixation,1,259,,0.0,NoMusic
1623677284.0930002,stimulus,1,260,0.403,1.0,NoMusic
1623677284.19,fixation,1,260,,0.0,NoMusic
1623677285.69,stimulus,1,261,,0.0,NoMusic
1623677286.1950002,fixation,1,261,0.005,1.0,NoMusic
1623677288.161,stimulus,1,262,0.471,1.0,NoMusic
1623677288.19,fixation,1,262,,0.0,NoMusic
1623677290.147,stimulus,1,263,0.457,1.0,NoMusic
1623677290.19,fixation,1,263,,0.0,NoMusic
1623677291.69,stimulus,1,264,,0.0,NoMusic
1623677292.283,fixation,1,264,0.093,1.0,NoMusic
1623677293.69,stimulus,1,265,,0.0,NoMusic
1623677294.252,fixation,1,265,0.062,1.0,NoMusic
1623677295.69,stimulus,1,266,,0.0,NoMusic
1623677296.254,fixation,1,266,0.064,1.0,NoMusic
1623677297.69,stimulus,1,267,,0.0,NoMusic
1623677298.19,fixation,1,267,,0.0,NoMusic
1623677300.1200001,stimulus,1,268,0.43,1.0,NoMusic
1623677300.19,fixation,1,268,,0.0,NoMusic
1623677301.69,stimulus,1,269,,0.0,NoMusic
1623677302.243,fixation,1,269,0.053,1.0,NoMusic
1623677304.1460001,stimulus,1,270,0.456,1.0,NoMusic
1623677304.19,fixation,1,270,,0.0,NoMusic
1623677306.085,stimulus,1,271,0.395,1.0,NoMusic
1623677306.19,fixation,1,271,,0.0,NoMusic
1623677307.69,stimulus,1,272,,0.0,NoMusic
1623677308.203,fixation,1,272,0.013,1.0,NoMusic
1623677310.121,stimulus,1,273,0.431,1.0,NoMusic
1623677310.19,fixation,1,273,,0.0,NoMusic
1623677312.062,stimulus,1,274,0.372,1.0,NoMusic
1623677312.19,fixation,1,274,,0.0,NoMusic
1623677314.151,stimulus,1,275,0.461,1.0,NoMusic
1623677314.19,fixation,1,275,,0.0,NoMusic
1623677316.0340002,stimulus,1,276,0.344,1.0,NoMusic
1623677316.19,fixation,1,276,,0.0,NoMusic
1623677318.073,stimulus,1,277,0.383,1.0,NoMusic
1623677318.19,fixation,1,277,,0.0,NoMusic
1623677320.1690001,stimulus,1,278,0.479,1.0,NoMusic
1623677320.19,fixation,1,278,,0.0,NoMusic
1623677322.157,stimulus,1,279,0.467,1.0,NoMusic
1623677322.19,fixation,1,279,,0.0,NoMusic
1623677324.115,stimulus,1,280,0.425,1.0,NoMusic
1623677324.19,fixation,1,280,,0.0,NoMusic
1623677325.69,stimulus,1,281,,0.0,NoMusic
1623677326.3400002,fixation,1,281,0.15,1.0,NoMusic
1623677328.118,stimulus,1,282,0.428,1.0,NoMusic
1623677328.19,fixation,1,282,,0.0,NoMusic
1623677330.071,stimulus,1,283,0.381,1.0,NoMusic
1623677330.19,fixation,1,283,,0.0,NoMusic
1623677332.118,stimulus,1,284,0.428,1.0,NoMusic
1623677332.19,fixation,1,284,,0.0,NoMusic
1623677334.115,stimulus,1,285,0.425,1.0,NoMusic
1623677334.19,fixation,1,285,,0.0,NoMusic
1623677336.0970001,stimulus,1,286,0.407,1.0,NoMusic
1623677336.19,fixation,1,286,,0.0,NoMusic
1623677338.131,stimulus,1,287,0.441,1.0,NoMusic
1623677338.19,fixation,1,287,,0.0,NoMusic
1623677339.69,stimulus,1,288,,0.0,NoMusic
1623677340.242,fixation,1,288,0.052,1.0,NoMusic
1623677341.976,stimulus,1,289,0.286,1.0,NoMusic
1623677342.19,fixation,1,289,,0.0,NoMusic
1623677343.994,stimulus,1,290,0.304,1.0,NoMusic
1623677344.19,fixation,1,290,,0.0,NoMusic
1623677346.052,stimulus,1,291,0.362,1.0,NoMusic
1623677346.19,fixation,1,291,,0.0,NoMusic
1623677348.158,stimulus,1,292,0.468,1.0,NoMusic
1623677348.19,fixation,1,292,,0.0,NoMusic
1623677350.1000001,stimulus,1,293,0.41,1.0,NoMusic
1623677350.19,fixation,1,293,,0.0,NoMusic
1623677352.081,stimulus,1,294,0.391,0.0,NoMusic
1623677352.19,fixation,1,294,,0.0,NoMusic
1623677354.0700002,stimulus,1,295,0.38,1.0,NoMusic
1623677354.19,fixation,1,295,,0.0,NoMusic
1623677356.0800002,stimulus,1,296,0.39,1.0,NoMusic
1623677356.19,fixation,1,296,,0.0,NoMusic
1623677358.027,stimulus,1,297,0.337,1.0,NoMusic
1623677358.19,fixation,1,297,,0.0,NoMusic
1623677359.957,stimulus,1,298,0.267,0.0,NoMusic
1623677360.19,fixation,1,298,,0.0,NoMusic
1623677362.108,stimulus,1,299,0.418,1.0,NoMusic
1623677362.19,fixation,1,299,,0.0,NoMusic
1623677364.145,stimulus,1,300,0.455,1.0,NoMusic
1623677364.19,fixation,1,300,,0.0,NoMusic
1623677366.1430001,stimulus,1,301,0.453,1.0,NoMusic
1623677366.19,fixation,1,301,,0.0,NoMusic
1623677368.079,stimulus,1,302,0.389,1.0,NoMusic
1623677368.19,fixation,1,302,,0.0,NoMusic
1623677370.017,stimulus,1,303,0.327,1.0,NoMusic
1623677370.19,fixation,1,303,,0.0,NoMusic
1623677371.984,stimulus,1,304,0.294,1.0,NoMusic
1623677372.19,fixation,1,304,,0.0,NoMusic
1623677374.065,stimulus,1,305,0.375,1.0,NoMusic
1623677374.19,fixation,1,305,,0.0,NoMusic
1623677376.174,stimulus,1,306,0.484,1.0,NoMusic
1623677376.19,fixation,1,306,,0.0,NoMusic
1623677378.051,stimulus,1,307,0.361,1.0,NoMusic
1623677378.19,fixation,1,307,,0.0,NoMusic
1623677380.178,stimulus,1,308,0.488,1.0,NoMusic
1623677380.19,fixation,1,308,,0.0,NoMusic
1623677382.13,stimulus,1,309,0.44,1.0,NoMusic
1623677382.19,fixation,1,309,,0.0,NoMusic
1623677383.69,stimulus,1,310,,0.0,NoMusic
1623677384.305,fixation,1,310,0.115,1.0,NoMusic
1623677385.997,stimulus,1,311,0.307,1.0,NoMusic
1623677386.19,fixation,1,311,,0.0,NoMusic
1623677387.999,stimulus,1,312,0.309,1.0,NoMusic
1623677388.19,fixation,1,312,,0.0,NoMusic
1623677390.164,stimulus,1,313,0.474,0.0,NoMusic
1623677390.19,fixation,1,313,,0.0,NoMusic
1623677392.0340002,stimulus,1,314,0.344,1.0,NoMusic
1623677392.19,fixation,1,314,,0.0,NoMusic
1623677394.083,stimulus,1,315,0.393,1.0,NoMusic
1623677394.19,fixation,1,315,,0.0,NoMusic
1623677396.108,stimulus,1,316,0.418,1.0,NoMusic
1623677396.19,fixation,1,316,,0.0,NoMusic
1623677398.1430001,stimulus,1,317,0.453,1.0,NoMusic
1623677398.19,fixation,1,317,,0.0,NoMusic
1623677400.102,stimulus,1,318,0.412,1.0,NoMusic
1623677400.19,fixation,1,318,,0.0,NoMusic
1623677402.144,stimulus,1,319,0.454,0.0,NoMusic
1623677402.19,fixation,1,319,,0.0,NoMusic
1623677404.125,stimulus,1,320,0.435,1.0,NoMusic
1623677404.19,fixation,1,320,,0.0,NoMusic
1623677406.175,stimulus,1,321,0.485,1.0,NoMusic
1623677406.19,fixation,1,321,,0.0,NoMusic
1623677408.046,stimulus,1,322,0.356,1.0,NoMusic
1623677408.19,fixation,1,322,,0.0,NoMusic
1623677410.084,stimulus,1,323,0.394,1.0,NoMusic
1623677410.19,fixation,1,323,,0.0,NoMusic
1623677412.135,stimulus,1,324,0.445,1.0,NoMusic
1623677412.19,fixation,1,324,,0.0,NoMusic
1623677414.099,stimulus,1,325,0.409,1.0,NoMusic
1623677414.19,fixation,1,325,,0.0,NoMusic
1623677416.1000001,stimulus,1,326,0.41,1.0,NoMusic
1623677416.19,fixation,1,326,,0.0,NoMusic
1623677418.083,stimulus,1,327,0.393,1.0,NoMusic
1623677418.19,fixation,1,327,,0.0,NoMusic
1623677419.69,stimulus,1,328,,0.0,NoMusic
1623677420.349,fixation,1,328,0.159,1.0,NoMusic
1623677422.0870001,stimulus,1,329,0.397,1.0,NoMusic
1623677422.19,fixation,1,329,,0.0,NoMusic
1623677423.69,stimulus,1,330,,0.0,NoMusic
1623677424.1920002,fixation,1,330,0.002,1.0,NoMusic
1623677425.69,stimulus,1,331,,0.0,NoMusic
1623677426.249,fixation,1,331,0.059,1.0,NoMusic
1623677427.69,stimulus,1,332,,0.0,NoMusic
1623677428.344,fixation,1,332,0.154,1.0,NoMusic
1623677429.69,stimulus,1,333,,0.0,NoMusic
1623677430.191,fixation,1,333,0.001,1.0,NoMusic
1623677432.0340002,stimulus,1,334,0.344,1.0,NoMusic
1623677432.19,fixation,1,334,,0.0,NoMusic
1623677433.69,stimulus,1,335,,0.0,NoMusic
1623677434.213,fixation,1,335,0.023,0.0,NoMusic
1623677436.177,stimulus,1,336,0.487,1.0,NoMusic
1623677436.19,fixation,1,336,,0.0,NoMusic
1623677438.167,stimulus,1,337,0.477,1.0,NoMusic
1623677438.19,fixation,1,337,,0.0,NoMusic
1623677440.0470002,stimulus,1,338,0.357,1.0,NoMusic
1623677440.19,fixation,1,338,,0.0,NoMusic
1623677441.69,stimulus,1,339,,0.0,NoMusic
1623677442.19,fixation,1,339,,0.0,NoMusic
1623677444.168,stimulus,1,340,0.478,1.0,NoMusic
1623677444.19,fixation,1,340,,0.0,NoMusic
1623677446.122,stimulus,1,341,0.432,1.0,NoMusic
1623677446.19,fixation,1,341,,0.0,NoMusic
1623677448.051,stimulus,1,342,0.361,1.0,NoMusic
1623677448.19,fixation,1,342,,0.0,NoMusic
1623677449.69,stimulus,1,343,,0.0,NoMusic
1623677450.533,fixation,1,343,0.343,1.0,NoMusic
1623677451.69,stimulus,1,344,,0.0,NoMusic
1623677452.229,fixation,1,344,0.039,1.0,NoMusic
1623677454.066,stimulus,1,345,0.376,1.0,NoMusic
1623677454.19,fixation,1,345,,0.0,NoMusic
1623677455.69,stimulus,1,346,,0.0,NoMusic
1623677456.19,fixation,1,346,,0.0,NoMusic
1623677458.0310001,stimulus,1,347,0.341,1.0,NoMusic
1623677458.19,fixation,1,347,,0.0,NoMusic
1623677459.69,stimulus,1,348,,0.0,NoMusic
1623677460.232,fixation,1,348,0.042,1.0,NoMusic
1623677461.69,stimulus,1,349,,0.0,NoMusic
1623677462.214,fixation,1,349,0.024,1.0,NoMusic
1623677463.69,stimulus,1,350,,0.0,NoMusic
1623677464.6030002,fixation,1,350,0.413,1.0,NoMusic
1623677465.69,stimulus,1,351,,0.0,NoMusic
1623677466.3400002,fixation,1,351,0.15,1.0,NoMusic
1623677467.69,stimulus,1,352,,0.0,NoMusic
1623677468.24,fixation,1,352,0.05,1.0,NoMusic
1623677470.155,stimulus,1,353,0.465,1.0,NoMusic
1623677470.19,fixation,1,353,,0.0,NoMusic
1623677471.69,stimulus,1,354,,0.0,NoMusic
1623677472.473,fixation,1,354,0.283,1.0,NoMusic
1623677473.999,stimulus,1,355,0.309,1.0,NoMusic
1623677474.19,fixation,1,355,,0.0,NoMusic
1623677475.956,stimulus,1,356,0.266,1.0,NoMusic
1623677476.19,fixation,1,356,,0.0,NoMusic
1623677478.055,stimulus,1,357,0.365,1.0,NoMusic
1623677478.19,fixation,1,357,,0.0,NoMusic
1623677480.075,stimulus,1,358,0.385,1.0,NoMusic
1623677480.19,fixation,1,358,,0.0,NoMusic
1623677482.112,stimulus,1,359,0.422,1.0,NoMusic
1623677482.19,fixation,1,359,,0.0,NoMusic
1623677484.1360002,stimulus,1,360,0.446,1.0,NoMusic
1623677484.19,fixation,1,360,,0.0,NoMusic
1623677485.69,stimulus,1,361,,0.0,NoMusic
1623677486.1990001,fixation,1,361,0.009,1.0,NoMusic
1623677487.69,stimulus,1,362,,0.0,NoMusic
1623677488.1920002,fixation,1,362,0.002,1.0,NoMusic
1623677490.1000001,stimulus,1,363,0.41,1.0,NoMusic
1623677490.19,fixation,1,363,,0.0,NoMusic
1623677492.0930002,stimulus,1,364,0.403,0.0,NoMusic
1623677492.19,fixation,1,364,,0.0,NoMusic
1623677494.144,stimulus,1,365,0.454,1.0,NoMusic
1623677494.19,fixation,1,365,,0.0,NoMusic
1623677496.062,stimulus,1,366,0.372,1.0,NoMusic
1623677496.19,fixation,1,366,,0.0,NoMusic
1623677498.04,stimulus,1,367,0.35,1.0,NoMusic
1623677498.19,fixation,1,367,,0.0,NoMusic
1623677500.007,stimulus,1,368,0.317,1.0,NoMusic
1623677500.19,fixation,1,368,,0.0,NoMusic
1623677502.107,stimulus,1,369,0.417,0.0,NoMusic
1623677502.19,fixation,1,369,,0.0,NoMusic
1623677503.69,stimulus,1,370,,0.0,NoMusic
1623677504.293,fixation,1,370,0.103,1.0,NoMusic
1623677506.177,stimulus,1,371,0.487,1.0,NoMusic
1623677506.19,fixation,1,371,,0.0,NoMusic
1623677507.69,stimulus,1,372,,0.0,NoMusic
1623677508.308,fixation,1,372,0.118,1.0,NoMusic
1623677510.1430001,stimulus,1,373,0.453,1.0,NoMusic
1623677510.19,fixation,1,373,,0.0,NoMusic
1623677512.004,stimulus,1,374,0.314,1.0,NoMusic
1623677512.19,fixation,1,374,,0.0,NoMusic
1623677514.075,stimulus,1,375,0.385,1.0,NoMusic
1623677514.19,fixation,1,375,,0.0,NoMusic
1623677515.69,stimulus,1,376,,0.0,NoMusic
1623677516.21,fixation,1,376,0.02,1.0,NoMusic
1623677518.138,stimulus,1,377,0.448,1.0,NoMusic
1623677518.19,fixation,1,377,,0.0,NoMusic
1623677520.142,stimulus,1,378,0.452,1.0,NoMusic
1623677520.19,fixation,1,378,,0.0,NoMusic
1623677521.69,stimulus,1,379,,0.0,NoMusic
1623677522.191,fixation,1,379,0.001,1.0,NoMusic
1623677523.69,stimulus,1,380,,0.0,NoMusic
1623677524.2680001,fixation,1,380,0.078,1.0,NoMusic
1623677526.0640001,stimulus,1,381,0.374,1.0,NoMusic
1623677526.19,fixation,1,381,,0.0,NoMusic
1623677528.188,stimulus,1,382,0.498,1.0,NoMusic
1623677528.19,fixation,1,382,,0.0,NoMusic
1623677530.148,stimulus,1,383,0.458,1.0,NoMusic
1623677530.19,fixation,1,383,,0.0,NoMusic
1623677532.013,stimulus,1,384,0.323,1.0,NoMusic
1623677532.19,fixation,1,384,,0.0,NoMusic
1623677534.0410001,stimulus,1,385,0.351,1.0,NoMusic
1623677534.19,fixation,1,385,,0.0,NoMusic
1623677536.128,stimulus,1,386,0.438,1.0,NoMusic
1623677536.19,fixation,1,386,,0.0,NoMusic
1623677538.082,stimulus,1,387,0.392,1.0,NoMusic
1623677538.19,fixation,1,387,,0.0,NoMusic
1623677539.69,stimulus,1,388,,0.0,NoMusic
1623677540.282,fixation,1,388,0.092,1.0,NoMusic
1623677542.175,stimulus,1,389,0.485,0.0,NoMusic
1623677542.19,fixation,1,389,,0.0,NoMusic
1623677543.69,stimulus,1,390,,0.0,NoMusic
1623677544.1950002,fixation,1,390,0.005,1.0,NoMusic
1623677546.0930002,stimulus,1,391,0.403,1.0,NoMusic
1623677546.19,fixation,1,391,,0.0,NoMusic
1623677548.086,stimulus,1,392,0.396,1.0,NoMusic
1623677548.19,fixation,1,392,,0.0,NoMusic
1623677550.088,stimulus,1,393,0.398,1.0,NoMusic
1623677550.19,fixation,1,393,,0.0,NoMusic
1623677552.049,stimulus,1,394,0.359,1.0,NoMusic
1623677552.19,fixation,1,394,,0.0,NoMusic
1623677554.122,stimulus,1,395,0.432,1.0,NoMusic
1623677554.19,fixation,1,395,,0.0,NoMusic
1623677555.69,stimulus,1,396,,0.0,NoMusic
1623677556.201,fixation,1,396,0.011,1.0,NoMusic
1623677558.063,stimulus,1,397,0.373,1.0,NoMusic
1623677558.19,fixation,1,397,,0.0,NoMusic
1623677559.69,stimulus,1,398,,,RelaxSession
1623677560.19,fixation,1,398,,,RelaxSession
1623677561.69,stimulus,1,399,,,RelaxSession
1623677562.19,fixation,1,399,,,RelaxSession
1623677563.69,stimulus,1,400,,,RelaxSession
1623677564.19,fixation,1,400,,,RelaxSession
1623677565.69,stimulus,1,401,,,RelaxSession
1623677566.19,fixation,1,401,,,RelaxSession
1623677567.69,stimulus,1,402,,,RelaxSession
1623677568.19,fixation,1,402,,,RelaxSession
1623677569.69,stimulus,1,403,,,RelaxSession
1623677570.19,fixation,1,403,,,RelaxSession
1623677571.69,stimulus,1,404,,,RelaxSession
1623677572.19,fixation,1,404,,,RelaxSession
1623677573.69,stimulus,1,405,,,RelaxSession
1623677574.19,fixation,1,405,,,RelaxSession
1623677575.69,stimulus,1,406,,,RelaxSession
1623677576.19,fixation,1,406,,,RelaxSession
1623677577.69,stimulus,1,407,,,RelaxSession
1623677578.19,fixation,1,407,,,RelaxSession
1623677579.69,stimulus,1,408,,,RelaxSession
1623677580.19,fixation,1,408,,,RelaxSession
1623677581.69,stimulus,1,409,,,RelaxSession
1623677582.19,fixation,1,409,,,RelaxSession
1623677583.69,stimulus,1,410,,,RelaxSession
1623677584.19,fixation,1,410,,,RelaxSession
1623677585.69,stimulus,1,411,,,RelaxSession
1623677586.19,fixation,1,411,,,RelaxSession
1623677587.69,stimulus,1,412,,,RelaxSession
1623677588.19,fixation,1,412,,,RelaxSession
1623677589.69,stimulus,1,413,,,RelaxSession
1623677590.19,fixation,1,413,,,RelaxSession
1623677591.69,stimulus,1,414,,,RelaxSession
1623677592.19,fixation,1,414,,,RelaxSession
1623677593.69,stimulus,1,415,,,RelaxSession
1623677594.19,fixation,1,415,,,RelaxSession
1623677595.69,stimulus,1,416,,,RelaxSession
1623677596.19,fixation,1,416,,,RelaxSession
1623677597.69,stimulus,1,417,,,RelaxSession
1623677598.19,fixation,1,417,,,RelaxSession
1623677599.69,stimulus,1,418,,,RelaxSession
1623677600.19,fixation,1,418,,,RelaxSession
1623677601.69,stimulus,1,419,,,RelaxSession
1623677602.19,fixation,1,419,,,RelaxSession
1623677603.69,stimulus,1,420,,,RelaxSession
1623677604.19,fixation,1,420,,,RelaxSession
1623677605.69,stimulus,1,421,,,RelaxSession
1623677606.19,fixation,1,421,,,RelaxSession
1623677607.69,stimulus,1,422,,,RelaxSession
1623677608.19,fixation,1,422,,,RelaxSession
1623677609.69,stimulus,1,423,,,RelaxSession
1623677610.19,fixation,1,423,,,RelaxSession
1623677611.69,stimulus,1,424,,,RelaxSession
1623677612.19,fixation,1,424,,,RelaxSession
1623677613.69,stimulus,1,425,,,RelaxSession
1623677614.19,fixation,1,425,,,RelaxSession
1623677615.69,stimulus,1,426,,,RelaxSession
1623677616.19,fixation,1,426,,,RelaxSession
1623677617.69,stimulus,1,427,,,RelaxSession
1623677618.19,fixation,1,427,,,RelaxSession
1623677619.69,stimulus,1,428,,,RelaxSession
1623677620.19,fixation,1,428,,,RelaxSession
1623677621.69,stimulus,1,429,,,RelaxSession
1623677622.19,fixation,1,429,,,RelaxSession
1623677623.69,stimulus,1,430,,,RelaxSession
1623677624.19,fixation,1,430,,,RelaxSession
1623677625.69,stimulus,1,431,,,RelaxSession
1623677626.19,fixation,1,431,,,RelaxSession
1623677627.69,stimulus,1,432,,,RelaxSession
1623677628.19,fixation,1,432,,,RelaxSession
1623677629.69,stimulus,1,433,,,RelaxSession
1623677630.19,fixation,1,433,,,RelaxSession
1623677631.69,stimulus,1,434,,,RelaxSession
1623677632.19,fixation,1,434,,,RelaxSession
1623677633.69,stimulus,1,435,,,RelaxSession
1623677634.19,fixation,1,435,,,RelaxSession
1623677635.69,stimulus,1,436,,,RelaxSession
1623677636.19,fixation,1,436,,,RelaxSession
1623677637.69,stimulus,1,437,,,RelaxSession
1623677638.19,fixation,1,437,,,RelaxSession
1623677639.69,stimulus,1,438,,,RelaxSession
1623677640.19,fixation,1,438,,,RelaxSession
1623677641.69,stimulus,1,439,,,RelaxSession
1623677642.19,fixation,1,439,,,RelaxSession
1623677643.69,stimulus,1,440,,,RelaxSession
1623677644.19,fixation,1,440,,,RelaxSession
1623677645.69,stimulus,1,441,,,RelaxSession
1623677646.19,fixation,1,441,,,RelaxSession
1623677647.69,stimulus,1,442,,,RelaxSession
1623677648.19,fixation,1,442,,,RelaxSession
1623677649.69,stimulus,1,443,,,RelaxSession
1623677650.19,fixation,1,443,,,RelaxSession
1623677651.69,stimulus,1,444,,,RelaxSession
1623677652.19,fixation,1,444,,,RelaxSession
1623677653.69,stimulus,1,445,,,RelaxSession
1623677654.19,fixation,1,445,,,RelaxSession
1623677655.69,stimulus,1,446,,,RelaxSession
1623677656.19,fixation,1,446,,,RelaxSession
1623677657.69,stimulus,1,447,,,RelaxSession
1623677658.19,fixation,1,447,,,RelaxSession
1623677659.69,stimulus,1,448,,,RelaxSession
1623677660.19,fixation,1,448,,,RelaxSession
1623677661.69,stimulus,1,449,,,RelaxSession
1623677662.19,fixation,1,449,,,RelaxSession
1623677663.69,stimulus,1,450,,,RelaxSession
1623677664.19,fixation,1,450,,,RelaxSession
1623677665.69,stimulus,1,451,,,RelaxSession
1623677666.19,fixation,1,451,,,RelaxSession
1623677667.69,stimulus,1,452,,,RelaxSession
1623677668.19,fixation,1,452,,,RelaxSession
1623677669.69,stimulus,1,453,,,RelaxSession
1623677670.19,fixation,1,453,,,RelaxSession
1623677671.69,stimulus,1,454,,,RelaxSession
1623677672.19,fixation,1,454,,,RelaxSession
1623677673.69,stimulus,1,455,,,RelaxSession
1623677674.19,fixation,1,455,,,RelaxSession
1623677675.69,stimulus,1,456,,,RelaxSession
1623677676.19,fixation,1,456,,,RelaxSession
1623677677.69,stimulus,1,457,,,RelaxSession
1623677678.19,fixation,1,457,,,RelaxSession
1623677679.69,stimulus,1,458,,,RelaxSession
1623677680.19,fixation,1,458,,,RelaxSession
1623677681.69,stimulus,1,459,,,RelaxSession
1623677682.19,fixation,1,459,,,RelaxSession
1623677683.69,stimulus,1,460,,,RelaxSession
1623677684.19,fixation,1,460,,,RelaxSession
1623677685.69,stimulus,1,461,,,RelaxSession
1623677686.19,fixation,1,461,,,RelaxSession
1623677687.69,stimulus,1,462,,,RelaxSession
1623677688.19,fixation,1,462,,,RelaxSession
1623677689.69,stimulus,1,463,,,RelaxSession
1623677690.19,fixation,1,463,,,RelaxSession
1623677691.69,stimulus,1,464,,,RelaxSession
1623677692.19,fixation,1,464,,,RelaxSession
1623677693.69,stimulus,1,465,,,RelaxSession
1623677694.19,fixation,1,465,,,RelaxSession
1623677695.69,stimulus,1,466,,,RelaxSession
1623677696.19,fixation,1,466,,,RelaxSession
1623677697.69,stimulus,1,467,,,RelaxSession
1623677698.19,fixation,1,467,,,RelaxSession
1623677699.69,stimulus,1,468,,,RelaxSession
1623677700.19,fixation,1,468,,,RelaxSession
1623677701.69,stimulus,1,469,,,RelaxSession
1623677702.19,fixation,1,469,,,RelaxSession
1623677703.69,stimulus,1,470,,,RelaxSession
1623677704.19,fixation,1,470,,,RelaxSession
1623677705.69,stimulus,1,471,,,RelaxSession
1623677706.19,fixation,1,471,,,RelaxSession
1623677707.69,stimulus,1,472,,,RelaxSession
1623677708.19,fixation,1,472,,,RelaxSession
1623677709.69,stimulus,1,473,,,RelaxSession
1623677710.19,fixation,1,473,,,RelaxSession
1623677711.69,stimulus,1,474,,,RelaxSession
1623677712.19,fixation,1,474,,,RelaxSession
1623677713.69,stimulus,1,475,,,RelaxSession
1623677714.19,fixation,1,475,,,RelaxSession
1623677715.69,stimulus,1,476,,,RelaxSession
1623677716.19,fixation,1,476,,,RelaxSession
1623677717.69,stimulus,1,477,,,RelaxSession
1623677718.19,fixation,1,477,,,RelaxSession
1623677719.69,stimulus,1,478,,,RelaxSession
1623677720.19,fixation,1,478,,,RelaxSession
1623677721.69,stimulus,1,479,,,RelaxSession
1623677722.19,fixation,1,479,,,RelaxSession
1623677723.69,stimulus,1,480,,,RelaxSession
1623677724.19,fixation,1,480,,,RelaxSession
1623677725.69,stimulus,1,481,,,RelaxSession
1623677726.19,fixation,1,481,,,RelaxSession
1623677726.84,stimulus,2,1,,,PracticeSession
1623677727.34,fixation,2,1,,,PracticeSession
1623677727.69,stimulus,1,482,,,RelaxSession
1623677728.19,fixation,1,482,,,RelaxSession
1623677728.84,stimulus,2,2,,,PracticeSession
1623677729.34,fixation,2,2,,,PracticeSession
1623677729.69,stimulus,1,483,,,RelaxSession
1623677730.19,fixation,1,483,,,RelaxSession
1623677730.84,stimulus,2,3,,,PracticeSession
1623677731.34,fixation,2,3,,,PracticeSession
1623677731.69,stimulus,1,484,,,RelaxSession
1623677732.19,fixation,1,484,,,RelaxSession
1623677732.84,stimulus,2,4,,,PracticeSession
1623677733.34,fixation,2,4,,,PracticeSession
1623677733.69,stimulus,1,485,,,RelaxSession
1623677734.19,fixation,1,485,,,RelaxSession
1623677734.84,stimulus,2,5,,,PracticeSession
1623677735.34,fixation,2,5,,,PracticeSession
1623677735.69,stimulus,1,486,,,RelaxSession
1623677736.19,fixation,1,486,,,RelaxSession
1623677736.84,stimulus,2,6,,,PracticeSession
1623677737.34,fixation,2,6,,,PracticeSession
1623677737.69,stimulus,1,487,,,RelaxSession
1623677738.19,fixation,1,487,,,RelaxSession
1623677738.84,stimulus,2,7,,,PracticeSession
1623677739.34,fixation,2,7,,,PracticeSession
1623677739.69,stimulus,1,488,,,RelaxSession
1623677740.19,fixation,1,488,,,RelaxSession
1623677740.84,stimulus,2,8,,,PracticeSession
1623677741.34,fixation,2,8,,,PracticeSession
1623677741.69,stimulus,1,489,,,RelaxSession
1623677742.19,fixation,1,489,,,RelaxSession
1623677742.84,stimulus,2,9,,,PracticeSession
1623677743.34,fixation,2,9,,,PracticeSession
1623677743.69,stimulus,1,490,,,RelaxSession
1623677744.19,fixation,1,490,,,RelaxSession
1623677744.84,stimulus,2,10,,,PracticeSession
1623677745.34,fixation,2,10,,,PracticeSession
1623677745.69,stimulus,1,491,,,RelaxSession
1623677746.19,fixation,1,491,,,RelaxSession
1623677746.84,stimulus,2,11,,,PracticeSession
1623677747.34,fixation,2,11,,,PracticeSession
1623677747.69,stimulus,1,492,,,RelaxSession
1623677748.19,fixation,1,492,,,RelaxSession
1623677748.84,stimulus,2,12,,,PracticeSession
1623677749.34,fixation,2,12,,,PracticeSession
1623677749.69,stimulus,1,493,,,RelaxSession
1623677750.19,fixation,1,493,,,RelaxSession
1623677750.84,stimulus,2,13,,,PracticeSession
1623677751.34,fixation,2,13,,,PracticeSession
1623677751.69,stimulus,1,494,,,RelaxSession
1623677752.19,fixation,1,494,,,RelaxSession
1623677752.84,stimulus,2,14,,,PracticeSession
1623677753.34,fixation,2,14,,,PracticeSession
1623677753.69,stimulus,1,495,,,RelaxSession
1623677754.19,fixation,1,495,,,RelaxSession
1623677754.84,stimulus,2,15,,,PracticeSession
1623677755.34,fixation,2,15,,,PracticeSession
1623677755.69,stimulus,1,496,,,RelaxSession
1623677756.19,fixation,1,496,,,RelaxSession
1623677756.84,stimulus,2,16,,,PracticeSession
1623677757.34,fixation,2,16,,,PracticeSession
1623677757.69,stimulus,1,497,,,RelaxSession
1623677758.19,fixation,1,497,,,RelaxSession
1623677758.84,stimulus,2,17,,,PracticeSession
1623677759.34,fixation,2,17,,,PracticeSession
1623677759.69,stimulus,1,498,,,RelaxSession
1623677760.19,fixation,1,498,,,RelaxSession
1623677760.84,stimulus,2,18,,,PracticeSession
1623677761.34,fixation,2,18,,,PracticeSession
1623677761.69,stimulus,1,499,,,RelaxSession
1623677762.19,fixation,1,499,,,RelaxSession
1623677762.84,stimulus,2,19,,,PracticeSession
1623677763.34,fixation,2,19,,,PracticeSession
1623677763.69,stimulus,1,500,,,RelaxSession
1623677764.19,fixation,1,500,,,RelaxSession
1623677764.84,stimulus,2,20,,,PracticeSession
1623677765.34,fixation,2,20,,,PracticeSession
1623677765.69,stimulus,1,501,,,RelaxSession
1623677766.19,fixation,1,501,,,RelaxSession
1623677766.84,stimulus,2,21,,,PracticeSession
1623677767.34,fixation,2,21,,,PracticeSession
1623677767.69,stimulus,1,502,,,RelaxSession
1623677768.19,fixation,1,502,,,RelaxSession
1623677768.84,stimulus,2,22,,,PracticeSession
1623677769.34,fixation,2,22,,,PracticeSession
1623677769.69,stimulus,1,503,,,RelaxSession
1623677770.19,fixation,1,503,,,RelaxSession
1623677770.84,stimulus,2,23,,,PracticeSession
1623677771.34,fixation,2,23,,,PracticeSession
1623677771.69,stimulus,1,504,,,RelaxSession
1623677772.19,fixation,1,504,,,RelaxSession
1623677772.84,stimulus,2,24,,,PracticeSession
1623677773.34,fixation,2,24,,,PracticeSession
1623677773.69,stimulus,1,505,,,RelaxSession
1623677774.19,fixation,1,505,,,RelaxSession
1623677774.84,stimulus,2,25,,,PracticeSession
1623677775.34,fixation,2,25,,,PracticeSession
1623677775.69,stimulus,1,506,,,RelaxSession
1623677776.19,fixation,1,506,,,RelaxSession
1623677776.84,stimulus,2,26,,,PracticeSession
1623677777.34,fixation,2,26,,,PracticeSession
1623677777.69,stimulus,1,507,,,RelaxSession
1623677778.19,fixation,1,507,,,RelaxSession
1623677778.84,stimulus,2,27,,,PracticeSession
1623677779.34,fixation,2,27,,,PracticeSession
1623677779.69,stimulus,1,508,,,RelaxSession
1623677780.19,fixation,1,508,,,RelaxSession
1623677780.84,stimulus,2,28,,,PracticeSession
1623677781.34,fixation,2,28,,,PracticeSession
1623677781.69,stimulus,1,509,,,RelaxSession
1623677782.19,fixation,1,509,,,RelaxSession
1623677782.84,stimulus,2,29,,,PracticeSession
1623677783.34,fixation,2,29,,,PracticeSession
1623677783.69,stimulus,1,510,,,RelaxSession
1623677784.19,fixation,1,510,,,RelaxSession
1623677784.84,stimulus,2,30,,,PracticeSession
1623677785.34,fixation,2,30,,,PracticeSession
1623677785.69,stimulus,1,511,,,RelaxSession
1623677786.19,fixation,1,511,,,RelaxSession
1623677786.84,stimulus,2,31,,,PracticeSession
1623677787.34,fixation,2,31,,,PracticeSession
1623677787.69,stimulus,1,512,,,RelaxSession
1623677788.19,fixation,1,512,,,RelaxSession
1623677788.84,stimulus,2,32,,,PracticeSession
1623677789.34,fixation,2,32,,,PracticeSession
1623677789.69,stimulus,1,513,,,RelaxSession
1623677790.19,fixation,1,513,,,RelaxSession
1623677790.84,stimulus,2,33,,,PracticeSession
1623677791.34,fixation,2,33,,,PracticeSession
1623677791.69,stimulus,1,514,,,RelaxSession
1623677792.19,fixation,1,514,,,RelaxSession
1623677792.84,stimulus,2,34,,,PracticeSession
1623677793.34,fixation,2,34,,,PracticeSession
1623677793.69,stimulus,1,515,,,RelaxSession
1623677794.19,fixation,1,515,,,RelaxSession
1623677794.84,stimulus,2,35,,,PracticeSession
1623677795.34,fixation,2,35,,,PracticeSession
1623677795.69,stimulus,1,516,,,RelaxSession
1623677796.19,fixation,1,516,,,RelaxSession
1623677796.84,stimulus,2,36,,,PracticeSession
1623677797.34,fixation,2,36,,,PracticeSession
1623677797.69,stimulus,1,517,,,RelaxSession
1623677798.19,fixation,1,517,,,RelaxSession
1623677798.84,stimulus,2,37,,,PracticeSession
1623677799.34,fixation,2,37,,,PracticeSession
1623677799.69,stimulus,1,518,,,RelaxSession
1623677800.19,fixation,1,518,,,RelaxSession
1623677800.84,stimulus,2,38,,,PracticeSession
1623677801.34,fixation,2,38,,,PracticeSession
1623677801.69,stimulus,1,519,,,RelaxSession
1623677802.19,fixation,1,519,,,RelaxSession
1623677802.84,stimulus,2,39,,,PracticeSession
1623677803.34,fixation,2,39,,,PracticeSession
1623677803.69,stimulus,1,520,,,RelaxSession
1623677804.19,fixation,1,520,,,RelaxSession
1623677804.84,stimulus,2,40,,,PracticeSession
1623677805.34,fixation,2,40,,,PracticeSession
1623677805.69,stimulus,1,521,,,RelaxSession
1623677806.19,fixation,1,521,,,RelaxSession
1623677806.84,stimulus,2,41,,,PracticeSession
1623677807.34,fixation,2,41,,,PracticeSession
1623677807.69,stimulus,1,522,,,RelaxSession
1623677808.19,fixation,1,522,,,RelaxSession
1623677808.84,stimulus,2,42,,,PracticeSession
1623677809.34,fixation,2,42,,,PracticeSession
1623677809.69,stimulus,1,523,,,RelaxSession
1623677810.19,fixation,1,523,,,RelaxSession
1623677810.84,stimulus,2,43,,,PracticeSession
1623677811.34,fixation,2,43,,,PracticeSession
1623677811.69,stimulus,1,524,,,RelaxSession
1623677812.19,fixation,1,524,,,RelaxSession
1623677812.84,stimulus,2,44,,,PracticeSession
1623677813.34,fixation,2,44,,,PracticeSession
1623677813.69,stimulus,1,525,,,RelaxSession
1623677814.19,fixation,1,525,,,RelaxSession
1623677814.84,stimulus,2,45,,,NoMusic
1623677815.34,fixation,2,45,,,NoMusic
1623677815.69,stimulus,1,526,,,RelaxSession
1623677816.19,fixation,1,526,,,RelaxSession
1623677816.84,stimulus,2,46,,,NoMusic
1623677817.34,fixation,2,46,,,NoMusic
1623677817.69,stimulus,1,527,,,RelaxSession
1623677818.19,fixation,1,527,,,RelaxSession
1623677818.84,stimulus,2,47,,,NoMusic
1623677819.34,fixation,2,47,,,NoMusic
1623677819.69,stimulus,1,528,,,RelaxSession
1623677820.19,fixation,1,528,,,RelaxSession
1623677820.84,stimulus,2,48,,,NoMusic
1623677821.34,fixation,2,48,,,NoMusic
1623677821.69,stimulus,1,529,,,RelaxSession
1623677822.19,fixation,1,529,,,RelaxSession
1623677822.84,stimulus,2,49,,,NoMusic
1623677823.34,fixation,2,49,,,NoMusic
1623677823.69,stimulus,1,530,,,RelaxSession
1623677824.19,fixation,1,530,,,RelaxSession
1623677824.84,stimulus,2,50,,,NoMusic
1623677825.34,fixation,2,50,,,NoMusic
1623677825.69,stimulus,1,531,,,RelaxSession
1623677826.19,fixation,1,531,,,RelaxSession
1623677826.84,stimulus,2,51,,,NoMusic
1623677827.34,fixation,2,51,,,NoMusic
1623677827.69,stimulus,1,532,,,RelaxSession
1623677828.19,fixation,1,532,,,RelaxSession
1623677828.84,stimulus,2,52,,,NoMusic
1623677829.34,fixation,2,52,,,NoMusic
1623677829.69,stimulus,1,533,,,RelaxSession
1623677830.19,fixation,1,533,,,RelaxSession
1623677830.84,stimulus,2,53,,,NoMusic
1623677831.34,fixation,2,53,,,NoMusic
1623677831.69,stimulus,1,534,,,RelaxSession
1623677832.19,fixation,1,534,,,RelaxSession
1623677832.84,stimulus,2,54,,,NoMusic
1623677833.34,fixation,2,54,,,NoMusic
1623677833.69,stimulus,1,535,,,RelaxSession
1623677834.19,fixation,1,535,,,RelaxSession
1623677834.84,stimulus,2,55,,,NoMusic
1623677835.34,fixation,2,55,,,NoMusic
1623677835.69,stimulus,1,536,,,RelaxSession
1623677836.19,fixation,1,536,,,RelaxSession
1623677836.84,stimulus,2,56,,,NoMusic
1623677837.34,fixation,2,56,,,NoMusic
1623677837.69,stimulus,1,537,,,RelaxSession
1623677838.19,fixation,1,537,,,RelaxSession
1623677838.84,stimulus,2,57,,,NoMusic
1623677839.34,fixation,2,57,,,NoMusic
1623677839.69,stimulus,1,538,,,RelaxSession
1623677840.19,fixation,1,538,,,RelaxSession
1623677840.84,stimulus,2,58,,,NoMusic
1623677841.34,fixation,2,58,,,NoMusic
1623677841.69,stimulus,1,539,,,RelaxSession
1623677842.19,fixation,1,539,,,RelaxSession
1623677842.84,stimulus,2,59,,,NoMusic
1623677843.34,fixation,2,59,,,NoMusic
1623677843.69,stimulus,1,540,,,RelaxSession
1623677844.19,fixation,1,540,,,RelaxSession
1623677844.84,stimulus,2,60,,,NoMusic
1623677845.34,fixation,2,60,,,NoMusic
1623677845.69,stimulus,1,541,,,RelaxSession
1623677846.19,fixation,1,541,,,RelaxSession
1623677846.84,stimulus,2,61,,,NoMusic
1623677847.34,fixation,2,61,,,NoMusic
1623677847.69,stimulus,1,542,,,RelaxSession
1623677848.19,fixation,1,542,,,RelaxSession
1623677848.84,stimulus,2,62,,,NoMusic
1623677849.34,fixation,2,62,,,NoMusic
1623677849.69,stimulus,1,543,,,RelaxSession
1623677850.19,fixation,1,543,,,RelaxSession
1623677850.84,stimulus,2,63,,,NoMusic
1623677851.34,fixation,2,63,,,NoMusic
1623677851.69,stimulus,1,544,,,RelaxSession
1623677852.19,fixation,1,544,,,RelaxSession
1623677852.84,stimulus,2,64,,,NoMusic
1623677853.34,fixation,2,64,,,NoMusic
1623677853.69,stimulus,1,545,,,RelaxSession
1623677854.19,fixation,1,545,,,RelaxSession
1623677854.84,stimulus,2,65,,,NoMusic
1623677855.34,fixation,2,65,,,NoMusic
1623677855.69,stimulus,1,546,,,RelaxSession
1623677856.19,fixation,1,546,,,RelaxSession
1623677856.84,stimulus,2,66,,,NoMusic
1623677857.34,fixation,2,66,,,NoMusic
1623677857.69,stimulus,1,547,,,RelaxSession
1623677858.19,fixation,1,547,,,RelaxSession
1623677858.84,stimulus,2,67,,,NoMusic
1623677859.34,fixation,2,67,,,NoMusic
1623677859.69,stimulus,1,548,,,RelaxSession
1623677860.19,fixation,1,548,,,RelaxSession
1623677860.84,stimulus,2,68,,,NoMusic
1623677861.34,fixation,2,68,,,NoMusic
1623677861.69,stimulus,1,549,,,RelaxSession
1623677862.19,fixation,1,549,,,RelaxSession
1623677862.84,stimulus,2,69,,,NoMusic
1623677863.34,fixation,2,69,,,NoMusic
1623677863.69,stimulus,1,550,,,RelaxSession
1623677864.19,fixation,1,550,,,RelaxSession
1623677864.84,stimulus,2,70,,,NoMusic
1623677865.34,fixation,2,70,,,NoMusic
1623677865.69,stimulus,1,551,,,RelaxSession
1623677866.19,fixation,1,551,,,RelaxSession
1623677866.84,stimulus,2,71,,,NoMusic
1623677867.34,fixation,2,71,,,NoMusic
1623677867.69,stimulus,1,552,,,RelaxSession
1623677868.19,fixation,1,552,,,RelaxSession
1623677868.84,stimulus,2,72,,,NoMusic
1623677869.34,fixation,2,72,,,NoMusic
1623677869.69,stimulus,1,553,,,RelaxSession
1623677870.19,fixation,1,553,,,RelaxSession
1623677870.84,stimulus,2,73,,,NoMusic
1623677871.34,fixation,2,73,,,NoMusic
1623677871.69,stimulus,1,554,,,RelaxSession
1623677872.19,fixation,1,554,,,RelaxSession
1623677872.84,stimulus,2,74,,,NoMusic
1623677873.34,fixation,2,74,,,NoMusic
1623677873.69,stimulus,1,555,,,RelaxSession
1623677874.19,fixation,1,555,,,RelaxSession
1623677874.84,stimulus,2,75,,,NoMusic
1623677875.34,fixation,2,75,,,NoMusic
1623677875.69,stimulus,1,556,,,RelaxSession
1623677876.19,fixation,1,556,,,RelaxSession
1623677876.84,stimulus,2,76,,,NoMusic
1623677877.34,fixation,2,76,,,NoMusic
1623677877.69,stimulus,1,557,,,RelaxSession
1623677878.19,fixation,1,557,,,RelaxSession
1623677878.84,stimulus,2,77,,,NoMusic
1623677879.34,fixation,2,77,,,NoMusic
1623677879.69,stimulus,1,558,,,RelaxSession
1623677880.19,fixation,1,558,,,RelaxSession
1623677880.84,stimulus,2,78,,,NoMusic
1623677881.34,fixation,2,78,,,NoMusic
1623677881.69,stimulus,1,559,,,RelaxSession
1623677882.19,fixation,1,559,,,RelaxSession
1623677882.84,stimulus,2,79,,,NoMusic
1623677883.34,fixation,2,79,,,NoMusic
1623677883.69,stimulus,1,560,,,RelaxSession
1623677884.19,fixation,1,560,,,RelaxSession
1623677884.84,stimulus,2,80,,,NoMusic
1623677885.34,fixation,2,80,,,NoMusic
1623677885.69,stimulus,1,561,,,RelaxSession
1623677886.19,fixation,1,561,,,RelaxSession
1623677886.84,stimulus,2,81,,,NoMusic
1623677887.34,fixation,2,81,,,NoMusic
1623677887.69,stimulus,1,562,,,RelaxSession
1623677888.19,fixation,1,562,,,RelaxSession
1623677888.84,stimulus,2,82,,,NoMusic
1623677889.34,fixation,2,82,,,NoMusic
1623677889.69,stimulus,1,563,,,RelaxSession
1623677890.19,fixation,1,563,,,RelaxSession
1623677890.84,stimulus,2,83,,,NoMusic
1623677891.34,fixation,2,83,,,NoMusic
1623677891.69,stimulus,1,564,,,RelaxSession
1623677892.19,fixation,1,564,,,RelaxSession
1623677892.84,stimulus,2,84,,,NoMusic
1623677893.34,fixation,2,84,,,NoMusic
1623677893.69,stimulus,1,565,,,RelaxSession
1623677894.19,fixation,1,565,,,RelaxSession
1623677894.84,stimulus,2,85,,,NoMusic
1623677895.34,fixation,2,85,,,NoMusic
1623677895.69,stimulus,1,566,,,RelaxSession
1623677896.19,fixation,1,566,,,RelaxSession
1623677896.84,stimulus,2,86,,,NoMusic
1623677897.34,fixation,2,86,,,NoMusic
1623677897.69,stimulus,1,567,,,RelaxSession
1623677898.19,fixation,1,567,,,RelaxSession
1623677898.84,stimulus,2,87,,,NoMusic
1623677899.34,fixation,2,87,,,NoMusic
1623677899.69,stimulus,1,568,,,RelaxSession
1623677900.19,fixation,1,568,,,RelaxSession
1623677900.84,stimulus,2,88,,,NoMusic
1623677901.34,fixation,2,88,,,NoMusic
1623677901.69,stimulus,1,569,,,RelaxSession
1623677902.19,fixation,1,569,,,RelaxSession
1623677902.84,stimulus,2,89,,,NoMusic
1623677903.34,fixation,2,89,,,NoMusic
1623677903.69,stimulus,1,570,,,RelaxSession
1623677904.19,fixation,1,570,,,RelaxSession
1623677904.84,stimulus,2,90,,,NoMusic
1623677905.34,fixation,2,90,,,NoMusic
1623677905.69,stimulus,1,571,,,RelaxSession
1623677906.19,fixation,1,571,,,RelaxSession
1623677906.84,stimulus,2,91,,,NoMusic
1623677907.34,fixation,2,91,,,NoMusic
1623677907.69,stimulus,1,572,,,RelaxSession
1623677908.19,fixation,1,572,,,RelaxSession
1623677908.84,stimulus,2,92,,,NoMusic
1623677909.34,fixation,2,92,,,NoMusic
1623677909.69,stimulus,1,573,,,RelaxSession
1623677910.19,fixation,1,573,,,RelaxSession
1623677910.84,stimulus,2,93,,,NoMusic
1623677911.34,fixation,2,93,,,NoMusic
1623677911.69,stimulus,1,574,,,RelaxSession
1623677912.19,fixation,1,574,,,RelaxSession
1623677912.84,stimulus,2,94,,,NoMusic
1623677913.34,fixation,2,94,,,NoMusic
1623677913.69,stimulus,1,575,,,RelaxSession
1623677914.19,fixation,1,575,,,RelaxSession
1623677914.84,stimulus,2,95,,,NoMusic
1623677915.34,fixation,2,95,,,NoMusic
1623677915.69,stimulus,1,576,,,RelaxSession
1623677916.19,fixation,1,576,,,RelaxSession
1623677916.45,stimulus,3,1,,,PracticeSession
1623677916.84,stimulus,2,96,,,NoMusic
1623677916.95,fixation,3,1,,,PracticeSession
1623677917.34,fixation,2,96,,,NoMusic
1623677917.69,stimulus,1,577,,,RelaxSession
1623677918.19,fixation,1,577,,,RelaxSession
1623677918.45,stimulus,3,2,,,PracticeSession
1623677918.84,stimulus,2,97,,,NoMusic
1623677918.95,fixation,3,2,,,PracticeSession
1623677919.34,fixation,2,97,,,NoMusic
1623677919.69,stimulus,1,578,,,RelaxSession
1623677920.19,fixation,1,578,,,RelaxSession
1623677920.45,stimulus,3,3,,,PracticeSession
1623677920.84,stimulus,2,98,,,NoMusic
1623677920.95,fixation,3,3,,,PracticeSession
1623677921.34,fixation,2,98,,,NoMusic
1623677921.69,stimulus,1,579,,,RelaxSession
1623677922.19,fixation,1,579,,,RelaxSession
1623677922.45,stimulus,3,4,,,PracticeSession
1623677922.84,stimulus,2,99,,,NoMusic
1623677922.95,fixation,3,4,,,PracticeSession
1623677923.34,fixation,2,99,,,NoMusic
1623677923.69,stimulus,1,580,,,RelaxSession
1623677924.19,fixation,1,580,,,RelaxSession
1623677924.45,stimulus,3,5,,,PracticeSession
1623677924.84,stimulus,2,100,,,NoMusic
1623677924.95,fixation,3,5,,,PracticeSession
1623677925.34,fixation,2,100,,,NoMusic
1623677925.69,stimulus,1,581,,,RelaxSession
1623677926.19,fixation,1,581,,,RelaxSession
1623677926.45,stimulus,3,6,,,PracticeSession
1623677926.84,stimulus,2,101,,,NoMusic
1623677926.95,fixation,3,6,,,PracticeSession
1623677927.34,fixation,2,101,,,NoMusic
1623677927.69,stimulus,1,582,,,RelaxSession
1623677928.19,fixation,1,582,,,RelaxSession
1623677928.45,stimulus,3,7,,,PracticeSession
1623677928.84,stimulus,2,102,,,NoMusic
1623677928.95,fixation,3,7,,,PracticeSession
1623677929.34,fixation,2,102,,,NoMusic
1623677929.69,stimulus,1,583,,,RelaxSession
1623677930.19,fixation,1,583,,,RelaxSession
1623677930.45,stimulus,3,8,,,PracticeSession
1623677930.84,stimulus,2,103,,,NoMusic
1623677930.95,fixation,3,8,,,PracticeSession
1623677931.34,fixation,2,103,,,NoMusic
1623677931.69,stimulus,1,584,,,RelaxSession
1623677932.19,fixation,1,584,,,RelaxSession
1623677932.45,stimulus,3,9,,,PracticeSession
1623677932.84,stimulus,2,104,,,NoMusic
1623677932.95,fixation,3,9,,,PracticeSession
1623677933.34,fixation,2,104,,,NoMusic
1623677933.69,stimulus,1,585,,,RelaxSession
1623677934.19,fixation,1,585,,,RelaxSession
1623677934.45,stimulus,3,10,,,PracticeSession
1623677934.84,stimulus,2,105,,,NoMusic
1623677934.95,fixation,3,10,,,PracticeSession
1623677935.34,fixation,2,105,,,NoMusic
1623677935.69,stimulus,1,586,,,RelaxSession
1623677936.19,fixation,1,586,,,RelaxSession
1623677936.45,stimulus,3,11,,,PracticeSession
1623677936.84,stimulus,2,106,,,NoMusic
1623677936.95,fixation,3,11,,,PracticeSession
1623677937.34,fixation,2,106,,,NoMusic
1623677937.69,stimulus,1,587,,,RelaxSession
1623677938.19,fixation,1,587,,,RelaxSession
1623677938.45,stimulus,3,12,,,PracticeSession
1623677938.84,stimulus,2,107,,,NoMusic
1623677938.95,fixation,3,12,,,PracticeSession
1623677939.34,fixation,2,107,,,NoMusic
1623677939.69,stimulus,1,588,,,RelaxSession
1623677940.19,fixation,1,588,,,RelaxSession
1623677940.45,stimulus,3,13,,,PracticeSession
1623677940.84,stimulus,2,108,,,NoMusic
1623677940.95,fixation,3,13,,,PracticeSession
1623677941.34,fixation,2,108,,,NoMusic
1623677941.69,stimulus,1,589,,,RelaxSession
1623677942.19,fixation,1,589,,,RelaxSession
1623677942.45,stimulus,3,14,,,PracticeSession
1623677942.84,stimulus,2,109,,,NoMusic
1623677942.95,fixation,3,14,,,PracticeSession
1623677943.34,fixation,2,109,,,NoMusic
1623677943.69,stimulus,1,590,,,RelaxSession
1623677944.19,fixation,1,590,,,RelaxSession
1623677944.45,stimulus,3,15,,,PracticeSession
1623677944.84,stimulus,2,110,,,NoMusic
1623677944.95,fixation,3,15,,,PracticeSession
1623677945.34,fixation,2,110,,,NoMusic
1623677945.69,stimulus,1,591,,,RelaxSession
1623677946.19,fixation,1,591,,,RelaxSession
1623677946.45,stimulus,3,16,,,PracticeSession
1623677946.84,stimulus,2,111,,,NoMusic
1623677946.95,fixation,3,16,,,PracticeSession
1623677947.34,fixation,2,111,,,NoMusic
1623677947.69,stimulus,1,592,,,RelaxSession
1623677948.19,fixation,1,592,,,RelaxSession
1623677948.45,stimulus,3,17,,,PracticeSession
1623677948.84,stimulus,2,112,,,NoMusic
1623677948.95,fixation,3,17,,,PracticeSession
1623677949.34,fixation,2,112,,,NoMusic
1623677949.69,stimulus,1,593,,,RelaxSession
1623677950.19,fixation,1,593,,,RelaxSession
1623677950.45,stimulus,3,18,,,PracticeSession
1623677950.84,stimulus,2,113,,,NoMusic
1623677950.95,fixation,3,18,,,PracticeSession
1623677951.34,fixation,2,113,,,NoMusic
1623677951.69,stimulus,1,594,,,RelaxSession
1623677952.19,fixation,1,594,,,RelaxSession
1623677952.45,stimulus,3,19,,,PracticeSession
1623677952.84,stimulus,2,114,,,NoMusic
1623677952.95,fixation,3,19,,,PracticeSession
1623677953.34,fixation,2,114,,,NoMusic
1623677953.69,stimulus,1,595,,,RelaxSession
1623677954.19,fixation,1,595,,,RelaxSession
1623677954.45,stimulus,3,20,,,PracticeSession
1623677954.84,stimulus,2,115,,,NoMusic
1623677954.95,fixation,3,20,,,PracticeSession
1623677955.34,fixation,2,115,,,NoMusic
1623677955.69,stimulus,1,596,,,RelaxSession
1623677956.19,fixation,1,596,,,RelaxSession
1623677956.45,stimulus,3,21,,,PracticeSession
1623677956.84,stimulus,2,116,,,NoMusic
1623677956.95,fixation,3,21,,,PracticeSession
1623677957.34,fixation,2,116,,,NoMusic
1623677957.69,stimulus,1,597,,,RelaxSession
1623677958.19,fixation,1,597,,,RelaxSession
1623677958.45,stimulus,3,22,,,PracticeSession
1623677958.84,stimulus,2,117,,,NoMusic
1623677958.95,fixation,3,22,,,PracticeSession
1623677959.34,fixation,2,117,,,NoMusic
1623677959.69,stimulus,1,598,,,RelaxSession
1623677960.19,fixation,1,598,,,RelaxSession
1623677960.45,stimulus,3,23,,,PracticeSession
1623677960.84,stimulus,2,118,,,NoMusic
1623677960.95,fixation,3,23,,,PracticeSession
1623677961.34,fixation,2,118,,,NoMusic
1623677961.69,stimulus,1,599,,,RelaxSession
1623677962.19,fixation,1,599,,,RelaxSession
1623677962.45,stimulus,3,24,,,PracticeSession
1623677962.84,stimulus,2,119,,,NoMusic
1623677962.95,fixation,3,24,,,PracticeSession
1623677963.34,fixation,2,119,,,NoMusic
1623677963.69,stimulus,1,600,,,RelaxSession
1623677964.19,fixation,1,600,,,RelaxSession
1623677964.45,stimulus,3,25,,,PracticeSession
1623677964.84,stimulus,2,120,,,NoMusic
1623677964.95,fixation,3,25,,,PracticeSession
1623677965.34,fixation,2,120,,,NoMusic
1623677965.69,stimulus,1,601,,,RelaxSession
1623677966.19,fixation,1,601,,,RelaxSession
1623677966.45,stimulus,3,26,,,PracticeSession
1623677966.84,stimulus,2,121,,,NoMusic
1623677966.95,fixation,3,26,,,PracticeSession
1623677967.34,fixation,2,121,,,NoMusic
1623677967.69,stimulus,1,602,,,RelaxSession
1623677968.19,fixation,1,602,,,RelaxSession
1623677968.45,stimulus,3,27,,,PracticeSession
1623677968.84,stimulus,2,122,,,NoMusic
1623677968.95,fixation,3,27,,,PracticeSession
1623677969.34,fixation,2,122,,,NoMusic
1623677969.69,stimulus,1,603,,,RelaxSession
1623677970.19,fixation,1,603,,,RelaxSession
1623677970.45,stimulus,3,28,,,PracticeSession
1623677970.84,stimulus,2,123,,,NoMusic
1623677970.95,fixation,3,28,,,PracticeSession
1623677971.34,fixation,2,123,,,NoMusic
1623677971.69,stimulus,1,604,,,RelaxSession
1623677972.19,fixation,1,604,,,RelaxSession
1623677972.45,stimulus,3,29,,,PracticeSession
1623677972.84,stimulus,2,124,,,NoMusic
1623677972.95,fixation,3,29,,,PracticeSession
1623677973.34,fixation,2,124,,,NoMusic
1623677973.69,stimulus,1,605,,,RelaxSession
1623677974.19,fixation,1,605,,,RelaxSession
1623677974.45,stimulus,3,30,,,PracticeSession
1623677974.84,stimulus,2,125,,,NoMusic
1623677974.95,fixation,3,30,,,PracticeSession
1623677975.34,fixation,2,125,,,NoMusic
1623677975.69,stimulus,1,606,,,RelaxSession
1623677976.19,fixation,1,606,,,RelaxSession
1623677976.45,stimulus,3,31,,,PracticeSession
1623677976.84,stimulus,2,126,,,NoMusic
1623677976.95,fixation,3,31,,,PracticeSession
1623677977.34,fixation,2,126,,,NoMusic
1623677977.69,stimulus,1,607,,,RelaxSession
1623677978.19,fixation,1,607,,,RelaxSession
1623677978.45,stimulus,3,32,,,PracticeSession
1623677978.84,stimulus,2,127,,,NoMusic
1623677978.95,fixation,3,32,,,PracticeSession
1623677979.34,fixation,2,127,,,NoMusic
1623677979.69,stimulus,1,608,,,RelaxSession
1623677980.19,fixation,1,608,,,RelaxSession
1623677980.45,stimulus,3,33,,,PracticeSession
1623677980.84,stimulus,2,128,,,NoMusic
1623677980.95,fixation,3,33,,,PracticeSession
1623677981.34,fixation,2,128,,,NoMusic
1623677981.69,stimulus,1,609,,,RelaxSession
1623677982.19,fixation,1,609,,,RelaxSession
1623677982.45,stimulus,3,34,,,PracticeSession
1623677982.84,stimulus,2,129,,,NoMusic
1623677982.95,fixation,3,34,,,PracticeSession
1623677983.34,fixation,2,129,,,NoMusic
1623677983.69,stimulus,1,610,,,RelaxSession
1623677984.19,fixation,1,610,,,RelaxSession
1623677984.45,stimulus,3,35,,,PracticeSession
1623677984.84,stimulus,2,130,,,NoMusic
1623677984.95,fixation,3,35,,,PracticeSession
1623677985.34,fixation,2,130,,,NoMusic
1623677985.69,stimulus,1,611,,,RelaxSession
1623677986.19,fixation,1,611,,,RelaxSession
1623677986.45,stimulus,3,36,,,PracticeSession
1623677986.84,stimulus,2,131,,,NoMusic
1623677986.95,fixation,3,36,,,PracticeSession
1623677987.34,fixation,2,131,,,NoMusic
1623677987.69,stimulus,1,612,,,RelaxSession
1623677988.19,fixation,1,612,,,RelaxSession
1623677988.45,stimulus,3,37,,,PracticeSession
1623677988.84,stimulus,2,132,,,NoMusic
1623677988.95,fixation,3,37,,,PracticeSession
1623677989.34,fixation,2,132,,,NoMusic
1623677989.69,stimulus,1,613,,,RelaxSession
1623677990.19,fixation,1,613,,,RelaxSession
1623677990.45,stimulus,3,38,,,PracticeSession
1623677990.84,stimulus,2,133,,,NoMusic
1623677990.95,fixation,3,38,,,PracticeSession
1623677991.34,fixation,2,133,,,NoMusic
1623677991.69,stimulus,1,614,,,RelaxSession
1623677992.19,fixation,1,614,,,RelaxSession
1623677992.45,stimulus,3,39,,,PracticeSession
1623677992.84,stimulus,2,134,,,NoMusic
1623677992.95,fixation,3,39,,,PracticeSession
1623677993.34,fixation,2,134,,,NoMusic
1623677993.69,stimulus,1,615,,,RelaxSession
1623677994.19,fixation,1,615,,,RelaxSession
1623677994.45,stimulus,3,40,,,PracticeSession
1623677994.84,stimulus,2,135,,,NoMusic
1623677994.95,fixation,3,40,,,PracticeSession
1623677995.34,fixation,2,135,,,NoMusic
1623677995.69,stimulus,1,616,,,RelaxSession
1623677996.19,fixation,1,616,,,RelaxSession
1623677996.45,stimulus,3,41,,,PracticeSession
1623677996.84,stimulus,2,136,,,NoMusic
1623677996.95,fixation,3,41,,,PracticeSession
1623677997.34,fixation,2,136,,,NoMusic
1623677997.69,stimulus,1,617,,,RelaxSession
1623677998.19,fixation,1,617,,,RelaxSession
1623677998.45,stimulus,3,42,,,PracticeSession
1623677998.84,stimulus,2,137,,,NoMusic
1623677998.95,fixation,3,42,,,PracticeSession
1623677999.34,fixation,2,137,,,NoMusic
1623677999.69,stimulus,1,618,,,RelaxSession
1623678000.19,fixation,1,618,,,RelaxSession
1623678000.45,stimulus,3,43,,,PracticeSession
1623678000.84,stimulus,2,138,,,NoMusic
1623678000.95,fixation,3,43,,,PracticeSession
1623678001.34,fixation,2,138,,,NoMusic
1623678001.69,stimulus,1,619,,,RelaxSession
1623678002.19,fixation,1,619,,,RelaxSession
1623678002.45,stimulus,3,44,,,PracticeSession
1623678002.84,stimulus,2,139,,,NoMusic
1623678002.95,fixation,3,44,,,PracticeSession
1623678003.34,fixation,2,139,,,NoMusic
1623678003.69,stimulus,1,620,,,RelaxSession
1623678004.19,fixation,1,620,,,RelaxSession
1623678004.45,stimulus,3,45,,,NoMusic
1623678004.84,stimulus,2,140,,,NoMusic
1623678004.95,fixation,3,45,,,NoMusic
1623678005.34,fixation,2,140,,,NoMusic
1623678005.69,stimulus,1,621,,,RelaxSession
1623678006.19,fixation,1,621,,,RelaxSession
1623678006.45,stimulus,3,46,,,NoMusic
1623678006.84,stimulus,2,141,,,NoMusic
1623678006.95,fixation,3,46,,,NoMusic
1623678007.34,fixation,2,141,,,NoMusic
1623678007.69,stimulus,1,622,,,RelaxSession
1623678008.19,fixation,1,622,,,RelaxSession
1623678008.45,stimulus,3,47,,,NoMusic
1623678008.84,stimulus,2,142,,,NoMusic
1623678008.95,fixation,3,47,,,NoMusic
1623678009.34,fixation,2,142,,,NoMusic
1623678009.69,stimulus,1,623,,,RelaxSession
1623678010.19,fixation,1,623,,,RelaxSession
1623678010.45,stimulus,3,48,,,NoMusic
1623678010.84,stimulus,2,143,,,NoMusic
1623678010.95,fixation,3,48,,,NoMusic
1623678011.34,fixation,2,143,,,NoMusic
1623678011.69,stimulus,1,624,,,RelaxSession
1623678012.19,fixation,1,624,,,RelaxSession
1623678012.45,stimulus,3,49,,,NoMusic
1623678012.84,stimulus,2,144,,,NoMusic
1623678012.95,fixation,3,49,,,NoMusic
1623678013.34,fixation,2,144,,,NoMusic
1623678013.69,stimulus,1,625,,,RelaxSession
1623678014.19,fixation,1,625,,,RelaxSession
1623678014.45,stimulus,3,50,,,NoMusic
1623678014.84,stimulus,2,145,,,NoMusic
1623678014.95,fixation,3,50,,,NoMusic
1623678015.34,fixation,2,145,,,NoMusic
1623678015.69,stimulus,1,626,,,RelaxSession
1623678016.19,fixation,1,626,,,RelaxSession
1623678016.45,stimulus,3,51,,,NoMusic
1623678016.84,stimulus,2,146,,,NoMusic
1623678016.95,fixation,3,51,,,NoMusic
1623678017.34,fixation,2,146,,,NoMusic
1623678017.69,stimulus,1,627,,,RelaxSession
1623678018.19,fixation,1,627,,,RelaxSession
1623678018.45,stimulus,3,52,,,NoMusic
1623678018.84,stimulus,2,147,,,NoMusic
1623678018.95,fixation,3,52,,,NoMusic
1623678019.34,fixation,2,147,,,NoMusic
1623678019.69,stimulus,1,628,,,RelaxSession
1623678020.19,fixation,1,628,,,RelaxSession
1623678020.45,stimulus,3,53,,,NoMusic
1623678020.84,stimulus,2,148,,,NoMusic
1623678020.95,fixation,3,53,,,NoMusic
1623678021.34,fixation,2,148,,,NoMusic
1623678021.69,stimulus,1,629,,,RelaxSession
1623678022.19,fixation,1,629,,,RelaxSession
1623678022.45,stimulus,3,54,,,NoMusic
1623678022.84,stimulus,2,149,,,NoMusic
1623678022.95,fixation,3,54,,,NoMusic
1623678023.34,fixation,2,149,,,NoMusic
1623678023.69,stimulus,1,630,,,RelaxSession
1623678024.19,fixation,1,630,,,RelaxSession
1623678024.45,stimulus,3,55,,,NoMusic
1623678024.84,stimulus,2,150,,,NoMusic
1623678024.95,fixation,3,55,,,NoMusic
1623678025.34,fixation,2,150,,,NoMusic
1623678025.69,stimulus,1,631,,,RelaxSession
1623678026.19,fixation,1,631,,,RelaxSession
1623678026.45,stimulus,3,56,,,NoMusic
1623678026.84,stimulus,2,151,,,NoMusic
1623678026.95,fixation,3,56,,,NoMusic
1623678027.34,fixation,2,151,,,NoMusic
1623678027.69,stimulus,1,632,,,RelaxSession
1623678028.19,fixation,1,632,,,RelaxSession
1623678028.45,stimulus,3,57,,,NoMusic
1623678028.84,stimulus,2,152,,,NoMusic
1623678028.95,fixation,3,57,,,NoMusic
1623678029.34,fixation,2,152,,,NoMusic
1623678029.69,stimulus,1,633,,,RelaxSession
1623678030.19,fixation,1,633,,,RelaxSession
1623678030.45,stimulus,3,58,,,NoMusic
1623678030.84,stimulus,2,153,,,NoMusic
1623678030.95,fixation,3,58,,,NoMusic
1623678031.34,fixation,2,153,,,NoMusic
1623678031.69,stimulus,1,634,,,RelaxSession
1623678032.19,fixation,1,634,,,RelaxSession
1623678032.45,stimulus,3,59,,,NoMusic
1623678032.84,stimulus,2,154,,,NoMusic
1623678032.95,fixation,3,59,,,NoMusic
1623678033.34,fixation,2,154,,,NoMusic
1623678033.69,stimulus,1,635,,,RelaxSession
1623678034.19,fixation,1,635,,,RelaxSession
1623678034.45,stimulus,3,60,,,NoMusic
1623678034.84,stimulus,2,155,,,NoMusic
1623678034.95,fixation,3,60,,,NoMusic
1623678035.34,fixation,2,155,,,NoMusic
1623678035.69,stimulus,1,636,,,RelaxSession
1623678036.19,fixation,1,636,,,RelaxSession
1623678036.45,stimulus,3,61,,,NoMusic
1623678036.84,stimulus,2,156,,,NoMusic
1623678036.95,fixation,3,61,,,NoMusic
1623678037.34,fixation,2,156,,,NoMusic
1623678037.69,stimulus,1,637,,,RelaxSession
1623678038.19,fixation,1,637,,,RelaxSession
1623678038.45,stimulus,3,62,,,NoMusic
1623678038.84,stimulus,2,157,,,NoMusic
1623678038.95,fixation,3,62,,,NoMusic
1623678039.34,fixation,2,157,,,NoMusic
1623678039.69,stimulus,1,638,,,RelaxSession
1623678040.19,fixation,1,638,,,RelaxSession
1623678040.45,stimulus,3,63,,,NoMusic
1623678040.84,stimulus,2,158,,,NoMusic
1623678040.95,fixation,3,63,,,NoMusic
1623678041.34,fixation,2,158,,,NoMusic
1623678041.69,stimulus,1,639,,,RelaxSession
1623678042.19,fixation,1,639,,,RelaxSession
1623678042.45,stimulus,3,64,,,NoMusic
1623678042.84,stimulus,2,159,,,NoMusic
1623678042.95,fixation,3,64,,,NoMusic
1623678043.34,fixation,2,159,,,NoMusic
1623678043.69,stimulus,1,640,,,RelaxSession
1623678044.19,fixation,1,640,,,RelaxSession
1623678044.45,stimulus,3,65,,,NoMusic
1623678044.84,stimulus,2,160,,,NoMusic
1623678044.95,fixation,3,65,,,NoMusic
1623678045.34,fixation,2,160,,,NoMusic
1623678045.69,stimulus,1,641,,,RelaxSession
1623678046.19,fixation,1,641,,,RelaxSession
1623678046.45,stimulus,3,66,,,NoMusic
1623678046.84,stimulus,2,161,,,NoMusic
1623678046.95,fixation,3,66,,,NoMusic
1623678047.34,fixation,2,161,,,NoMusic
1623678047.69,stimulus,1,642,,,RelaxSession
1623678048.19,fixation,1,642,,,RelaxSession
1623678048.45,stimulus,3,67,,,NoMusic
1623678048.84,stimulus,2,162,,,NoMusic
1623678048.95,fixation,3,67,,,NoMusic
1623678049.34,fixation,2,162,,,NoMusic
1623678049.69,stimulus,1,643,,,RelaxSession
1623678050.19,fixation,1,643,,,RelaxSession
1623678050.45,stimulus,3,68,,,NoMusic
1623678050.84,stimulus,2,163,,,NoMusic
1623678050.95,fixation,3,68,,,NoMusic
1623678051.34,fixation,2,163,,,NoMusic
1623678051.69,stimulus,1,644,,,RelaxSession
1623678052.19,fixation,1,644,,,RelaxSession
1623678052.45,stimulus,3,69,,,NoMusic
1623678052.84,stimulus,2,164,,,NoMusic
1623678052.95,fixation,3,69,,,NoMusic
1623678053.34,fixation,2,164,,,NoMusic
1623678053.69,stimulus,1,645,,,RelaxSession
1623678054.19,fixation,1,645,,,RelaxSession
1623678054.45,stimulus,3,70,,,NoMusic
1623678054.84,stimulus,2,165,,,NoMusic
1623678054.95,fixation,3,70,,,NoMusic
1623678055.34,fixation,2,165,,,NoMusic
1623678055.69,stimulus,1,646,,,RelaxSession
1623678056.19,fixation,1,646,,,RelaxSession
1623678056.45,stimulus,3,71,,,NoMusic
1623678056.84,stimulus,2,166,,,NoMusic
1623678056.95,fixation,3,71,,,NoMusic
1623678057.34,fixation,2,166,,,NoMusic
1623678057.69,stimulus,1,647,,,RelaxSession
1623678058.19,fixation,1,647,,,RelaxSession
1623678058.45,stimulus,3,72,,,NoMusic
1623678058.84,stimulus,2,167,,,NoMusic
1623678058.95,fixation,3,72,,,NoMusic
1623678059.34,fixation,2,167,,,NoMusic
1623678059.69,stimulus,1,648,,,RelaxSession
1623678060.19,fixation,1,648,,,RelaxSession
1623678060.45,stimulus,3,73,,,NoMusic
1623678060.84,stimulus,2,168,,,NoMusic
1623678060.95,fixation,3,73,,,NoMusic
1623678061.34,fixation,2,168,,,NoMusic
1623678061.69,stimulus,1,649,,,RelaxSession
1623678062.19,fixation,1,649,,,RelaxSession
1623678062.45,stimulus,3,74,,,NoMusic
1623678062.84,stimulus,2,169,,,NoMusic
1623678062.95,fixation,3,74,,,NoMusic
1623678063.34,fixation,2,169,,,NoMusic
1623678063.69,stimulus,1,650,,,RelaxSession
1623678064.19,fixation,1,650,,,RelaxSession
1623678064.45,stimulus,3,75,,,NoMusic
1623678064.84,stimulus,2,170,,,NoMusic
1623678064.95,fixation,3,75,,,NoMusic
1623678065.34,fixation,2,170,,,NoMusic
1623678065.69,stimulus,1,651,,,RelaxSession
1623678066.19,fixation,1,651,,,RelaxSession
1623678066.45,stimulus,3,76,,,NoMusic
1623678066.84,stimulus,2,171,,,NoMusic
1623678066.95,fixation,3,76,,,NoMusic
1623678067.34,fixation,2,171,,,NoMusic
1623678067.69,stimulus,1,652,,,RelaxSession
1623678068.19,fixation,1,652,,,RelaxSession
1623678068.45,stimulus,3,77,,,NoMusic
1623678068.84,stimulus,2,172,,,NoMusic
1623678068.95,fixation,3,77,,,NoMusic
1623678069.34,fixation,2,172,,,NoMusic
1623678069.69,stimulus,1,653,,,RelaxSession
1623678070.19,fixation,1,653,,,RelaxSession
1623678070.45,stimulus,3,78,,,NoMusic
1623678070.84,stimulus,2,173,,,NoMusic
1623678070.95,fixation,3,78,,,NoMusic
1623678071.34,fixation,2,173,,,NoMusic
1623678071.69,stimulus,1,654,,,RelaxSession
1623678072.19,fixation,1,654,,,RelaxSession
1623678072.45,stimulus,3,79,,,NoMusic
1623678072.84,stimulus,2,174,,,NoMusic
1623678072.95,fixation,3,79,,,NoMusic
1623678073.34,fixation,2,174,,,NoMusic
1623678073.69,stimulus,1,655,,,RelaxSession
1623678074.19,fixation,1,655,,,RelaxSession
1623678074.45,stimulus,3,80,,,NoMusic
1623678074.84,stimulus,2,175,,,NoMusic
1623678074.95,fixation,3,80,,,NoMusic
1623678075.34,fixation,2,175,,,NoMusic
1623678075.69,stimulus,1,656,,,RelaxSession
1623678076.19,fixation,1,656,,,RelaxSession
1623678076.45,stimulus,3,81,,,NoMusic
1623678076.84,stimulus,2,176,,,NoMusic
1623678076.95,fixation,3,81,,,NoMusic
1623678077.34,fixation,2,176,,,NoMusic
1623678077.69,stimulus,1,657,,,RelaxSession
1623678078.19,fixation,1,657,,,RelaxSession
1623678078.45,stimulus,3,82,,,NoMusic
1623678078.84,stimulus,2,177,,,NoMusic
1623678078.95,fixation,3,82,,,NoMusic
1623678079.34,fixation,2,177,,,NoMusic
1623678079.69,stimulus,1,658,,,RelaxSession
1623678080.19,fixation,1,658,,,RelaxSession
1623678080.45,stimulus,3,83,,,NoMusic
1623678080.84,stimulus,2,178,,,NoMusic
1623678080.95,fixation,3,83,,,NoMusic
1623678081.34,fixation,2,178,,,NoMusic
1623678081.69,stimulus,1,659,,,RelaxSession
1623678082.19,fixation,1,659,,,RelaxSession
1623678082.45,stimulus,3,84,,,NoMusic
1623678082.84,stimulus,2,179,,,NoMusic
1623678082.95,fixation,3,84,,,NoMusic
1623678083.34,fixation,2,179,,,NoMusic
1623678083.69,stimulus,1,660,,,RelaxSession
1623678084.19,fixation,1,660,,,RelaxSession
1623678084.45,stimulus,3,85,,,NoMusic
1623678084.84,stimulus,2,180,,,NoMusic
1623678084.95,fixation,3,85,,,NoMusic
1623678085.34,fixation,2,180,,,NoMusic
1623678085.69,stimulus,1,661,,,RelaxSession
1623678086.19,fixation,1,661,,,RelaxSession
1623678086.45,stimulus,3,86,,,NoMusic
1623678086.84,stimulus,2,181,,,NoMusic
1623678086.95,fixation,3,86,,,NoMusic
1623678087.34,fixation,2,181,,,NoMusic
1623678087.69,stimulus,1,662,,,RelaxSession
1623678088.19,fixation,1,662,,,RelaxSession
1623678088.45,stimulus,3,87,,,NoMusic
1623678088.84,stimulus,2,182,,,NoMusic
1623678088.95,fixation,3,87,,,NoMusic
1623678089.34,fixation,2,182,,,NoMusic
1623678089.69,stimulus,1,663,,,RelaxSession
1623678090.19,fixation,1,663,,,RelaxSession
1623678090.45,stimulus,3,88,,,NoMusic
1623678090.84,stimulus,2,183,,,NoMusic
1623678090.95,fixation,3,88,,,NoMusic
1623678091.34,fixation,2,183,,,NoMusic
1623678091.69,stimulus,1,664,,,RelaxSession
1623678092.19,fixation,1,664,,,RelaxSession
1623678092.45,stimulus,3,89,,,NoMusic
1623678092.84,stimulus,2,184,,,NoMusic
1623678092.95,fixation,3,89,,,NoMusic
1623678093.34,fixation,2,184,,,NoMusic
1623678093.69,stimulus,1,665,,,RelaxSession
1623678094.19,fixation,1,665,,,RelaxSession
1623678094.45,stimulus,3,90,,,NoMusic
1623678094.84,stimulus,2,185,,,NoMusic
1623678094.95,fixation,3,90,,,NoMusic
1623678095.34,fixation,2,185,,,NoMusic
1623678095.69,stimulus,1,666,,,RelaxSession
1623678096.19,fixation,1,666,,,RelaxSession
1623678096.45,stimulus,3,91,,,NoMusic
1623678096.84,stimulus,2,186,,,NoMusic
1623678096.95,fixation,3,91,,,NoMusic
1623678097.34,fixation,2,186,,,NoMusic
1623678097.69,stimulus,1,667,,,RelaxSession
1623678098.19,fixation,1,667,,,RelaxSession
1623678098.45,stimulus,3,92,,,NoMusic
1623678098.84,stimulus,2,187,,,NoMusic
1623678098.95,fixation,3,92,,,NoMusic
1623678099.34,fixation,2,187,,,NoMusic
1623678099.69,stimulus,1,668,,,RelaxSession
1623678100.19,fixation,1,668,,,RelaxSession
1623678100.45,stimulus,3,93,,,NoMusic
1623678100.84,stimulus,2,188,,,NoMusic
1623678100.95,fixation,3,93,,,NoMusic
1623678101.34,fixation,2,188,,,NoMusic
1623678101.69,stimulus,1,669,,,RelaxSession
1623678102.19,fixation,1,669,,,RelaxSession
1623678102.45,stimulus,3,94,,,NoMusic
1623678102.84,stimulus,2,189,,,NoMusic
1623678102.95,fixation,3,94,,,NoMusic
1623678103.34,fixation,2,189,,,NoMusic
1623678103.69,stimulus,1,670,,,RelaxSession
1623678104.19,fixation,1,670,,,RelaxSession
1623678104.45,stimulus,3,95,,,NoMusic
1623678104.84,stimulus,2,190,,,NoMusic
1623678104.95,fixation,3,95,,,NoMusic
1623678105.34,fixation,2,190,,,NoMusic
1623678105.69,stimulus,1,671,,,RelaxSession
1623678106.19,fixation,1,671,,,RelaxSession
1623678106.45,stimulus,3,96,,,NoMusic
1623678106.84,stimulus,2,191,,,NoMusic
1623678106.95,fixation,3,96,,,NoMusic
1623678107.34,fixation,2,191,,,NoMusic
1623678107.69,stimulus,1,672,,,RelaxSession
1623678108.19,fixation,1,672,,,RelaxSession
1623678108.45,stimulus,3,97,,,NoMusic
1623678108.84,stimulus,2,192,,,NoMusic
1623678108.95,fixation,3,97,,,NoMusic
1623678109.34,fixation,2,192,,,NoMusic
1623678109.69,stimulus,1,673,,,RelaxSession
1623678110.19,fixation,1,673,,,RelaxSession
1623678110.45,stimulus,3,98,,,NoMusic
1623678110.84,stimulus,2,193,,,NoMusic
1623678110.95,fixation,3,98,,,NoMusic
1623678111.34,fixation,2,193,,,NoMusic
1623678111.69,stimulus,1,674,,,RelaxSession
1623678112.19,fixation,1,674,,,RelaxSession
1623678112.45,stimulus,3,99,,,NoMusic
1623678112.84,stimulus,2,194,,,NoMusic
1623678112.95,fixation,3,99,,,NoMusic
1623678113.34,fixation,2,194,,,NoMusic
1623678113.69,stimulus,1,675,,,RelaxSession
1623678114.19,fixation,1,675,,,RelaxSession
1623678114.45,stimulus,3,100,,,NoMusic
1623678114.84,stimulus,2,195,,,NoMusic
1623678114.95,fixation,3,100,,,NoMusic
1623678115.34,fixation,2,195,,,NoMusic
1623678115.69,stimulus,1,676,,,RelaxSession
1623678116.19,fixation,1,676,,,RelaxSession
1623678116.45,stimulus,3,101,,,NoMusic
1623678116.84,stimulus,2,196,,,NoMusic
1623678116.95,fixation,3,101,,,NoMusic
1623678117.34,fixation,2,196,,,NoMusic
1623678117.69,stimulus,1,677,,,RelaxSession
1623678118.19,fixation,1,677,,,RelaxSession
1623678118.45,stimulus,3,102,,,NoMusic
1623678118.84,stimulus,2,197,,,NoMusic
1623678118.95,fixation,3,102,,,NoMusic
1623678119.34,fixation,2,197,,,NoMusic
1623678119.69,stimulus,1,678,,,RelaxSession
1623678120.19,fixation,1,678,,,RelaxSession
1623678120.45,stimulus,3,103,,,NoMusic
1623678120.84,stimulus,2,198,,,NoMusic
1623678120.95,fixation,3,103,,,NoMusic
1623678121.34,fixation,2,198,,,NoMusic
1623678121.69,stimulus,1,679,,,RelaxSession
1623678122.19,fixation,1,679,,,RelaxSession
1623678122.45,stimulus,3,104,,,NoMusic
1623678122.84,stimulus,2,199,,,NoMusic
1623678122.95,fixation,3,104,,,NoMusic
1623678123.34,fixation,2,199,,,NoMusic
1623678123.69,stimulus,1,680,,,RelaxSession
1623678124.19,fixation,1,680,,,RelaxSession
1623678124.45,stimulus,3,105,,,NoMusic
1623678124.84,stimulus,2,200,,,NoMusic
1623678124.95,fixation,3,105,,,NoMusic
1623678125.34,fixation,2,200,,,NoMusic
1623678125.69,stimulus,1,681,,,RelaxSession
1623678126.19,fixation,1,681,,,RelaxSession
1623678126.45,stimulus,3,106,,,NoMusic
1623678126.84,stimulus,2,201,,,NoMusic
1623678126.95,fixation,3,106,,,NoMusic
1623678127.34,fixation,2,201,,,NoMusic
1623678127.69,stimulus,1,682,,,RelaxSession
1623678128.19,fixation,1,682,,,RelaxSession
1623678128.45,stimulus,3,107,,,NoMusic
1623678128.84,stimulus,2,202,,,NoMusic
1623678128.95,fixation,3,107,,,NoMusic
1623678129.34,fixation,2,202,,,NoMusic
1623678129.69,stimulus,1,683,,,RelaxSession
1623678130.19,fixation,1,683,,,RelaxSession
1623678130.45,stimulus,3,108,,,NoMusic
1623678130.84,stimulus,2,203,,,NoMusic
1623678130.95,fixation,3,108,,,NoMusic
1623678131.34,fixation,2,203,,,NoMusic
1623678131.69,stimulus,1,684,,,RelaxSession
1623678132.19,fixation,1,684,,,RelaxSession
1623678132.45,stimulus,3,109,,,NoMusic
1623678132.84,stimulus,2,204,,,NoMusic
1623678132.95,fixation,3,109,,,NoMusic
1623678133.34,fixation,2,204,,,NoMusic
1623678133.69,stimulus,1,685,,,RelaxSession
1623678134.19,fixation,1,685,,,RelaxSession
1623678134.45,stimulus,3,110,,,NoMusic
1623678134.84,stimulus,2,205,,,NoMusic
1623678134.95,fixation,3,110,,,NoMusic
1623678135.34,fixation,2,205,,,NoMusic
1623678135.69,stimulus,1,686,,,RelaxSession
1623678136.19,fixation,1,686,,,RelaxSession
1623678136.45,stimulus,3,111,,,NoMusic
1623678136.84,stimulus,2,206,,,NoMusic
1623678136.95,fixation,3,111,,,NoMusic
1623678137.34,fixation,2,206,,,NoMusic
1623678137.69,stimulus,1,687,,,RelaxSession
1623678138.19,fixation,1,687,,,RelaxSession
1623678138.45,stimulus,3,112,,,NoMusic
1623678138.84,stimulus,2,207,,,NoMusic
1623678138.95,fixation,3,112,,,NoMusic
1623678139.34,fixation,2,207,,,NoMusic
1623678139.69,stimulus,1,688,,,RelaxSession
1623678140.19,fixation,1,688,,,RelaxSession
1623678140.45,stimulus,3,113,,,NoMusic
1623678140.84,stimulus,2,208,,,NoMusic
1623678140.95,fixation,3,113,,,NoMusic
1623678141.34,fixation,2,208,,,NoMusic
1623678141.69,stimulus,1,689,,,RelaxSession
1623678142.19,fixation,1,689,,,RelaxSession
1623678142.45,stimulus,3,114,,,NoMusic
1623678142.84,stimulus,2,209,,,NoMusic
1623678142.95,fixation,3,114,,,NoMusic
1623678143.34,fixation,2,209,,,NoMusic
1623678143.69,stimulus,1,690,,,RelaxSession
1623678144.19,fixation,1,690,,,RelaxSession
1623678144.45,stimulus,3,115,,,NoMusic
1623678144.84,stimulus,2,210,,,NoMusic
1623678144.95,fixation,3,115,,,NoMusic
1623678145.34,fixation,2,210,,,NoMusic
1623678145.69,stimulus,1,691,,,RelaxSession
1623678146.19,fixation,1,691,,,RelaxSession
1623678146.45,stimulus,3,116,,,NoMusic
1623678146.84,stimulus,2,211,,,NoMusic
1623678146.95,fixation,3,116,,,NoMusic
1623678147.34,fixation,2,211,,,NoMusic
1623678147.69,stimulus,1,692,,,RelaxSession
1623678148.19,fixation,1,692,,,RelaxSession
1623678148.45,stimulus,3,117,,,NoMusic
1623678148.84,stimulus,2,212,,,NoMusic
1623678148.95,fixation,3,117,,,NoMusic
1623678149.34,fixation,2,212,,,NoMusic
1623678149.69,stimulus,1,693,,,RelaxSession
1623678150.19,fixation,1,693,,,RelaxSession
1623678150.45,stimulus,3,118,,,NoMusic
1623678150.84,stimulus,2,213,,,NoMusic
1623678150.95,fixation,3,118,,,NoMusic
1623678151.34,fixation,2,213,,,NoMusic
1623678151.69,stimulus,1,694,,,RelaxSession
1623678152.19,fixation,1,694,,,RelaxSession
1623678152.45,stimulus,3,119,,,NoMusic
1623678152.84,stimulus,2,214,,,NoMusic
1623678152.95,fixation,3,119,,,NoMusic
1623678153.34,fixation,2,214,,,NoMusic
1623678153.69,stimulus,1,695,,,RelaxSession
1623678154.19,fixation,1,695,,,RelaxSession
1623678154.45,stimulus,3,120,,,NoMusic
1623678154.84,stimulus,2,215,,,NoMusic
1623678154.95,fixation,3,120,,,NoMusic
1623678155.34,fixation,2,215,,,NoMusic
1623678155.69,stimulus,1,696,,,RelaxSession
1623678156.19,fixation,1,696,,,RelaxSession
1623678156.45,stimulus,3,121,,,NoMusic
1623678156.84,stimulus,2,216,,,NoMusic
1623678156.95,fixation,3,121,,,NoMusic
1623678157.34,fixation,2,216,,,NoMusic
1623678157.69,stimulus,1,697,,,RelaxSession
1623678158.19,fixation,1,697,,,RelaxSession
1623678158.45,stimulus,3,122,,,NoMusic
1623678158.84,stimulus,2,217,,,NoMusic
1623678158.95,fixation,3,122,,,NoMusic
1623678159.34,fixation,2,217,,,NoMusic
1623678159.69,stimulus,1,698,,,RelaxSession
1623678160.19,fixation,1,698,,,RelaxSession
1623678160.45,stimulus,3,123,,,NoMusic
1623678160.84,stimulus,2,218,,,NoMusic
1623678160.95,fixation,3,123,,,NoMusic
1623678161.34,fixation,2,218,,,NoMusic
1623678161.69,stimulus,1,699,,,RelaxSession
1623678162.19,fixation,1,699,,,RelaxSession
1623678162.45,stimulus,3,124,,,NoMusic
1623678162.84,stimulus,2,219,,,NoMusic
1623678162.95,fixation,3,124,,,NoMusic
1623678163.34,fixation,2,219,,,NoMusic
1623678163.69,stimulus,1,700,,,RelaxSession
1623678164.19,fixation,1,700,,,RelaxSession
1623678164.45,stimulus,3,125,,,NoMusic
1623678164.84,stimulus,2,220,,,NoMusic
1623678164.95,fixation,3,125,,,NoMusic
1623678165.34,fixation,2,220,,,NoMusic
1623678165.69,stimulus,1,701,,,RelaxSession
1623678166.19,fixation,1,701,,,RelaxSession
1623678166.45,stimulus,3,126,,,NoMusic
1623678166.84,stimulus,2,221,,,NoMusic
1623678166.95,fixation,3,126,,,NoMusic
1623678167.34,fixation,2,221,,,NoMusic
1623678167.69,stimulus,1,702,,,RelaxSession
1623678168.19,fixation,1,702,,,RelaxSession
1623678168.45,stimulus,3,127,,,NoMusic
1623678168.84,stimulus,2,222,,,NoMusic
1623678168.95,fixation,3,127,,,NoMusic
1623678169.34,fixation,2,222,,,NoMusic
1623678169.69,stimulus,1,703,,,RelaxSession
1623678170.19,fixation,1,703,,,RelaxSession
1623678170.45,stimulus,3,128,,,NoMusic
1623678170.84,stimulus,2,223,,,NoMusic
1623678170.95,fixation,3,128,,,NoMusic
1623678171.34,fixation,2,223,,,NoMusic
1623678171.69,stimulus,1,704,,,RelaxSession
1623678172.19,fixation,1,704,,,RelaxSession
1623678172.45,stimulus,3,129,,,NoMusic
1623678172.84,stimulus,2,224,,,NoMusic
1623678172.95,fixation,3,129,,,NoMusic
1623678173.34,fixation,2,224,,,NoMusic
1623678173.69,stimulus,1,705,,,RelaxSession
1623678174.19,fixation,1,705,,,RelaxSession
1623678174.45,stimulus,3,130,,,NoMusic
1623678174.84,stimulus,2,225,,,NoMusic
1623678174.95,fixation,3,130,,,NoMusic
1623678175.34,fixation,2,225,,,NoMusic
1623678175.69,stimulus,1,706,,,RelaxSession
1623678176.19,fixation,1,706,,,RelaxSession
1623678176.45,stimulus,3,131,,,NoMusic
1623678176.84,stimulus,2,226,,,NoMusic
1623678176.95,fixation,3,131,,,NoMusic
1623678177.34,fixation,2,226,,,NoMusic
1623678177.69,stimulus,1,707,,,RelaxSession
1623678178.19,fixation,1,707,,,RelaxSession
1623678178.45,stimulus,3,132,,,NoMusic
1623678178.84,stimulus,2,227,,,NoMusic
1623678178.95,fixation,3,132,,,NoMusic
1623678179.34,fixation,2,227,,,NoMusic
1623678179.69,stimulus,1,708,,,RelaxSession
1623678180.19,fixation,1,708,,,RelaxSession
1623678180.45,stimulus,3,133,,,NoMusic
1623678180.84,stimulus,2,228,,,NoMusic
1623678180.95,fixation,3,133,,,NoMusic
1623678181.34,fixation,2,228,,,NoMusic
1623678181.69,stimulus,1,709,,,RelaxSession
1623678182.19,fixation,1,709,,,RelaxSession
1623678182.45,stimulus,3,134,,,NoMusic
1623678182.84,stimulus,2,229,,,NoMusic
1623678182.95,fixation,3,134,,,NoMusic
1623678183.34,fixation,2,229,,,NoMusic
1623678183.69,stimulus,1,710,,,RelaxSession
1623678184.19,fixation,1,710,,,RelaxSession
1623678184.45,stimulus,3,135,,,NoMusic
1623678184.84,stimulus,2,230,,,NoMusic
1623678184.95,fixation,3,135,,,NoMusic
1623678185.34,fixation,2,230,,,NoMusic
1623678185.69,stimulus,1,711,,,RelaxSession
1623678186.19,fixation,1,711,,,RelaxSession
1623678186.45,stimulus,3,136,,,NoMusic
1623678186.84,stimulus,2,231,,,NoMusic
1623678186.95,fixation,3,136,,,NoMusic
1623678187.34,fixation,2,231,,,NoMusic
1623678187.69,stimulus,1,712,,,RelaxSession
1623678188.19,fixation,1,712,,,RelaxSession
1623678188.45,stimulus,3,137,,,NoMusic
1623678188.84,stimulus,2,232,,,NoMusic
1623678188.95,fixation,3,137,,,NoMusic
1623678189.34,fixation,2,232,,,NoMusic
1623678189.69,stimulus,1,713,,,RelaxSession
1623678190.19,fixation,1,713,,,RelaxSession
1623678190.45,stimulus,3,138,,,NoMusic
1623678190.84,stimulus,2,233,,,NoMusic
1623678190.95,fixation,3,138,,,NoMusic
1623678191.34,fixation,2,233,,,NoMusic
1623678191.69,stimulus,1,714,,,RelaxSession
1623678192.19,fixation,1,714,,,RelaxSession
1623678192.45,stimulus,3,139,,,NoMusic
1623678192.84,stimulus,2,234,,,NoMusic
1623678192.95,fixation,3,139,,,NoMusic
1623678193.34,fixation,2,234,,,NoMusic
1623678193.69,stimulus,1,715,,,RelaxSession
1623678194.19,fixation,1,715,,,RelaxSession
1623678194.45,stimulus,3,140,,,NoMusic
1623678194.84,stimulus,2,235,,,NoMusic
1623678194.95,fixation,3,140,,,NoMusic
1623678195.34,fixation,2,235,,,NoMusic
1623678195.69,stimulus,1,716,,,RelaxSession
1623678196.19,fixation,1,716,,,RelaxSession
1623678196.45,stimulus,3,141,,,NoMusic
1623678196.84,stimulus,2,236,,,NoMusic
1623678196.95,fixation,3,141,,,NoMusic
1623678197.34,fixation,2,236,,,NoMusic
1623678197.69,stimulus,1,717,,,RelaxSession
1623678198.19,fixation,1,717,,,RelaxSession
1623678198.45,stimulus,3,142,,,NoMusic
1623678198.84,stimulus,2,237,,,NoMusic
1623678198.95,fixation,3,142,,,NoMusic
1623678199.34,fixation,2,237,,,NoMusic
1623678199.69,stimulus,1,718,,,RelaxSession
1623678200.19,fixation,1,718,,,RelaxSession
1623678200.45,stimulus,3,143,,,NoMusic
1623678200.84,stimulus,2,238,,,NoMusic
1623678200.95,fixation,3,143,,,NoMusic
1623678201.34,fixation,2,238,,,NoMusic
1623678201.69,stimulus,1,719,,,RelaxSession
1623678202.19,fixation,1,719,,,RelaxSession
1623678202.45,stimulus,3,144,,,NoMusic
1623678202.84,stimulus,2,239,,,NoMusic
1623678202.95,fixation,3,144,,,NoMusic
1623678203.34,fixation,2,239,,,NoMusic
1623678203.69,stimulus,1,720,,,RelaxSession
1623678204.19,fixation,1,720,,,RelaxSession
1623678204.45,stimulus,3,145,,,NoMusic
1623678204.84,stimulus,2,240,,,NoMusic
1623678204.95,fixation,3,145,,,NoMusic
1623678205.34,fixation,2,240,,,NoMusic
1623678205.69,stimulus,1,721,,,RelaxSession
1623678206.19,fixation,1,721,,,RelaxSession
1623678206.45,stimulus,3,146,,,NoMusic
1623678206.84,stimulus,2,241,,,NoMusic
1623678206.95,fixation,3,146,,,NoMusic
1623678207.34,fixation,2,241,,,NoMusic
1623678207.69,stimulus,1,722,,,RelaxSession
1623678208.19,fixation,1,722,,,RelaxSession
1623678208.45,stimulus,3,147,,,NoMusic
1623678208.84,stimulus,2,242,,,NoMusic
1623678208.95,fixation,3,147,,,NoMusic
1623678209.34,fixation,2,242,,,NoMusic
1623678209.69,stimulus,1,723,,,RelaxSession
1623678210.19,fixation,1,723,,,RelaxSession
1623678210.45,stimulus,3,148,,,NoMusic
1623678210.84,stimulus,2,243,,,NoMusic
1623678210.95,fixation,3,148,,,NoMusic
1623678211.34,fixation,2,243,,,NoMusic
1623678211.69,stimulus,1,724,,,RelaxSession
1623678212.19,fixation,1,724,,,RelaxSession
1623678212.45,stimulus,3,149,,,NoMusic
1623678212.84,stimulus,2,244,,,NoMusic
1623678212.95,fixation,3,149,,,NoMusic
1623678213.34,fixation,2,244,,,NoMusic
1623678213.69,stimulus,1,725,,,RelaxSession
1623678214.19,fixation,1,725,,,RelaxSession
1623678214.45,stimulus,3,150,,,NoMusic
1623678214.84,stimulus,2,245,,,NoMusic
1623678214.95,fixation,3,150,,,NoMusic
1623678215.34,fixation,2,245,,,NoMusic
1623678215.69,stimulus,1,726,,,RelaxSession
1623678216.19,fixation,1,726,,,RelaxSession
1623678216.45,stimulus,3,151,,,NoMusic
1623678216.84,stimulus,2,246,,,NoMusic
1623678216.95,fixation,3,151,,,NoMusic
1623678217.34,fixation,2,246,,,NoMusic
1623678217.69,stimulus,1,727,,,RelaxSession
1623678218.19,fixation,1,727,,,RelaxSession
1623678218.45,stimulus,3,152,,,NoMusic
1623678218.84,stimulus,2,247,,,NoMusic
1623678218.95,fixation,3,152,,,NoMusic
1623678219.34,fixation,2,247,,,NoMusic
1623678219.69,stimulus,1,728,,,RelaxSession
1623678220.19,fixation,1,728,,,RelaxSession
1623678220.45,stimulus,3,153,,,NoMusic
1623678220.84,stimulus,2,248,,,NoMusic
1623678220.95,fixation,3,153,,,NoMusic
1623678221.34,fixation,2,248,,,NoMusic
1623678221.69,stimulus,1,729,,,RelaxSession
1623678222.19,fixation,1,729,,,RelaxSession
1623678222.45,stimulus,3,154,,,NoMusic
1623678222.84,stimulus,2,249,,,NoMusic
1623678222.95,fixation,3,154,,,NoMusic
1623678223.34,fixation,2,249,,,NoMusic
1623678223.69,stimulus,1,730,,,RelaxSession
1623678224.19,fixation,1,730,,,RelaxSession
1623678224.45,stimulus,3,155,,,NoMusic
1623678224.84,stimulus,2,250,,,NoMusic
1623678224.95,fixation,3,155,,,NoMusic
1623678225.34,fixation,2,250,,,NoMusic
1623678225.69,stimulus,1,731,,,RelaxSession
1623678226.19,fixation,1,731,,,RelaxSession
1623678226.45,stimulus,3,156,,,NoMusic
1623678226.84,stimulus,2,251,,,NoMusic
1623678226.95,fixation,3,156,,,NoMusic
1623678227.34,fixation,2,251,,,NoMusic
1623678227.69,stimulus,1,732,,,RelaxSession
1623678228.19,fixation,1,732,,,RelaxSession
1623678228.45,stimulus,3,157,,,NoMusic
1623678228.84,stimulus,2,252,,,NoMusic
1623678228.95,fixation,3,157,,,NoMusic
1623678229.34,fixation,2,252,,,NoMusic
1623678229.69,stimulus,1,733,,,RelaxSession
1623678230.19,fixation,1,733,,,RelaxSession
1623678230.45,stimulus,3,158,,,NoMusic
1623678230.84,stimulus,2,253,,,NoMusic
1623678230.95,fixation,3,158,,,NoMusic
1623678231.34,fixation,2,253,,,NoMusic
1623678231.69,stimulus,1,734,,,RelaxSession
1623678232.19,fixation,1,734,,,RelaxSession
1623678232.45,stimulus,3,159,,,NoMusic
1623678232.84,stimulus,2,254,,,NoMusic
1623678232.95,fixation,3,159,,,NoMusic
1623678233.34,fixation,2,254,,,NoMusic
1623678233.69,stimulus,1,735,,,RelaxSession
1623678234.19,fixation,1,735,,,RelaxSession
1623678234.45,stimulus,3,160,,,NoMusic
1623678234.84,stimulus,2,255,,,NoMusic
1623678234.95,fixation,3,160,,,NoMusic
1623678235.34,fixation,2,255,,,NoMusic
1623678235.69,stimulus,1,736,,,RelaxSession
1623678236.19,fixation,1,736,,,RelaxSession
1623678236.45,stimulus,3,161,,,NoMusic
1623678236.84,stimulus,2,256,,,NoMusic
1623678236.95,fixation,3,161,,,NoMusic
1623678237.34,fixation,2,256,,,NoMusic
1623678237.69,stimulus,1,737,,,RelaxSession
1623678238.19,fixation,1,737,,,RelaxSession
1623678238.45,stimulus,3,162,,,NoMusic
1623678238.84,stimulus,2,257,,,NoMusic
1623678238.95,fixation,3,162,,,NoMusic
1623678239.34,fixation,2,257,,,NoMusic
1623678239.69,stimulus,1,738,,,RelaxSession
1623678240.19,fixation,1,738,,,RelaxSession
1623678240.45,stimulus,3,163,,,NoMusic
1623678240.84,stimulus,2,258,,,NoMusic
1623678240.95,fixation,3,163,,,NoMusic
1623678241.34,fixation,2,258,,,NoMusic
1623678241.69,stimulus,1,739,,,RelaxSession
1623678242.19,fixation,1,739,,,RelaxSession
1623678242.45,stimulus,3,164,,,NoMusic
