event_time_s,trial_type,session_idx,trial_idx,RT_s,ACC,session_type
1624704697.67,stimulus,1,1,,,PracticeSession
1624704698.17,fixation,1,1,,,PracticeSession
1624704699.67,stimulus,1,2,,,PracticeSession
1624704700.17,fixation,1,2,,,PracticeSession
1624704701.67,stimulus,1,3,,,PracticeSession
1624704702.17,fixation,1,3,,,PracticeSession
1624704703.67,stimulus,1,4,,,PracticeSession
1624704704.17,fixation,1,4,,,PracticeSession
1624704705.67,stimulus,1,5,,,PracticeSession
1624704706.17,fixation,1,5,,,PracticeSession
1624704707.67,stimulus,1,6,,,PracticeSession
1624704708.17,fixation,1,6,,,PracticeSession
1624704709.67,stimulus,1,7,,,PracticeSession
1624704710.17,fixation,1,7,,,PracticeSession
1624704711.67,stimulus,1,8,,,PracticeSession
1624704712.17,fixation,1,8,,,PracticeSession
1624704713.67,stimulus,1,9,,,PracticeSession
1624704714.17,fixation,1,9,,,PracticeSession
1624704715.67,stimulus,1,10,,,PracticeSession
1624704716.17,fixation,1,10,,,PracticeSession
1624704717.67,stimulus,1,11,,,PracticeSession
1624704718.17,fixation,1,11,,,PracticeSession
1624704719.67,stimulus,1,12,,,PracticeSession
1624704720.17,fixation,1,12,,,PracticeSession
1624704721.67,stimulus,1,13,,,PracticeSession
1624704722.17,fixation,1,13,,,PracticeSession
1624704723.67,stimulus,1,14,,,PracticeSession
1624704724.17,fixation,1,14,,,PracticeSession
1624704725.67,stimulus,1,15,,,PracticeSession
1624704726.17,fixation,1,15,,,PracticeSession
1624704727.67,stimulus,1,16,,,PracticeSession
1624704728.17,fixation,1,16,,,PracticeSession
1624704729.67,stimulus,1,17,,,PracticeSession
1624704730.17,fixation,1,17,,,PracticeSession
1624704731.67,stimulus,1,18,,,PracticeSession
1624704732.17,fixation,1,18,,,PracticeSession
1624704733.67,stimulus,1,19,,,PracticeSession
1624704734.17,fixation,1,19,,,PracticeSession
1624704735.67,stimulus,1,20,,,PracticeSession
1624704736.17,fixation,1,20,,,PracticeSession
1624704737.67,stimulus,1,21,,,PracticeSession
1624704738.17,fixation,1,21,,,PracticeSession
1624704739.67,stimulus,1,22,,,PracticeSession
1624704740.17,fixation,1,22,,,PracticeSession
1624704741.67,stimulus,1,23,,,PracticeSession
1624704742.17,fixation,1,23,,,PracticeSession
1624704743.67,stimulus,1,24,,,PracticeSession
1624704744.17,fixation,1,24,,,PracticeSession
1624704745.67,stimulus,1,25,,,PracticeSession
1624704746.17,fixation,1,25,,,PracticeSession
1624704747.67,stimulus,1,26,,,PracticeSession
1624704748.17,fixation,1,26,,,PracticeSession
1624704749.67,stimulus,1,27,,,PracticeSession
1624704750.17,fixation,1,27,,,PracticeSession
1624704751.67,stimulus,1,28,,,PracticeSession
1624704752.17,fixation,1,28,,,PracticeSession
1624704753.67,stimulus,1,29,,,PracticeSession
1624704754.17,fixation,1,29,,,PracticeSession
1624704755.67,stimulus,1,30,,,PracticeSession
1624704756.17,fixation,1,30,,,PracticeSession
1624704757.67,stimulus,1,31,,,PracticeSession
1624704758.17,fixation,1,31,,,PracticeSession
1624704759.67,stimulus,1,32,,,PracticeSession
1624704760.17,fixation,1,32,,,PracticeSession
1624704761.67,stimulus,1,33,,,PracticeSession
1624704762.17,fixation,1,33,,,PracticeSession
1624704763.67,stimulus,1,34,,,PracticeSession
1624704764.17,fixation,1,34,,,PracticeSession
1624704765.67,stimulus,1,35,,,PracticeSession
1624704766.17,fixation,1,35,,,PracticeSession
1624704767.67,stimulus,1,36,,,PracticeSession
1624704768.17,fixation,1,36,,,PracticeSession
1624704769.67,stimulus,1,37,,,PracticeSession
1624704770.17,fixation,1,37,,,PracticeSession
1624704771.67,stimulus,1,38,,,PracticeSession
1624704772.17,fixation,1,38,,,PracticeSession
1624704773.67,stimulus,1,39,,,PracticeSession
1624704774.17,fixation,1,39,,,PracticeSession
1624704775.67,stimulus,1,40,,,PracticeSession
1624704776.17,fixation,1,40,,,PracticeSession
1624704777.67,stimulus,1,41,,,PracticeSession
1624704778.17,fixation,1,41,,,PracticeSession
1624704779.67,stimulus,1,42,,,PracticeSession
1624704780.17,fixation,1,42,,,PracticeSession
1624704781.67,stimulus,1,43,,,PracticeSession
1624704782.17,fixation,1,43,,,PracticeSession
1624704783.67,stimulus,1,44,,,PracticeSession
1624704784.17,fixation,1,44,,,PracticeSession
1624704785.67,stimulus,1,45,,0.0,NoMusic
1624704786.334,fixation,1,45,0.164,1.0,NoMusic
1624704787.67,stimulus,1,46,,0.0,NoMusic
1624704788.67,fixation,1,46,0.5,1.0,NoMusic
1624704790.151,stimulus,1,47,0.481,1.0,NoMusic
1624704790.17,fixation,1,47,,0.0,NoMusic
1624704791.67,stimulus,1,48,,0.0,NoMusic
1624704792.269,fixation,1,48,0.099,1.0,NoMusic
1624704793.67,stimulus,1,49,,0.0,NoMusic
1624704794.207,fixation,1,49,0.037,1.0,NoMusic
1624704796.148,stimulus,1,50,0.478,1.0,NoMusic
1624704796.17,fixation,1,50,,0.0,NoMusic
1624704797.67,stimulus,1,51,,0.0,NoMusic
1624704798.852,fixation,1,51,0.682,0.0,NoMusic
1624704799.67,stimulus,1,52,,0.0,NoMusic
1624704800.3930001,fixation,1,52,0.223,1.0,NoMusic
1624704802.0540001,stimulus,1,53,0.384,1.0,NoMusic
1624704802.17,fixation,1,53,,0.0,NoMusic
1624704804.088,stimulus,1,54,0.418,1.0,NoMusic
1624704804.17,fixation,1,54,,0.0,NoMusic
1624704806.099,stimulus,1,55,0.429,1.0,NoMusic
1624704806.17,fixation,1,55,,0.0,NoMusic
1624704808.049,stimulus,1,56,0.379,1.0,NoMusic
1624704808.17,fixation,1,56,,0.0,NoMusic
1624704809.67,stimulus,1,57,,0.0,NoMusic
1624704810.299,fixation,1,57,0.129,1.0,NoMusic
1624704811.67,stimulus,1,58,,0.0,NoMusic
1624704812.2710001,fixation,1,58,0.101,1.0,NoMusic
1624704813.67,stimulus,1,59,,0.0,NoMusic
1624704814.3330002,fixation,1,59,0.163,1.0,NoMusic
1624704816.075,stimulus,1,60,0.405,1.0,NoMusic
1624704816.17,fixation,1,60,,0.0,NoMusic
1624704817.67,stimulus,1,61,,0.0,NoMusic
1624704818.5570002,fixation,1,61,0.387,1.0,NoMusic
1624704819.67,stimulus,1,62,,0.0,NoMusic
1624704820.461,fixation,1,62,0.291,1.0,NoMusic
1624704821.67,stimulus,1,63,,0.0,NoMusic
1624704822.293,fixation,1,63,0.123,1.0,NoMusic
1624704823.67,stimulus,1,64,,0.0,NoMusic
1624704824.213,fixation,1,64,0.043,1.0,NoMusic
1624704825.67,stimulus,1,65,,0.0,NoMusic
1624704826.223,fixation,1,65,0.053,1.0,NoMusic
1624704827.67,stimulus,1,66,,0.0,NoMusic
1624704828.19,fixation,1,66,0.02,1.0,NoMusic
1624704829.67,stimulus,1,67,,0.0,NoMusic
1624704831.21,fixation,1,67,1.04,1.0,NoMusic
1624704832.065,stimulus,1,68,0.395,1.0,NoMusic
1624704832.17,fixation,1,68,,0.0,NoMusic
1624704834.086,stimulus,1,69,0.416,1.0,NoMusic
1624704834.17,fixation,1,69,,0.0,NoMusic
1624704835.67,stimulus,1,70,,0.0,NoMusic
1624704836.23,fixation,1,70,0.06,1.0,NoMusic
1624704837.67,stimulus,1,71,,0.0,NoMusic
1624704839.533,fixation,1,71,1.363,1.0,NoMusic
1624704839.9580002,stimulus,1,72,0.288,1.0,NoMusic
1624704840.888,fixation,1,72,0.718,0.0,NoMusic
1624704841.67,stimulus,1,73,,0.0,NoMusic
1624704842.7840002,fixation,1,73,0.614,0.0,NoMusic
1624704843.67,stimulus,1,74,,0.0,NoMusic
1624704844.966,fixation,1,74,0.796,0.0,NoMusic
1624704845.67,stimulus,1,75,,0.0,NoMusic
1624704847.0600002,fixation,1,75,0.89,1.0,NoMusic
1624704847.67,stimulus,1,76,,0.0,NoMusic
1624704848.17,fixation,1,76,,0.0,NoMusic
1624704849.75,stimulus,1,77,0.08,0.0,NoMusic
1624704850.17,fixation,1,77,,0.0,NoMusic
1624704851.67,stimulus,1,78,,0.0,NoMusic
1624704852.5410001,fixation,1,78,0.371,1.0,NoMusic
1624704853.67,stimulus,1,79,,0.0,NoMusic
1624704855.306,fixation,1,79,1.136,1.0,NoMusic
1624704855.67,stimulus,1,80,,0.0,NoMusic
1624704857.022,fixation,1,80,0.852,1.0,NoMusic
1624704857.67,stimulus,1,81,,0.0,NoMusic
1624704858.17,fixation,1,81,,0.0,NoMusic
1624704859.67,stimulus,1,82,,0.0,NoMusic
1624704860.206,fixation,1,82,0.036,0.0,NoMusic
1624704861.67,stimulus,1,83,,0.0,NoMusic
1624704862.17,fixation,1,83,,0.0,NoMusic
1624704863.67,stimulus,1,84,,0.0,NoMusic
1624704865.082,fixation,1,84,0.912,1.0,NoMusic
1624704865.67,stimulus,1,85,,0.0,NoMusic
1624704866.418,fixation,1,85,0.248,1.0,NoMusic
1624704867.67,stimulus,1,86,,0.0,NoMusic
1624704869.3760002,fixation,1,86,1.206,0.0,NoMusic
1624704869.67,stimulus,1,87,,0.0,NoMusic
1624704871.555,fixation,1,87,1.385,1.0,NoMusic
1624704871.67,stimulus,1,88,,0.0,NoMusic
1624704873.0740001,fixation,1,88,0.904,1.0,NoMusic
1624704873.67,stimulus,1,89,,0.0,NoMusic
1624704874.17,fixation,1,89,,0.0,NoMusic
1624704875.67,stimulus,1,90,,0.0,NoMusic
1624704876.3270001,fixation,1,90,0.157,1.0,NoMusic
1624704878.03,stimulus,1,91,0.36,1.0,NoMusic
1624704878.17,fixation,1,91,,0.0,NoMusic
1624704880.1290002,stimulus,1,92,0.459,1.0,NoMusic
1624704880.17,fixation,1,92,,0.0,NoMusic
1624704881.67,stimulus,1,93,,0.0,NoMusic
1624704882.755,fixation,1,93,0.585,0.0,NoMusic
1624704883.67,stimulus,1,94,,0.0,NoMusic
1624704884.382,fixation,1,94,0.212,1.0,NoMusic
1624704885.67,stimulus,1,95,,0.0,NoMusic
1624704887.1790001,fixation,1,95,1.009,1.0,NoMusic
1624704887.67,stimulus,1,96,,0.0,NoMusic
1624704889.0370002,fixation,1,96,0.867,0.0,NoMusic
1624704889.67,stimulus,1,97,,0.0,NoMusic
1624704890.17,fixation,1,97,,0.0,NoMusic
1624704892.119,stimulus,1,98,0.449,1.0,NoMusic
1624704892.8990002,fixation,1,98,0.729,1.0,NoMusic
1624704893.67,stimulus,1,99,,0.0,NoMusic
1624704894.5960002,fixation,1,99,0.426,1.0,NoMusic
1624704895.67,stimulus,1,100,,0.0,NoMusic
1624704897.25,fixation,1,100,1.08,1.0,NoMusic
1624704897.67,stimulus,1,101,,0.0,NoMusic
1624704898.286,fixation,1,101,0.116,0.0,NoMusic
1624704899.67,stimulus,1,102,,0.0,NoMusic
1624704900.79,fixation,1,102,0.62,1.0,NoMusic
1624704901.67,stimulus,1,103,,0.0,NoMusic
1624704902.3240001,fixation,1,103,0.154,1.0,NoMusic
1624704903.67,stimulus,1,104,,0.0,NoMusic
1624704905.283,fixation,1,104,1.113,0.0,NoMusic
1624704905.67,stimulus,1,105,,0.0,NoMusic
1624704906.858,fixation,1,105,0.688,1.0,NoMusic
1624704907.67,stimulus,1,106,,0.0,NoMusic
1624704908.621,fixation,1,106,0.451,0.0,NoMusic
1624704909.67,stimulus,1,107,,0.0,NoMusic
1624704910.17,fixation,1,107,,0.0,NoMusic
1624704911.9780002,stimulus,1,108,0.308,0.0,NoMusic
1624704912.229,fixation,1,108,0.059,1.0,NoMusic
1624704914.079,stimulus,1,109,0.409,1.0,NoMusic
1624704914.17,fixation,1,109,,0.0,NoMusic
1624704915.67,stimulus,1,110,,0.0,NoMusic
1624704916.286,fixation,1,110,0.116,1.0,NoMusic
1624704917.67,stimulus,1,111,,0.0,NoMusic
1624704918.621,fixation,1,111,0.451,1.0,NoMusic
1624704919.67,stimulus,1,112,,0.0,NoMusic
1624704920.43,fixation,1,112,0.26,1.0,NoMusic
1624704921.67,stimulus,1,113,,0.0,NoMusic
1624704922.295,fixation,1,113,0.125,1.0,NoMusic
1624704924.163,stimulus,1,114,0.493,1.0,NoMusic
1624704924.17,fixation,1,114,,0.0,NoMusic
1624704925.67,stimulus,1,115,,0.0,NoMusic
1624704926.247,fixation,1,115,0.077,1.0,NoMusic
1624704928.061,stimulus,1,116,0.391,1.0,NoMusic
1624704928.17,fixation,1,116,,0.0,NoMusic
1624704929.67,stimulus,1,117,,0.0,NoMusic
1624704930.4780002,fixation,1,117,0.308,1.0,NoMusic
1624704931.67,stimulus,1,118,,0.0,NoMusic
1624704932.381,fixation,1,118,0.211,1.0,NoMusic
1624704934.1100001,stimulus,1,119,0.44,1.0,NoMusic
1624704934.17,fixation,1,119,,0.0,NoMusic
1624704935.67,stimulus,1,120,,0.0,NoMusic
1624704936.4680002,fixation,1,120,0.298,1.0,NoMusic
1624704937.67,stimulus,1,121,,0.0,NoMusic
1624704938.259,fixation,1,121,0.089,1.0,NoMusic
1624704939.67,stimulus,1,122,,0.0,NoMusic
1624704940.486,fixation,1,122,0.316,1.0,NoMusic
1624704941.67,stimulus,1,123,,0.0,NoMusic
1624704942.369,fixation,1,123,0.199,1.0,NoMusic
1624704943.67,stimulus,1,124,,0.0,NoMusic
1624704944.2250001,fixation,1,124,0.055,1.0,NoMusic
1624704946.048,stimulus,1,125,0.378,0.0,NoMusic
1624704946.17,fixation,1,125,,0.0,NoMusic
1624704948.0830002,stimulus,1,126,0.413,1.0,NoMusic
1624704948.17,fixation,1,126,,0.0,NoMusic
1624704949.67,stimulus,1,127,,0.0,NoMusic
1624704950.694,fixation,1,127,0.524,1.0,NoMusic
1624704951.67,stimulus,1,128,,0.0,NoMusic
1624704952.746,fixation,1,128,0.576,1.0,NoMusic
1624704953.67,stimulus,1,129,,0.0,NoMusic
1624704954.334,fixation,1,129,0.164,1.0,NoMusic
1624704956.121,stimulus,1,130,0.451,0.0,NoMusic
1624704956.733,fixation,1,130,0.563,1.0,NoMusic
1624704957.67,stimulus,1,131,,0.0,NoMusic
1624704958.582,fixation,1,131,0.412,1.0,NoMusic
1624704960.101,stimulus,1,132,0.431,1.0,NoMusic
1624704960.17,fixation,1,132,,0.0,NoMusic
1624704961.67,stimulus,1,133,,0.0,NoMusic
1624704963.338,fixation,1,133,1.168,1.0,NoMusic
1624704964.056,stimulus,1,134,0.386,1.0,NoMusic
1624704964.17,fixation,1,134,,0.0,NoMusic
1624704966.049,stimulus,1,135,0.379,1.0,NoMusic
1624704966.17,fixation,1,135,,0.0,NoMusic
1624704967.67,stimulus,1,136,,0.0,NoMusic
1624704968.349,fixation,1,136,0.179,1.0,NoMusic
1624704969.67,stimulus,1,137,,0.0,NoMusic
1624704971.3230002,fixation,1,137,1.153,1.0,NoMusic
1624704971.67,stimulus,1,138,,0.0,NoMusic
1624704972.364,fixation,1,138,0.194,1.0,NoMusic
1624704973.67,stimulus,1,139,,0.0,NoMusic
1624704975.153,fixation,1,139,0.983,1.0,NoMusic
1624704975.67,stimulus,1,140,,0.0,NoMusic
1624704976.9720001,fixation,1,140,0.802,1.0,NoMusic
1624704977.67,stimulus,1,141,,0.0,NoMusic
1624704978.4490001,fixation,1,141,0.279,0.0,NoMusic
1624704979.67,stimulus,1,142,,0.0,NoMusic
1624704980.6820002,fixation,1,142,0.512,1.0,NoMusic
1624704981.67,stimulus,1,143,,0.0,NoMusic
1624704982.8930001,fixation,1,143,0.723,0.0,NoMusic
1624704983.67,stimulus,1,144,,0.0,NoMusic
1624704984.826,fixation,1,144,0.656,1.0,NoMusic
1624704985.67,stimulus,1,145,,0.0,NoMusic
1624704986.424,fixation,1,145,0.254,0.0,NoMusic
1624704987.67,stimulus,1,146,,0.0,NoMusic
1624704989.01,fixation,1,146,0.84,1.0,NoMusic
1624704990.132,stimulus,1,147,0.462,1.0,NoMusic
1624704990.17,fixation,1,147,,0.0,NoMusic
1624704991.67,stimulus,1,148,,0.0,NoMusic
1624704992.8100002,fixation,1,148,0.64,0.0,NoMusic
1624704993.67,stimulus,1,149,,0.0,NoMusic
1624704994.559,fixation,1,149,0.389,1.0,NoMusic
1624704995.67,stimulus,1,150,,0.0,NoMusic
1624704996.3830001,fixation,1,150,0.213,1.0,NoMusic
1624704997.67,stimulus,1,151,,0.0,NoMusic
1624704998.3200002,fixation,1,151,0.15,0.0,NoMusic
1624704999.67,stimulus,1,152,,0.0,NoMusic
1624705000.357,fixation,1,152,0.187,1.0,NoMusic
1624705001.67,stimulus,1,153,,0.0,NoMusic
1624705002.17,fixation,1,153,,0.0,NoMusic
1624705003.67,stimulus,1,154,,0.0,NoMusic
1624705004.211,fixation,1,154,0.041,1.0,NoMusic
1624705005.67,stimulus,1,155,,0.0,NoMusic
1624705006.658,fixation,1,155,0.488,1.0,NoMusic
1624705007.67,stimulus,1,156,,0.0,NoMusic
1624705008.224,fixation,1,156,0.054,1.0,NoMusic
1624705010.0270002,stimulus,1,157,0.357,1.0,NoMusic
1624705010.17,fixation,1,157,,0.0,NoMusic
1624705011.67,stimulus,1,158,,0.0,NoMusic
1624705012.2050002,fixation,1,158,0.035,1.0,NoMusic
1624705013.67,stimulus,1,159,,0.0,NoMusic
1624705014.378,fixation,1,159,0.208,1.0,NoMusic
1624705016.1660001,stimulus,1,160,0.496,1.0,NoMusic
1624705016.17,fixation,1,160,,0.0,NoMusic
1624705017.67,stimulus,1,161,,0.0,NoMusic
1624705018.334,fixation,1,161,0.164,1.0,NoMusic
1624705019.67,stimulus,1,162,,0.0,NoMusic
1624705020.4480002,fixation,1,162,0.278,1.0,NoMusic
1624705021.67,stimulus,1,163,,0.0,NoMusic
1624705022.2,fixation,1,163,0.03,1.0,NoMusic
1624705023.67,stimulus,1,164,,0.0,NoMusic
1624705024.301,fixation,1,164,0.131,1.0,NoMusic
1624705025.992,stimulus,1,165,0.322,1.0,NoMusic
1624705026.17,fixation,1,165,,0.0,NoMusic
1624705027.67,stimulus,1,166,,0.0,NoMusic
1624705028.2350001,fixation,1,166,0.065,1.0,NoMusic
1624705029.67,stimulus,1,167,,0.0,NoMusic
1624705030.181,fixation,1,167,0.011,1.0,NoMusic
1624705032.122,stimulus,1,168,0.452,1.0,NoMusic
1624705032.17,fixation,1,168,,0.0,NoMusic
1624705034.048,stimulus,1,169,0.378,1.0,NoMusic
1624705034.17,fixation,1,169,,0.0,NoMusic
1624705035.67,stimulus,1,170,,0.0,NoMusic
1624705036.404,fixation,1,170,0.234,1.0,NoMusic
1624705038.132,stimulus,1,171,0.462,1.0,NoMusic
1624705038.17,fixation,1,171,,0.0,NoMusic
1624705039.67,stimulus,1,172,,0.0,NoMusic
1624705040.227,fixation,1,172,0.057,1.0,NoMusic
1624705041.67,stimulus,1,173,,0.0,NoMusic
1624705042.6560001,fixation,1,173,0.486,1.0,NoMusic
1624705043.67,stimulus,1,174,,0.0,NoMusic
1624705044.181,fixation,1,174,0.011,1.0,NoMusic
1624705045.67,stimulus,1,175,,0.0,NoMusic
1624705046.299,fixation,1,175,0.129,0.0,NoMusic
1624705047.67,stimulus,1,176,,0.0,NoMusic
1624705048.244,fixation,1,176,0.074,1.0,NoMusic
1624705049.67,stimulus,1,177,,0.0,NoMusic
1624705050.377,fixation,1,177,0.207,1.0,NoMusic
1624705052.1560001,stimulus,1,178,0.486,1.0,NoMusic
1624705052.17,fixation,1,178,,0.0,NoMusic
1624705054.0370002,stimulus,1,179,0.367,1.0,NoMusic
1624705054.17,fixation,1,179,,0.0,NoMusic
1624705056.167,stimulus,1,180,0.497,0.0,NoMusic
1624705056.17,fixation,1,180,,0.0,NoMusic
1624705057.67,stimulus,1,181,,0.0,NoMusic
1624705058.292,fixation,1,181,0.122,1.0,NoMusic
1624705059.67,stimulus,1,182,,0.0,NoMusic
1624705060.492,fixation,1,182,0.322,1.0,NoMusic
1624705062.155,stimulus,1,183,0.485,1.0,NoMusic
1624705062.17,fixation,1,183,,0.0,NoMusic
1624705064.1620002,stimulus,1,184,0.492,1.0,NoMusic
1624705064.17,fixation,1,184,,0.0,NoMusic
1624705066.0180001,stimulus,1,185,0.348,1.0,NoMusic
1624705066.17,fixation,1,185,,0.0,NoMusic
1624705067.9710002,stimulus,1,186,0.301,1.0,NoMusic
1624705068.17,fixation,1,186,,0.0,NoMusic
1624705070.066,stimulus,1,187,0.396,1.0,NoMusic
1624705070.17,fixation,1,187,,0.0,NoMusic
1624705072.131,stimulus,1,188,0.461,1.0,NoMusic
1624705072.17,fixation,1,188,,0.0,NoMusic
1624705073.67,stimulus,1,189,,0.0,NoMusic
1624705074.2710001,fixation,1,189,0.101,1.0,NoMusic
1624705076.105,stimulus,1,190,0.435,1.0,NoMusic
1624705076.17,fixation,1,190,,0.0,NoMusic
1624705077.67,stimulus,1,191,,0.0,NoMusic
1624705078.477,fixation,1,191,0.307,1.0,NoMusic
1624705079.67,stimulus,1,192,,0.0,NoMusic
1624705080.232,fixation,1,192,0.062,1.0,NoMusic
1624705082.138,stimulus,1,193,0.468,0.0,NoMusic
1624705082.964,fixation,1,193,0.794,1.0,NoMusic
1624705083.67,stimulus,1,194,,0.0,NoMusic
1624705084.339,fixation,1,194,0.169,1.0,NoMusic
1624705085.67,stimulus,1,195,,0.0,NoMusic
1624705086.3070002,fixation,1,195,0.137,1.0,NoMusic
1624705087.67,stimulus,1,196,,0.0,NoMusic
1624705088.5570002,fixation,1,196,0.387,1.0,NoMusic
1624705089.67,stimulus,1,197,,0.0,NoMusic
1624705090.45,fixation,1,197,0.28,1.0,NoMusic
1624705091.67,stimulus,1,198,,0.0,NoMusic
1624705092.207,fixation,1,198,0.037,1.0,NoMusic
1624705093.67,stimulus,1,199,,0.0,NoMusic
1624705094.4620001,fixation,1,199,0.292,1.0,NoMusic
1624705096.135,stimulus,1,200,0.465,1.0,NoMusic
1624705096.17,fixation,1,200,,0.0,NoMusic
1624705098.028,stimulus,1,201,0.358,1.0,NoMusic
1624705098.17,fixation,1,201,,0.0,NoMusic
1624705099.67,stimulus,1,202,,0.0,NoMusic
1624705100.392,fixation,1,202,0.222,1.0,NoMusic
1624705101.67,stimulus,1,203,,0.0,NoMusic
1624705103.1460001,fixation,1,203,0.976,1.0,NoMusic
1624705103.67,stimulus,1,204,,0.0,NoMusic
1624705104.417,fixation,1,204,0.247,1.0,NoMusic
1624705105.67,stimulus,1,205,,0.0,NoMusic
1624705106.292,fixation,1,205,0.122,1.0,NoMusic
1624705107.67,stimulus,1,206,,0.0,NoMusic
1624705108.924,fixation,1,206,0.754,1.0,NoMusic
1624705109.67,stimulus,1,207,,0.0,NoMusic
1624705110.6000001,fixation,1,207,0.43,0.0,NoMusic
1624705111.67,stimulus,1,208,,0.0,NoMusic
1624705112.8400002,fixation,1,208,0.67,1.0,NoMusic
1624705113.67,stimulus,1,209,,0.0,NoMusic
1624705114.959,fixation,1,209,0.789,1.0,NoMusic
1624705115.67,stimulus,1,210,,0.0,NoMusic
1624705117.612,fixation,1,210,1.442,1.0,NoMusic
1624705117.67,stimulus,1,211,,0.0,NoMusic
1624705118.703,fixation,1,211,0.533,1.0,NoMusic
1624705119.67,stimulus,1,212,,0.0,NoMusic
1624705120.384,fixation,1,212,0.214,1.0,NoMusic
1624705121.67,stimulus,1,213,,0.0,NoMusic
1624705122.3040001,fixation,1,213,0.134,1.0,NoMusic
1624705123.67,stimulus,1,214,,0.0,NoMusic
1624705124.858,fixation,1,214,0.688,1.0,NoMusic
1624705125.67,stimulus,1,215,,0.0,NoMusic
1624705126.9190001,fixation,1,215,0.749,0.0,NoMusic
1624705127.67,stimulus,1,216,,0.0,NoMusic
1624705128.78,fixation,1,216,0.61,0.0,NoMusic
1624705129.67,stimulus,1,217,,0.0,NoMusic
1624705131.1620002,fixation,1,217,0.992,1.0,NoMusic
1624705131.67,stimulus,1,218,,0.0,NoMusic
1624705132.377,fixation,1,218,0.207,1.0,NoMusic
1624705133.67,stimulus,1,219,,0.0,NoMusic
1624705134.457,fixation,1,219,0.287,1.0,NoMusic
1624705135.67,stimulus,1,220,,0.0,NoMusic
1624705136.299,fixation,1,220,0.129,1.0,NoMusic
1624705137.67,stimulus,1,221,,,NoMusic
1624705138.17,fixation,1,221,,,NoMusic
1624705139.67,stimulus,1,222,,0.0,NoMusic
1624705141.464,fixation,1,222,1.294,1.0,NoMusic
1624705142.1100001,stimulus,1,223,0.44,1.0,NoMusic
1624705142.17,fixation,1,223,,0.0,NoMusic
1624705144.1230001,stimulus,1,224,0.453,1.0,NoMusic
1624705145.663,fixation,1,224,1.493,1.0,NoMusic
1624705145.67,stimulus,1,225,,0.0,NoMusic
1624705146.622,fixation,1,225,0.452,1.0,NoMusic
1624705147.67,stimulus,1,226,,0.0,NoMusic
1624705148.923,fixation,1,226,0.753,1.0,NoMusic
1624705150.137,stimulus,1,227,0.467,1.0,NoMusic
1624705150.17,fixation,1,227,,0.0,NoMusic
1624705151.67,stimulus,1,228,,0.0,NoMusic
1624705152.364,fixation,1,228,0.194,1.0,NoMusic
1624705153.67,stimulus,1,229,,0.0,NoMusic
1624705154.914,fixation,1,229,0.744,1.0,NoMusic
1624705155.67,stimulus,1,230,,0.0,NoMusic
1624705156.546,fixation,1,230,0.376,0.0,NoMusic
1624705157.67,stimulus,1,231,,0.0,NoMusic
1624705158.614,fixation,1,231,0.444,0.0,NoMusic
1624705159.67,stimulus,1,232,,0.0,NoMusic
1624705160.762,fixation,1,232,0.592,0.0,NoMusic
1624705161.67,stimulus,1,233,,0.0,NoMusic
1624705162.401,fixation,1,233,0.231,0.0,NoMusic
1624705163.67,stimulus,1,234,,0.0,NoMusic
1624705165.0830002,fixation,1,234,0.913,0.0,NoMusic
1624705165.67,stimulus,1,235,,0.0,NoMusic
1624705166.535,fixation,1,235,0.365,0.0,NoMusic
1624705167.67,stimulus,1,236,,0.0,NoMusic
1624705168.637,fixation,1,236,0.467,1.0,NoMusic
1624705169.67,stimulus,1,237,,0.0,NoMusic
1624705170.6200001,fixation,1,237,0.45,1.0,NoMusic
1624705171.67,stimulus,1,238,,0.0,NoMusic
1624705172.7610002,fixation,1,238,0.591,1.0,NoMusic
1624705173.67,stimulus,1,239,,0.0,NoMusic
1624705174.407,fixation,1,239,0.237,1.0,NoMusic
1624705175.67,stimulus,1,240,,0.0,NoMusic
1624705176.3630002,fixation,1,240,0.193,0.0,NoMusic
1624705177.67,stimulus,1,241,,0.0,NoMusic
1624705178.891,fixation,1,241,0.721,0.0,NoMusic
1624705179.67,stimulus,1,242,,0.0,NoMusic
1624705180.4020002,fixation,1,242,0.232,1.0,NoMusic
1624705181.67,stimulus,1,243,,0.0,NoMusic
1624705182.3370001,fixation,1,243,0.167,1.0,NoMusic
1624705183.67,stimulus,1,244,,0.0,NoMusic
1624705185.4950001,fixation,1,244,1.325,1.0,NoMusic
1624705185.67,stimulus,1,245,,0.0,NoMusic
1624705186.3630002,fixation,1,245,0.193,1.0,NoMusic
1624705187.67,stimulus,1,246,,0.0,NoMusic
1624705188.5,fixation,1,246,0.33,1.0,NoMusic
1624705189.67,stimulus,1,247,,0.0,NoMusic
1624705190.381,fixation,1,247,0.211,1.0,NoMusic
1624705191.67,stimulus,1,248,,0.0,NoMusic
1624705192.288,fixation,1,248,0.118,1.0,NoMusic
1624705193.67,stimulus,1,249,,0.0,NoMusic
1624705194.17,fixation,1,249,,0.0,NoMusic
1624705195.67,stimulus,1,250,,0.0,NoMusic
1624705196.394,fixation,1,250,0.224,1.0,NoMusic
1624705198.1230001,stimulus,1,251,0.453,1.0,NoMusic
1624705198.17,fixation,1,251,,0.0,NoMusic
1624705199.67,stimulus,1,252,,0.0,NoMusic
1624705200.5,fixation,1,252,0.33,1.0,NoMusic
1624705201.67,stimulus,1,253,,0.0,NoMusic
1624705202.371,fixation,1,253,0.201,1.0,NoMusic
1624705203.67,stimulus,1,254,,0.0,NoMusic
1624705204.201,fixation,1,254,0.031,1.0,NoMusic
1624705205.67,stimulus,1,255,,0.0,NoMusic
1624705206.329,fixation,1,255,0.159,1.0,NoMusic
1624705207.67,stimulus,1,256,,0.0,NoMusic
1624705208.5210001,fixation,1,256,0.351,1.0,NoMusic
1624705209.67,stimulus,1,257,,0.0,NoMusic
1624705210.394,fixation,1,257,0.224,1.0,NoMusic
1624705211.67,stimulus,1,258,,0.0,NoMusic
1624705212.576,fixation,1,258,0.406,1.0,NoMusic
1624705214.151,stimulus,1,259,0.481,1.0,NoMusic
1624705214.17,fixation,1,259,,0.0,NoMusic
1624705215.67,stimulus,1,260,,0.0,NoMusic
1624705216.619,fixation,1,260,0.449,1.0,NoMusic
1624705218.125,stimulus,1,261,0.455,1.0,NoMusic
1624705218.17,fixation,1,261,,0.0,NoMusic
1624705219.67,stimulus,1,262,,0.0,NoMusic
1624705220.3140001,fixation,1,262,0.144,1.0,NoMusic
1624705222.099,stimulus,1,263,0.429,1.0,NoMusic
1624705222.17,fixation,1,263,,0.0,NoMusic
1624705223.67,stimulus,1,264,,0.0,NoMusic
1624705224.2710001,fixation,1,264,0.101,0.0,NoMusic
1624705225.67,stimulus,1,265,,0.0,NoMusic
1624705226.236,fixation,1,265,0.066,1.0,NoMusic
1624705227.67,stimulus,1,266,,0.0,NoMusic
1624705228.325,fixation,1,266,0.155,1.0,NoMusic
1624705229.67,stimulus,1,267,,0.0,NoMusic
1624705230.302,fixation,1,267,0.132,1.0,NoMusic
1624705231.67,stimulus,1,268,,0.0,NoMusic
1624705232.388,fixation,1,268,0.218,1.0,NoMusic
1624705233.67,stimulus,1,269,,0.0,NoMusic
1624705234.1850002,fixation,1,269,0.015,1.0,NoMusic
1624705235.67,stimulus,1,270,,0.0,NoMusic
1624705236.217,fixation,1,270,0.047,1.0,NoMusic
1624705237.67,stimulus,1,271,,0.0,NoMusic
1624705238.18,fixation,1,271,0.01,0.0,NoMusic
1624705239.67,stimulus,1,272,,0.0,NoMusic
1624705240.193,fixation,1,272,0.023,1.0,NoMusic
1624705241.67,stimulus,1,273,,0.0,NoMusic
1624705242.2150002,fixation,1,273,0.045,1.0,NoMusic
1624705243.67,stimulus,1,274,,0.0,NoMusic
1624705244.381,fixation,1,274,0.211,1.0,NoMusic
1624705245.67,stimulus,1,275,,0.0,NoMusic
1624705246.4290001,fixation,1,275,0.259,1.0,NoMusic
1624705247.67,stimulus,1,276,,0.0,NoMusic
1624705248.335,fixation,1,276,0.165,1.0,NoMusic
1624705249.67,stimulus,1,277,,0.0,NoMusic
1624705250.3500001,fixation,1,277,0.18,1.0,NoMusic
1624705251.67,stimulus,1,278,,0.0,NoMusic
1624705252.714,fixation,1,278,0.544,1.0,NoMusic
1624705253.67,stimulus,1,279,,0.0,NoMusic
1624705255.191,fixation,1,279,1.021,1.0,NoMusic
1624705255.67,stimulus,1,280,,0.0,NoMusic
1624705256.483,fixation,1,280,0.313,1.0,NoMusic
1624705257.67,stimulus,1,281,,0.0,NoMusic
1624705258.457,fixation,1,281,0.287,1.0,NoMusic
1624705259.67,stimulus,1,282,,0.0,NoMusic
1624705260.2770002,fixation,1,282,0.107,1.0,NoMusic
1624705261.67,stimulus,1,283,,0.0,NoMusic
1624705262.3270001,fixation,1,283,0.157,1.0,NoMusic
1624705263.67,stimulus,1,284,,0.0,NoMusic
1624705264.374,fixation,1,284,0.204,1.0,NoMusic
1624705265.67,stimulus,1,285,,0.0,NoMusic
1624705266.2080002,fixation,1,285,0.038,1.0,NoMusic
1624705268.138,stimulus,1,286,0.468,0.0,NoMusic
1624705269.648,fixation,1,286,1.478,1.0,NoMusic
1624705269.67,stimulus,1,287,,0.0,NoMusic
1624705270.2740002,fixation,1,287,0.104,1.0,NoMusic
1624705271.67,stimulus,1,288,,0.0,NoMusic
1624705272.5180001,fixation,1,288,0.348,1.0,NoMusic
1624705273.9720001,stimulus,1,289,0.302,1.0,NoMusic
1624705274.17,fixation,1,289,,0.0,NoMusic
1624705276.028,stimulus,1,290,0.358,1.0,NoMusic
1624705276.17,fixation,1,290,,0.0,NoMusic
1624705277.67,stimulus,1,291,,0.0,NoMusic
1624705278.482,fixation,1,291,0.312,1.0,NoMusic
1624705279.67,stimulus,1,292,,0.0,NoMusic
1624705280.647,fixation,1,292,0.477,1.0,NoMusic
1624705281.67,stimulus,1,293,,0.0,NoMusic
1624705282.203,fixation,1,293,0.033,1.0,NoMusic
1624705283.67,stimulus,1,294,,0.0,NoMusic
1624705284.641,fixation,1,294,0.471,0.0,NoMusic
1624705285.67,stimulus,1,295,,0.0,NoMusic
1624705286.532,fixation,1,295,0.362,1.0,NoMusic
1624705287.67,stimulus,1,296,,0.0,NoMusic
1624705288.394,fixation,1,296,0.224,1.0,NoMusic
1624705289.67,stimulus,1,297,,0.0,NoMusic
1624705291.598,fixation,1,297,1.428,0.0,NoMusic
1624705291.67,stimulus,1,298,,0.0,NoMusic
1624705292.845,fixation,1,298,0.675,1.0,NoMusic
1624705293.67,stimulus,1,299,,0.0,NoMusic
1624705294.4190001,fixation,1,299,0.249,1.0,NoMusic
1624705295.67,stimulus,1,300,,0.0,NoMusic
1624705296.17,fixation,1,300,,0.0,NoMusic
1624705297.757,stimulus,1,301,0.087,1.0,NoMusic
1624705298.17,fixation,1,301,,0.0,NoMusic
1624705299.67,stimulus,1,302,,0.0,NoMusic
1624705300.3230002,fixation,1,302,0.153,1.0,NoMusic
1624705301.67,stimulus,1,303,,0.0,NoMusic
1624705302.17,fixation,1,303,,0.0,NoMusic
1624705303.789,stimulus,1,304,0.119,0.0,NoMusic
1624705304.17,fixation,1,304,,0.0,NoMusic
1624705305.67,stimulus,1,305,,0.0,NoMusic
1624705306.861,fixation,1,305,0.691,0.0,NoMusic
1624705307.67,stimulus,1,306,,0.0,NoMusic
1624705308.21,fixation,1,306,0.04,0.0,NoMusic
1624705309.67,stimulus,1,307,,0.0,NoMusic
1624705310.8960001,fixation,1,307,0.726,1.0,NoMusic
1624705311.67,stimulus,1,308,,0.0,NoMusic
1624705312.278,fixation,1,308,0.108,1.0,NoMusic
1624705313.67,stimulus,1,309,,0.0,NoMusic
1624705314.3860002,fixation,1,309,0.216,1.0,NoMusic
1624705315.67,stimulus,1,310,,0.0,NoMusic
1624705316.601,fixation,1,310,0.431,1.0,NoMusic
1624705318.035,stimulus,1,311,0.365,1.0,NoMusic
1624705318.17,fixation,1,311,,0.0,NoMusic
1624705320.006,stimulus,1,312,0.336,1.0,NoMusic
1624705320.17,fixation,1,312,,0.0,NoMusic
1624705321.67,stimulus,1,313,,0.0,NoMusic
1624705322.655,fixation,1,313,0.485,1.0,NoMusic
1624705323.67,stimulus,1,314,,0.0,NoMusic
1624705324.249,fixation,1,314,0.079,0.0,NoMusic
1624705325.67,stimulus,1,315,,0.0,NoMusic
1624705326.403,fixation,1,315,0.233,1.0,NoMusic
1624705327.67,stimulus,1,316,,0.0,NoMusic
1624705328.456,fixation,1,316,0.286,1.0,NoMusic
1624705329.67,stimulus,1,317,,0.0,NoMusic
1624705330.17,fixation,1,317,,0.0,NoMusic
1624705331.67,stimulus,1,318,,0.0,NoMusic
1624705332.477,fixation,1,318,0.307,1.0,NoMusic
1624705333.67,stimulus,1,319,,0.0,NoMusic
1624705334.418,fixation,1,319,0.248,0.0,NoMusic
1624705335.67,stimulus,1,320,,0.0,NoMusic
1624705336.4550002,fixation,1,320,0.285,0.0,NoMusic
1624705337.67,stimulus,1,321,,0.0,NoMusic
1624705338.2,fixation,1,321,0.03,1.0,NoMusic
1624705339.67,stimulus,1,322,,0.0,NoMusic
1624705340.361,fixation,1,322,0.191,1.0,NoMusic
1624705341.67,stimulus,1,323,,0.0,NoMusic
1624705343.197,fixation,1,323,1.027,0.0,NoMusic
1624705343.67,stimulus,1,324,,0.0,NoMusic
1624705344.331,fixation,1,324,0.161,0.0,NoMusic
1624705345.67,stimulus,1,325,,0.0,NoMusic
1624705347.017,fixation,1,325,0.847,1.0,NoMusic
1624705347.67,stimulus,1,326,,0.0,NoMusic
1624705349.052,fixation,1,326,0.882,1.0,NoMusic
1624705349.67,stimulus,1,327,,0.0,NoMusic
1624705350.566,fixation,1,327,0.396,0.0,NoMusic
1624705351.67,stimulus,1,328,,0.0,NoMusic
1624705352.306,fixation,1,328,0.136,0.0,NoMusic
1624705353.67,stimulus,1,329,,0.0,NoMusic
1624705354.53,fixation,1,329,0.36,1.0,NoMusic
1624705355.67,stimulus,1,330,,0.0,NoMusic
1624705356.451,fixation,1,330,0.281,1.0,NoMusic
1624705357.67,stimulus,1,331,,0.0,NoMusic
1624705359.0640001,fixation,1,331,0.894,1.0,NoMusic
1624705359.67,stimulus,1,332,,0.0,NoMusic
1624705360.607,fixation,1,332,0.437,1.0,NoMusic
1624705361.67,stimulus,1,333,,0.0,NoMusic
1624705362.2310002,fixation,1,333,0.061,1.0,NoMusic
1624705363.9750001,stimulus,1,334,0.305,1.0,NoMusic
1624705364.17,fixation,1,334,,0.0,NoMusic
1624705365.67,stimulus,1,335,,0.0,NoMusic
1624705366.4,fixation,1,335,0.23,1.0,NoMusic
1624705368.081,stimulus,1,336,0.411,0.0,NoMusic
1624705368.607,fixation,1,336,0.437,1.0,NoMusic
1624705369.67,stimulus,1,337,,0.0,NoMusic
1624705370.2080002,fixation,1,337,0.038,1.0,NoMusic
1624705371.67,stimulus,1,338,,0.0,NoMusic
1624705372.194,fixation,1,338,0.024,1.0,NoMusic
1624705373.67,stimulus,1,339,,0.0,NoMusic
1624705374.6790001,fixation,1,339,0.509,0.0,NoMusic
1624705376.101,stimulus,1,340,0.431,1.0,NoMusic
1624705376.17,fixation,1,340,,0.0,NoMusic
1624705377.67,stimulus,1,341,,0.0,NoMusic
1624705378.22,fixation,1,341,0.05,1.0,NoMusic
1624705379.67,stimulus,1,342,,0.0,NoMusic
1624705380.275,fixation,1,342,0.105,1.0,NoMusic
1624705381.67,stimulus,1,343,,0.0,NoMusic
1624705382.322,fixation,1,343,0.152,1.0,NoMusic
1624705383.67,stimulus,1,344,,0.0,NoMusic
1624705384.197,fixation,1,344,0.027,1.0,NoMusic
1624705385.67,stimulus,1,345,,0.0,NoMusic
1624705386.5310001,fixation,1,345,0.361,1.0,NoMusic
1624705387.67,stimulus,1,346,,0.0,NoMusic
1624705388.358,fixation,1,346,0.188,1.0,NoMusic
1624705390.134,stimulus,1,347,0.464,1.0,NoMusic
1624705390.17,fixation,1,347,,0.0,NoMusic
1624705391.67,stimulus,1,348,,0.0,NoMusic
1624705392.184,fixation,1,348,0.014,0.0,NoMusic
1624705394.081,stimulus,1,349,0.411,1.0,NoMusic
1624705394.17,fixation,1,349,,0.0,NoMusic
1624705396.058,stimulus,1,350,0.388,1.0,NoMusic
1624705396.17,fixation,1,350,,0.0,NoMusic
1624705397.67,stimulus,1,351,,0.0,NoMusic
1624705398.244,fixation,1,351,0.074,1.0,NoMusic
1624705399.67,stimulus,1,352,,0.0,NoMusic
1624705400.4780002,fixation,1,352,0.308,1.0,NoMusic
1624705401.67,stimulus,1,353,,0.0,NoMusic
1624705402.2580001,fixation,1,353,0.088,1.0,NoMusic
1624705403.67,stimulus,1,354,,0.0,NoMusic
1624705404.17,fixation,1,354,,0.0,NoMusic
1624705406.0830002,stimulus,1,355,0.413,1.0,NoMusic
1624705406.17,fixation,1,355,,0.0,NoMusic
1624705408.119,stimulus,1,356,0.449,1.0,NoMusic
1624705408.17,fixation,1,356,,0.0,NoMusic
1624705409.67,stimulus,1,357,,0.0,NoMusic
1624705410.486,fixation,1,357,0.316,1.0,NoMusic
1624705411.67,stimulus,1,358,,0.0,NoMusic
1624705412.384,fixation,1,358,0.214,0.0,NoMusic
1624705413.67,stimulus,1,359,,0.0,NoMusic
1624705414.726,fixation,1,359,0.556,1.0,NoMusic
1624705415.67,stimulus,1,360,,0.0,NoMusic
1624705416.438,fixation,1,360,0.268,1.0,NoMusic
1624705417.67,stimulus,1,361,,0.0,NoMusic
1624705419.0370002,fixation,1,361,0.867,1.0,NoMusic
1624705419.67,stimulus,1,362,,0.0,NoMusic
1624705420.433,fixation,1,362,0.263,1.0,NoMusic
1624705421.67,stimulus,1,363,,0.0,NoMusic
1624705423.469,fixation,1,363,1.299,0.0,NoMusic
1624705423.67,stimulus,1,364,,0.0,NoMusic
1624705425.1590002,fixation,1,364,0.989,0.0,NoMusic
1624705425.67,stimulus,1,365,,0.0,NoMusic
1624705427.53,fixation,1,365,1.36,1.0,NoMusic
1624705427.67,stimulus,1,366,,0.0,NoMusic
1624705428.714,fixation,1,366,0.544,1.0,NoMusic
1624705429.67,stimulus,1,367,,0.0,NoMusic
1624705430.1720002,fixation,1,367,0.002,1.0,NoMusic
1624705431.67,stimulus,1,368,,0.0,NoMusic
1624705432.41,fixation,1,368,0.24,0.0,NoMusic
1624705433.67,stimulus,1,369,,0.0,NoMusic
1624705434.2220001,fixation,1,369,0.052,0.0,NoMusic
1624705435.67,stimulus,1,370,,0.0,NoMusic
1624705437.062,fixation,1,370,0.892,1.0,NoMusic
1624705437.67,stimulus,1,371,,0.0,NoMusic
1624705438.3990002,fixation,1,371,0.229,1.0,NoMusic
1624705439.67,stimulus,1,372,,0.0,NoMusic
1624705441.032,fixation,1,372,0.862,0.0,NoMusic
1624705441.67,stimulus,1,373,,0.0,NoMusic
1624705442.4350002,fixation,1,373,0.265,1.0,NoMusic
1624705443.67,stimulus,1,374,,0.0,NoMusic
1624705444.644,fixation,1,374,0.474,1.0,NoMusic
1624705445.67,stimulus,1,375,,0.0,NoMusic
1624705446.3700001,fixation,1,375,0.2,1.0,NoMusic
1624705447.67,stimulus,1,376,,0.0,NoMusic
1624705448.188,fixation,1,376,0.018,1.0,NoMusic
1624705449.67,stimulus,1,377,,0.0,NoMusic
1624705450.549,fixation,1,377,0.379,1.0,NoMusic
1624705451.67,stimulus,1,378,,0.0,NoMusic
1624705452.203,fixation,1,378,0.033,1.0,NoMusic
1624705453.67,stimulus,1,379,,0.0,NoMusic
1624705454.3530002,fixation,1,379,0.183,1.0,NoMusic
1624705455.67,stimulus,1,380,,0.0,NoMusic
1624705456.197,fixation,1,380,0.027,1.0,NoMusic
1624705457.67,stimulus,1,381,,0.0,NoMusic
1624705458.273,fixation,1,381,0.103,1.0,NoMusic
1624705460.089,stimulus,1,382,0.419,1.0,NoMusic
1624705460.17,fixation,1,382,,0.0,NoMusic
1624705462.1130002,stimulus,1,383,0.443,1.0,NoMusic
1624705462.17,fixation,1,383,,0.0,NoMusic
1624705463.67,stimulus,1,384,,0.0,NoMusic
1624705464.92,fixation,1,384,0.75,1.0,NoMusic
1624705465.67,stimulus,1,385,,0.0,NoMusic
1624705466.382,fixation,1,385,0.212,1.0,NoMusic
1624705468.134,stimulus,1,386,0.464,0.0,NoMusic
1624705468.17,fixation,1,386,,0.0,NoMusic
1624705469.67,stimulus,1,387,,0.0,NoMusic
1624705470.4350002,fixation,1,387,0.265,1.0,NoMusic
1624705471.67,stimulus,1,388,,0.0,NoMusic
1624705472.4490001,fixation,1,388,0.279,1.0,NoMusic
1624705473.67,stimulus,1,389,,0.0,NoMusic
1624705474.2150002,fixation,1,389,0.045,1.0,NoMusic
1624705476.157,stimulus,1,390,0.487,1.0,NoMusic
1624705476.17,fixation,1,390,,0.0,NoMusic
1624705477.67,stimulus,1,391,,0.0,NoMusic
1624705478.267,fixation,1,391,0.097,1.0,NoMusic
1624705479.67,stimulus,1,392,,0.0,NoMusic
1624705480.279,fixation,1,392,0.109,1.0,NoMusic
1624705482.1060002,stimulus,1,393,0.436,1.0,NoMusic
1624705482.17,fixation,1,393,,0.0,NoMusic
1624705484.109,stimulus,1,394,0.439,1.0,NoMusic
1624705484.17,fixation,1,394,,0.0,NoMusic
1624705486.119,stimulus,1,395,0.449,1.0,NoMusic
1624705486.17,fixation,1,395,,0.0,NoMusic
1624705487.67,stimulus,1,396,,0.0,NoMusic
1624705488.372,fixation,1,396,0.202,1.0,NoMusic
1624705489.67,stimulus,1,397,,0.0,NoMusic
1624705490.181,fixation,1,397,0.011,1.0,NoMusic
1624705491.67,stimulus,1,398,,,RelaxSession
1624705492.17,fixation,1,398,,,RelaxSession
1624705493.67,stimulus,1,399,,,RelaxSession
1624705494.17,fixation,1,399,,,RelaxSession
1624705495.67,stimulus,1,400,,,RelaxSession
1624705496.17,fixation,1,400,,,RelaxSession
1624705497.67,stimulus,1,401,,,RelaxSession
1624705498.17,fixation,1,401,,,RelaxSession
1624705499.67,stimulus,1,402,,,RelaxSession
1624705500.17,fixation,1,402,,,RelaxSession
1624705501.67,stimulus,1,403,,,RelaxSession
1624705502.17,fixation,1,403,,,RelaxSession
1624705503.67,stimulus,1,404,,,RelaxSession
1624705504.17,fixation,1,404,,,RelaxSession
1624705505.67,stimulus,1,405,,,RelaxSession
1624705506.17,fixation,1,405,,,RelaxSession
1624705507.67,stimulus,1,406,,,RelaxSession
1624705508.17,fixation,1,406,,,RelaxSession
1624705509.67,stimulus,1,407,,,RelaxSession
1624705510.17,fixation,1,407,,,RelaxSession
1624705511.67,stimulus,1,408,,,RelaxSession
1624705512.17,fixation,1,408,,,RelaxSession
1624705513.67,stimulus,1,409,,,RelaxSession
1624705514.17,fixation,1,409,,,RelaxSession
1624705515.67,stimulus,1,410,,,RelaxSession
1624705516.17,fixation,1,410,,,RelaxSession
1624705517.67,stimulus,1,411,,,RelaxSession
1624705518.17,fixation,1,411,,,RelaxSession
1624705519.67,stimulus,1,412,,,RelaxSession
1624705520.17,fixation,1,412,,,RelaxSession
1624705521.67,stimulus,1,413,,,RelaxSession
1624705522.17,fixation,1,413,,,RelaxSession
1624705523.67,stimulus,1,414,,,RelaxSession
1624705524.17,fixation,1,414,,,RelaxSession
1624705525.67,stimulus,1,415,,,RelaxSession
1624705526.17,fixation,1,415,,,RelaxSession
1624705527.67,stimulus,1,416,,,RelaxSession
1624705528.17,fixation,1,416,,,RelaxSession
1624705529.67,stimulus,1,417,,,RelaxSession
1624705530.17,fixation,1,417,,,RelaxSession
1624705531.67,stimulus,1,418,,,RelaxSession
1624705532.17,fixation,1,418,,,RelaxSession
1624705533.67,stimulus,1,419,,,RelaxSession
1624705534.17,fixation,1,419,,,RelaxSession
1624705535.67,stimulus,1,420,,,RelaxSession
1624705536.17,fixation,1,420,,,RelaxSession
1624705537.67,stimulus,1,421,,,RelaxSession
1624705538.17,fixation,1,421,,,RelaxSession
1624705539.67,stimulus,1,422,,,RelaxSession
1624705540.17,fixation,1,422,,,RelaxSession
1624705541.67,stimulus,1,423,,,RelaxSession
1624705542.17,fixation,1,423,,,RelaxSession
1624705543.67,stimulus,1,424,,,RelaxSession
1624705544.17,fixation,1,424,,,RelaxSession
1624705545.67,stimulus,1,425,,,RelaxSession
1624705546.17,fixation,1,425,,,RelaxSession
1624705547.67,stimulus,1,426,,,RelaxSession
1624705548.17,fixation,1,426,,,RelaxSession
1624705549.67,stimulus,1,427,,,RelaxSession
1624705550.17,fixation,1,427,,,RelaxSession
1624705551.67,stimulus,1,428,,,RelaxSession
1624705552.17,fixation,1,428,,,RelaxSession
1624705553.67,stimulus,1,429,,,RelaxSession
1624705554.17,fixation,1,429,,,RelaxSession
1624705555.67,stimulus,1,430,,,RelaxSession
1624705556.17,fixation,1,430,,,RelaxSession
1624705557.67,stimulus,1,431,,,RelaxSession
1624705558.17,fixation,1,431,,,RelaxSession
1624705559.67,stimulus,1,432,,,RelaxSession
1624705560.17,fixation,1,432,,,RelaxSession
1624705561.67,stimulus,1,433,,,RelaxSession
1624705562.17,fixation,1,433,,,RelaxSession
1624705563.67,stimulus,1,434,,,RelaxSession
1624705564.17,fixation,1,434,,,RelaxSession
1624705565.67,stimulus,1,435,,,RelaxSession
1624705566.17,fixation,1,435,,,RelaxSession
1624705567.67,stimulus,1,436,,,RelaxSession
1624705568.17,fixation,1,436,,,RelaxSession
1624705569.67,stimulus,1,437,,,RelaxSession
1624705570.17,fixation,1,437,,,RelaxSession
1624705571.67,stimulus,1,438,,,RelaxSession
1624705572.17,fixation,1,438,,,RelaxSession
1624705573.67,stimulus,1,439,,,RelaxSession
1624705574.17,fixation,1,439,,,RelaxSession
1624705575.67,stimulus,1,440,,,RelaxSession
1624705576.17,fixation,1,440,,,RelaxSession
1624705577.67,stimulus,1,441,,,RelaxSession
1624705578.17,fixation,1,441,,,RelaxSession
1624705579.67,stimulus,1,442,,,RelaxSession
1624705580.17,fixation,1,442,,,RelaxSession
1624705581.67,stimulus,1,443,,,RelaxSession
1624705582.17,fixation,1,443,,,RelaxSession
1624705583.67,stimulus,1,444,,,RelaxSession
1624705584.17,fixation,1,444,,,RelaxSession
1624705585.67,stimulus,1,445,,,RelaxSession
1624705586.17,fixation,1,445,,,RelaxSession
1624705587.67,stimulus,1,446,,,RelaxSession
1624705588.17,fixation,1,446,,,RelaxSession
1624705589.67,stimulus,1,447,,,RelaxSession
1624705590.17,fixation,1,447,,,RelaxSession
1624705591.67,stimulus,1,448,,,RelaxSession
1624705592.17,fixation,1,448,,,RelaxSession
1624705593.67,stimulus,1,449,,,RelaxSession
1624705594.17,fixation,1,449,,,RelaxSession
1624705595.67,stimulus,1,450,,,RelaxSession
1624705596.17,fixation,1,450,,,RelaxSession
1624705597.67,stimulus,1,451,,,RelaxSession
1624705598.17,fixation,1,451,,,RelaxSession
1624705599.67,stimulus,1,452,,,RelaxSession
1624705600.17,fixation,1,452,,,RelaxSession
1624705601.67,stimulus,1,453,,,RelaxSession
1624705602.17,fixation,1,453,,,RelaxSession
1624705603.67,stimulus,1,454,,,RelaxSession
1624705604.17,fixation,1,454,,,RelaxSession
1624705605.67,stimulus,1,455,,,RelaxSession
1624705606.17,fixation,1,455,,,RelaxSession
1624705607.67,stimulus,1,456,,,RelaxSession
1624705608.17,fixation,1,456,,,RelaxSession
1624705609.67,stimulus,1,457,,,RelaxSession
1624705610.17,fixation,1,457,,,RelaxSession
1624705611.67,stimulus,1,458,,,RelaxSession
1624705612.17,fixation,1,458,,,RelaxSession
1624705613.67,stimulus,1,459,,,RelaxSession
1624705614.17,fixation,1,459,,,RelaxSession
1624705615.67,stimulus,1,460,,,RelaxSession
1624705616.17,fixation,1,460,,,RelaxSession
1624705617.67,stimulus,1,461,,,RelaxSession
1624705618.17,fixation,1,461,,,RelaxSession
1624705619.67,stimulus,1,462,,,RelaxSession
1624705620.17,fixation,1,462,,,RelaxSession
1624705621.67,stimulus,1,463,,,RelaxSession
1624705622.17,fixation,1,463,,,RelaxSession
1624705623.67,stimulus,1,464,,,RelaxSession
1624705624.17,fixation,1,464,,,RelaxSession
1624705625.67,stimulus,1,465,,,RelaxSession
1624705626.17,fixation,1,465,,,RelaxSession
1624705627.67,stimulus,1,466,,,RelaxSession
1624705628.17,fixation,1,466,,,RelaxSession
1624705629.67,stimulus,1,467,,,RelaxSession
1624705630.17,fixation,1,467,,,RelaxSession
1624705631.67,stimulus,1,468,,,RelaxSession
1624705632.17,fixation,1,468,,,RelaxSession
1624705633.67,stimulus,1,469,,,RelaxSession
1624705634.17,fixation,1,469,,,RelaxSession
1624705635.67,stimulus,1,470,,,RelaxSession
1624705636.17,fixation,1,470,,,RelaxSession
1624705637.67,stimulus,1,471,,,RelaxSession
1624705638.17,fixation,1,471,,,RelaxSession
1624705639.67,stimulus,1,472,,,RelaxSession
1624705640.17,fixation,1,472,,,RelaxSession
1624705641.67,stimulus,1,473,,,RelaxSession
1624705642.17,fixation,1,473,,,RelaxSession
1624705643.67,stimulus,1,474,,,RelaxSession
1624705644.17,fixation,1,474,,,RelaxSession
1624705645.67,stimulus,1,475,,,RelaxSession
1624705646.17,fixation,1,475,,,RelaxSession
1624705647.67,stimulus,1,476,,,RelaxSession
1624705648.17,fixation,1,476,,,RelaxSession
1624705649.67,stimulus,1,477,,,RelaxSession
1624705650.17,fixation,1,477,,,RelaxSession
1624705651.67,stimulus,1,478,,,RelaxSession
1624705652.17,fixation,1,478,,,RelaxSession
1624705653.67,stimulus,1,479,,,RelaxSession
1624705654.17,fixation,1,479,,,RelaxSession
1624705655.67,stimulus,1,480,,,RelaxSession
1624705656.17,fixation,1,480,,,RelaxSession
1624705657.67,stimulus,1,481,,,RelaxSession
1624705658.17,fixation,1,481,,,RelaxSession
1624705659.67,stimulus,1,482,,,RelaxSession
1624705660.17,fixation,1,482,,,RelaxSession
1624705661.67,stimulus,1,483,,,RelaxSession
1624705662.17,fixation,1,483,,,RelaxSession
1624705663.67,stimulus,1,484,,,RelaxSession
1624705664.17,fixation,1,484,,,RelaxSession
1624705665.67,stimulus,1,485,,,RelaxSession
1624705666.17,fixation,1,485,,,RelaxSession
1624705667.67,stimulus,1,486,,,RelaxSession
1624705668.17,fixation,1,486,,,RelaxSession
1624705669.67,stimulus,1,487,,,RelaxSession
1624705670.17,fixation,1,487,,,RelaxSession
1624705671.67,stimulus,1,488,,,RelaxSession
1624705672.17,fixation,1,488,,,RelaxSession
1624705673.67,stimulus,1,489,,,RelaxSession
1624705674.17,fixation,1,489,,,RelaxSession
1624705675.67,stimulus,1,490,,,RelaxSession
1624705676.17,fixation,1,490,,,RelaxSession
1624705677.67,stimulus,1,491,,,RelaxSession
1624705678.17,fixation,1,491,,,RelaxSession
1624705679.67,stimulus,1,492,,,RelaxSession
1624705680.17,fixation,1,492,,,RelaxSession
1624705681.67,stimulus,1,493,,,RelaxSession
1624705682.17,fixation,1,493,,,RelaxSession
1624705683.67,stimulus,1,494,,,RelaxSession
1624705684.17,fixation,1,494,,,RelaxSession
1624705685.67,stimulus,1,495,,,RelaxSession
1624705686.17,fixation,1,495,,,RelaxSession
1624705687.67,stimulus,1,496,,,RelaxSession
1624705688.17,fixation,1,496,,,RelaxSession
1624705689.67,stimulus,1,497,,,RelaxSession
1624705690.17,fixation,1,497,,,RelaxSession
1624705691.67,stimulus,1,498,,,RelaxSession
1624705692.17,fixation,1,498,,,RelaxSession
1624705693.67,stimulus,1,499,,,RelaxSession
1624705694.17,fixation,1,499,,,RelaxSession
1624705695.67,stimulus,1,500,,,RelaxSession
1624705696.17,fixation,1,500,,,RelaxSession
1624705697.67,stimulus,1,501,,,RelaxSession
1624705698.17,fixation,1,501,,,RelaxSession
1624705699.67,stimulus,1,502,,,RelaxSession
1624705700.17,fixation,1,502,,,RelaxSession
1624705701.67,stimulus,1,503,,,RelaxSession
1624705702.17,fixation,1,503,,,RelaxSession
1624705703.67,stimulus,1,504,,,RelaxSession
1624705704.17,fixation,1,504,,,RelaxSession
1624705705.67,stimulus,1,505,,,RelaxSession
1624705706.17,fixation,1,505,,,RelaxSession
1624705707.67,stimulus,1,506,,,RelaxSession
1624705708.17,fixation,1,506,,,RelaxSession
1624705709.67,stimulus,1,507,,,RelaxSession
1624705710.17,fixation,1,507,,,RelaxSession
1624705711.67,stimulus,1,508,,,RelaxSession
1624705712.17,fixation,1,508,,,RelaxSession
1624705713.67,stimulus,1,509,,,RelaxSession
1624705714.17,fixation,1,509,,,RelaxSession
1624705715.67,stimulus,1,510,,,RelaxSession
1624705716.17,fixation,1,510,,,RelaxSession
1624705717.67,stimulus,1,511,,,RelaxSession
1624705718.17,fixation,1,511,,,RelaxSession
1624705719.67,stimulus,1,512,,,RelaxSession
1624705720.17,fixation,1,512,,,RelaxSession
1624705721.67,stimulus,1,513,,,RelaxSession
1624705722.17,fixation,1,513,,,RelaxSession
1624705723.67,stimulus,1,514,,,RelaxSession
1624705724.17,fixation,1,514,,,RelaxSession
1624705725.67,stimulus,1,515,,,RelaxSession
1624705726.17,fixation,1,515,,,RelaxSession
1624705727.67,stimulus,1,516,,,RelaxSession
1624705728.17,fixation,1,516,,,RelaxSession
1624705729.67,stimulus,1,517,,,RelaxSession
1624705730.17,fixation,1,517,,,RelaxSession
1624705731.67,stimulus,1,518,,,RelaxSession
1624705732.17,fixation,1,518,,,RelaxSession
1624705733.67,stimulus,1,519,,,RelaxSession
1624705734.17,fixation,1,519,,,RelaxSession
1624705735.67,stimulus,1,520,,,RelaxSession
1624705736.17,fixation,1,520,,,RelaxSession
1624705737.67,stimulus,1,521,,,RelaxSession
1624705738.17,fixation,1,521,,,RelaxSession
1624705739.67,stimulus,1,522,,,RelaxSession
1624705740.17,fixation,1,522,,,RelaxSession
1624705741.67,stimulus,1,523,,,RelaxSession
1624705742.17,fixation,1,523,,,RelaxSession
1624705743.67,stimulus,1,524,,,RelaxSession
1624705744.17,fixation,1,524,,,RelaxSession
1624705745.67,stimulus,1,525,,,RelaxSession
1624705746.17,fixation,1,525,,,RelaxSession
1624705746.61,stimulus,2,1,,,PracticeSession
1624705747.11,fixation,2,1,,,PracticeSession
1624705747.67,stimulus,1,526,,,RelaxSession
1624705748.17,fixation,1,526,,,RelaxSession
1624705748.61,stimulus,2,2,,,PracticeSession
1624705749.11,fixation,2,2,,,PracticeSession
1624705749.67,stimulus,1,527,,,RelaxSession
1624705750.17,fixation,1,527,,,RelaxSession
1624705750.61,stimulus,2,3,,,PracticeSession
1624705751.11,fixation,2,3,,,PracticeSession
1624705751.67,stimulus,1,528,,,RelaxSession
1624705752.17,fixation,1,528,,,RelaxSession
1624705752.61,stimulus,2,4,,,PracticeSession
1624705753.11,fixation,2,4,,,PracticeSession
1624705753.67,stimulus,1,529,,,RelaxSession
1624705754.17,fixation,1,529,,,RelaxSession
1624705754.61,stimulus,2,5,,,PracticeSession
1624705755.11,fixation,2,5,,,PracticeSession
1624705755.67,stimulus,1,530,,,RelaxSession
1624705756.17,fixation,1,530,,,RelaxSession
1624705756.61,stimulus,2,6,,,PracticeSession
1624705757.11,fixation,2,6,,,PracticeSession
1624705757.67,stimulus,1,531,,,RelaxSession
1624705758.17,fixation,1,531,,,RelaxSession
1624705758.61,stimulus,2,7,,,PracticeSession
1624705759.11,fixation,2,7,,,PracticeSession
1624705759.67,stimulus,1,532,,,RelaxSession
1624705760.17,fixation,1,532,,,RelaxSession
1624705760.61,stimulus,2,8,,,PracticeSession
1624705761.11,fixation,2,8,,,PracticeSession
1624705761.67,stimulus,1,533,,,RelaxSession
1624705762.17,fixation,1,533,,,RelaxSession
1624705762.61,stimulus,2,9,,,PracticeSession
1624705763.11,fixation,2,9,,,PracticeSession
1624705763.67,stimulus,1,534,,,RelaxSession
1624705764.17,fixation,1,534,,,RelaxSession
1624705764.61,stimulus,2,10,,,PracticeSession
1624705765.11,fixation,2,10,,,PracticeSession
1624705765.67,stimulus,1,535,,,RelaxSession
1624705766.17,fixation,1,535,,,RelaxSession
1624705766.61,stimulus,2,11,,,PracticeSession
1624705767.11,fixation,2,11,,,PracticeSession
1624705767.67,stimulus,1,536,,,RelaxSession
1624705768.17,fixation,1,536,,,RelaxSession
1624705768.61,stimulus,2,12,,,PracticeSession
1624705769.11,fixation,2,12,,,PracticeSession
1624705769.67,stimulus,1,537,,,RelaxSession
1624705770.17,fixation,1,537,,,RelaxSession
1624705770.61,stimulus,2,13,,,PracticeSession
1624705771.11,fixation,2,13,,,PracticeSession
1624705771.67,stimulus,1,538,,,RelaxSession
1624705772.17,fixation,1,538,,,RelaxSession
1624705772.61,stimulus,2,14,,,PracticeSession
1624705773.11,fixation,2,14,,,PracticeSession
1624705773.67,stimulus,1,539,,,RelaxSession
1624705774.17,fixation,1,539,,,RelaxSession
1624705774.61,stimulus,2,15,,,PracticeSession
1624705775.11,fixation,2,15,,,PracticeSession
1624705775.67,stimulus,1,540,,,RelaxSession
1624705776.17,fixation,1,540,,,RelaxSession
1624705776.61,stimulus,2,16,,,PracticeSession
1624705777.11,fixation,2,16,,,PracticeSession
1624705777.67,stimulus,1,541,,,RelaxSession
1624705778.17,fixation,1,541,,,RelaxSession
1624705778.61,stimulus,2,17,,,PracticeSession
1624705779.11,fixation,2,17,,,PracticeSession
1624705779.67,stimulus,1,542,,,RelaxSession
1624705780.17,fixation,1,542,,,RelaxSession
1624705780.61,stimulus,2,18,,,PracticeSession
1624705781.11,fixation,2,18,,,PracticeSession
1624705781.67,stimulus,1,543,,,RelaxSession
1624705782.17,fixation,1,543,,,RelaxSession
1624705782.61,stimulus,2,19,,,PracticeSession
1624705783.11,fixation,2,19,,,PracticeSession
1624705783.67,stimulus,1,544,,,RelaxSession
1624705784.17,fixation,1,544,,,RelaxSession
1624705784.61,stimulus,2,20,,,PracticeSession
1624705785.11,fixation,2,20,,,PracticeSession
1624705785.67,stimulus,1,545,,,RelaxSession
1624705786.17,fixation,1,545,,,RelaxSession
1624705786.61,stimulus,2,21,,,PracticeSession
1624705787.11,fixation,2,21,,,PracticeSession
1624705787.67,stimulus,1,546,,,RelaxSession
1624705788.17,fixation,1,546,,,RelaxSession
1624705788.61,stimulus,2,22,,,PracticeSession
1624705789.11,fixation,2,22,,,PracticeSession
1624705789.67,stimulus,1,547,,,RelaxSession
1624705790.17,fixation,1,547,,,RelaxSession
1624705790.61,stimulus,2,23,,,PracticeSession
1624705791.11,fixation,2,23,,,PracticeSession
1624705791.67,stimulus,1,548,,,RelaxSession
1624705792.17,fixation,1,548,,,RelaxSession
1624705792.61,stimulus,2,24,,,PracticeSession
1624705793.11,fixation,2,24,,,PracticeSession
1624705793.67,stimulus,1,549,,,RelaxSession
1624705794.17,fixation,1,549,,,RelaxSession
1624705794.61,stimulus,2,25,,,PracticeSession
1624705795.11,fixation,2,25,,,PracticeSession
1624705795.67,stimulus,1,550,,,RelaxSession
1624705796.17,fixation,1,550,,,RelaxSession
1624705796.61,stimulus,2,26,,,PracticeSession
1624705797.11,fixation,2,26,,,PracticeSession
1624705797.67,stimulus,1,551,,,RelaxSession
1624705798.17,fixation,1,551,,,RelaxSession
1624705798.61,stimulus,2,27,,,PracticeSession
1624705799.11,fixation,2,27,,,PracticeSession
1624705799.67,stimulus,1,552,,,RelaxSession
1624705800.17,fixation,1,552,,,RelaxSession
1624705800.61,stimulus,2,28,,,PracticeSession
1624705801.11,fixation,2,28,,,PracticeSession
1624705801.67,stimulus,1,553,,,RelaxSession
1624705802.17,fixation,1,553,,,RelaxSession
1624705802.61,stimulus,2,29,,,PracticeSession
1624705803.11,fixation,2,29,,,PracticeSession
1624705803.67,stimulus,1,554,,,RelaxSession
1624705804.17,fixation,1,554,,,RelaxSession
1624705804.61,stimulus,2,30,,,PracticeSession
1624705805.11,fixation,2,30,,,PracticeSession
1624705805.67,stimulus,1,555,,,RelaxSession
1624705806.17,fixation,1,555,,,RelaxSession
1624705806.61,stimulus,2,31,,,PracticeSession
1624705807.11,fixation,2,31,,,PracticeSession
1624705807.67,stimulus,1,556,,,RelaxSession
1624705808.17,fixation,1,556,,,RelaxSession
1624705808.61,stimulus,2,32,,,PracticeSession
1624705809.11,fixation,2,32,,,PracticeSession
1624705809.67,stimulus,1,557,,,RelaxSession
1624705810.17,fixation,1,557,,,RelaxSession
1624705810.61,stimulus,2,33,,,PracticeSession
1624705811.11,fixation,2,33,,,PracticeSession
1624705811.67,stimulus,1,558,,,RelaxSession
1624705812.17,fixation,1,558,,,RelaxSession
1624705812.61,stimulus,2,34,,,PracticeSession
1624705813.11,fixation,2,34,,,PracticeSession
1624705813.67,stimulus,1,559,,,RelaxSession
1624705814.17,fixation,1,559,,,RelaxSession
1624705814.61,stimulus,2,35,,,PracticeSession
1624705815.11,fixation,2,35,,,PracticeSession
1624705815.67,stimulus,1,560,,,RelaxSession
1624705816.17,fixation,1,560,,,RelaxSession
1624705816.61,stimulus,2,36,,,PracticeSession
1624705817.11,fixation,2,36,,,PracticeSession
1624705817.67,stimulus,1,561,,,RelaxSession
1624705818.17,fixation,1,561,,,RelaxSession
1624705818.61,stimulus,2,37,,,PracticeSession
1624705819.11,fixation,2,37,,,PracticeSession
1624705819.67,stimulus,1,562,,,RelaxSession
1624705820.17,fixation,1,562,,,RelaxSession
1624705820.61,stimulus,2,38,,,PracticeSession
1624705821.11,fixation,2,38,,,PracticeSession
1624705821.67,stimulus,1,563,,,RelaxSession
1624705822.17,fixation,1,563,,,RelaxSession
1624705822.61,stimulus,2,39,,,PracticeSession
1624705823.11,fixation,2,39,,,PracticeSession
1624705823.67,stimulus,1,564,,,RelaxSession
1624705824.17,fixation,1,564,,,RelaxSession
1624705824.61,stimulus,2,40,,,PracticeSession
1624705825.11,fixation,2,40,,,PracticeSession
1624705825.67,stimulus,1,565,,,RelaxSession
1624705826.17,fixation,1,565,,,RelaxSession
1624705826.61,stimulus,2,41,,,PracticeSession
1624705827.11,fixation,2,41,,,PracticeSession
1624705827.67,stimulus,1,566,,,RelaxSession
1624705828.17,fixation,1,566,,,RelaxSession
1624705828.61,stimulus,2,42,,,PracticeSession
1624705829.11,fixation,2,42,,,PracticeSession
1624705829.67,stimulus,1,567,,,RelaxSession
1624705830.17,fixation,1,567,,,RelaxSession
1624705830.61,stimulus,2,43,,,PracticeSession
1624705831.11,fixation,2,43,,,PracticeSession
1624705831.67,stimulus,1,568,,,RelaxSession
1624705832.17,fixation,1,568,,,RelaxSession
1624705832.61,stimulus,2,44,,,PracticeSession
1624705833.11,fixation,2,44,,,PracticeSession
1624705833.67,stimulus,1,569,,,RelaxSession
1624705834.17,fixation,1,569,,,RelaxSession
1624705834.61,stimulus,2,45,,,NoMusic
1624705835.11,fixation,2,45,,,NoMusic
1624705835.67,stimulus,1,570,,,RelaxSession
1624705836.17,fixation,1,570,,,RelaxSession
1624705836.61,stimulus,2,46,,,NoMusic
1624705837.11,fixation,2,46,,,NoMusic
1624705837.67,stimulus,1,571,,,RelaxSession
1624705838.17,fixation,1,571,,,RelaxSession
1624705838.61,stimulus,2,47,,,NoMusic
1624705839.11,fixation,2,47,,,NoMusic
1624705839.67,stimulus,1,572,,,RelaxSession
1624705840.17,fixation,1,572,,,RelaxSession
1624705840.61,stimulus,2,48,,,NoMusic
1624705841.11,fixation,2,48,,,NoMusic
1624705841.67,stimulus,1,573,,,RelaxSession
1624705842.17,fixation,1,573,,,RelaxSession
1624705842.61,stimulus,2,49,,,NoMusic
1624705843.11,fixation,2,49,,,NoMusic
1624705843.67,stimulus,1,574,,,RelaxSession
1624705844.17,fixation,1,574,,,RelaxSession
1624705844.61,stimulus,2,50,,,NoMusic
1624705845.11,fixation,2,50,,,NoMusic
1624705845.67,stimulus,1,575,,,RelaxSession
1624705846.17,fixation,1,575,,,RelaxSession
1624705846.61,stimulus,2,51,,,NoMusic
1624705847.11,fixation,2,51,,,NoMusic
1624705847.67,stimulus,1,576,,,RelaxSession
1624705848.17,fixation,1,576,,,RelaxSession
1624705848.61,stimulus,2,52,,,NoMusic
1624705849.11,fixation,2,52,,,NoMusic
1624705849.67,stimulus,1,577,,,RelaxSession
1624705850.17,fixation,1,577,,,RelaxSession
1624705850.61,stimulus,2,53,,,NoMusic
1624705851.11,fixation,2,53,,,NoMusic
1624705851.67,stimulus,1,578,,,RelaxSession
1624705852.17,fixation,1,578,,,RelaxSession
1624705852.61,stimulus,2,54,,,NoMusic
1624705853.11,fixation,2,54,,,NoMusic
1624705853.67,stimulus,1,579,,,RelaxSession
1624705854.17,fixation,1,579,,,RelaxSession
1624705854.61,stimulus,2,55,,,NoMusic
1624705855.11,fixation,2,55,,,NoMusic
1624705855.67,stimulus,1,580,,,RelaxSession
1624705856.17,fixation,1,580,,,RelaxSession
1624705856.61,stimulus,2,56,,,NoMusic
1624705857.11,fixation,2,56,,,NoMusic
1624705857.67,stimulus,1,581,,,RelaxSession
1624705858.17,fixation,1,581,,,RelaxSession
1624705858.61,stimulus,2,57,,,NoMusic
1624705859.11,fixation,2,57,,,NoMusic
1624705859.67,stimulus,1,582,,,RelaxSession
1624705860.17,fixation,1,582,,,RelaxSession
1624705860.61,stimulus,2,58,,,NoMusic
1624705861.11,fixation,2,58,,,NoMusic
1624705861.67,stimulus,1,583,,,RelaxSession
1624705862.17,fixation,1,583,,,RelaxSession
1624705862.61,stimulus,2,59,,,NoMusic
1624705863.11,fixation,2,59,,,NoMusic
1624705863.67,stimulus,1,584,,,RelaxSession
1624705864.17,fixation,1,584,,,RelaxSession
1624705864.61,stimulus,2,60,,,NoMusic
1624705865.11,fixation,2,60,,,NoMusic
1624705865.67,stimulus,1,585,,,RelaxSession
1624705866.17,fixation,1,585,,,RelaxSession
1624705866.61,stimulus,2,61,,,NoMusic
1624705867.11,fixation,2,61,,,NoMusic
1624705867.67,stimulus,1,586,,,RelaxSession
1624705868.17,fixation,1,586,,,RelaxSession
1624705868.61,stimulus,2,62,,,NoMusic
1624705869.11,fixation,2,62,,,NoMusic
1624705869.67,stimulus,1,587,,,RelaxSession
1624705870.17,fixation,1,587,,,RelaxSession
1624705870.61,stimulus,2,63,,,NoMusic
1624705871.11,fixation,2,63,,,NoMusic
1624705871.67,stimulus,1,588,,,RelaxSession
1624705872.17,fixation,1,588,,,RelaxSession
1624705872.61,stimulus,2,64,,,NoMusic
1624705873.11,fixation,2,64,,,NoMusic
1624705873.67,stimulus,1,589,,,RelaxSession
1624705874.17,fixation,1,589,,,RelaxSession
1624705874.61,stimulus,2,65,,,NoMusic
1624705875.11,fixation,2,65,,,NoMusic
1624705875.67,stimulus,1,590,,,RelaxSession
1624705876.17,fixation,1,590,,,RelaxSession
1624705876.61,stimulus,2,66,,,NoMusic
1624705877.11,fixation,2,66,,,NoMusic
1624705877.67,stimulus,1,591,,,RelaxSession
1624705878.17,fixation,1,591,,,RelaxSession
1624705878.61,stimulus,2,67,,,NoMusic
1624705879.11,fixation,2,67,,,NoMusic
1624705879.67,stimulus,1,592,,,RelaxSession
1624705880.17,fixation,1,592,,,RelaxSession
1624705880.61,stimulus,2,68,,,NoMusic
1624705881.11,fixation,2,68,,,NoMusic
1624705881.67,stimulus,1,593,,,RelaxSession
1624705882.17,fixation,1,593,,,RelaxSession
1624705882.61,stimulus,2,69,,,NoMusic
1624705883.11,fixation,2,69,,,NoMusic
1624705883.67,stimulus,1,594,,,RelaxSession
1624705884.17,fixation,1,594,,,RelaxSession
1624705884.61,stimulus,2,70,,,NoMusic
1624705885.11,fixation,2,70,,,NoMusic
1624705885.67,stimulus,1,595,,,RelaxSession
1624705886.17,fixation,1,595,,,RelaxSession
1624705886.61,stimulus,2,71,,,NoMusic
1624705887.11,fixation,2,71,,,NoMusic
1624705887.67,stimulus,1,596,,,RelaxSession
1624705888.17,fixation,1,596,,,RelaxSession
1624705888.61,stimulus,2,72,,,NoMusic
1624705889.11,fixation,2,72,,,NoMusic
1624705889.67,stimulus,1,597,,,RelaxSession
1624705890.17,fixation,1,597,,,RelaxSession
1624705890.61,stimulus,2,73,,,NoMusic
1624705891.11,fixation,2,73,,,NoMusic
1624705891.67,stimulus,1,598,,,RelaxSession
1624705892.17,fixation,1,598,,,RelaxSession
1624705892.61,stimulus,2,74,,,NoMusic
1624705893.11,fixation,2,74,,,NoMusic
1624705893.67,stimulus,1,599,,,RelaxSession
1624705894.17,fixation,1,599,,,RelaxSession
1624705894.61,stimulus,2,75,,,NoMusic
1624705895.11,fixation,2,75,,,NoMusic
1624705895.67,stimulus,1,600,,,RelaxSession
1624705896.17,fixation,1,600,,,RelaxSession
1624705896.61,stimulus,2,76,,,NoMusic
1624705897.11,fixation,2,76,,,NoMusic
1624705897.67,stimulus,1,601,,,RelaxSession
1624705898.17,fixation,1,601,,,RelaxSession
1624705898.61,stimulus,2,77,,,NoMusic
1624705899.11,fixation,2,77,,,NoMusic
1624705899.67,stimulus,1,602,,,RelaxSession
1624705900.17,fixation,1,602,,,RelaxSession
1624705900.61,stimulus,2,78,,,NoMusic
1624705901.11,fixation,2,78,,,NoMusic
1624705901.67,stimulus,1,603,,,RelaxSession
1624705902.17,fixation,1,603,,,RelaxSession
1624705902.61,stimulus,2,79,,,NoMusic
1624705903.11,fixation,2,79,,,NoMusic
1624705903.67,stimulus,1,604,,,RelaxSession
1624705904.17,fixation,1,604,,,RelaxSession
1624705904.61,stimulus,2,80,,,NoMusic
1624705905.11,fixation,2,80,,,NoMusic
1624705905.67,stimulus,1,605,,,RelaxSession
1624705906.17,fixation,1,605,,,RelaxSession
1624705906.61,stimulus,2,81,,,NoMusic
1624705907.11,fixation,2,81,,,NoMusic
1624705907.67,stimulus,1,606,,,RelaxSession
1624705908.17,fixation,1,606,,,RelaxSession
1624705908.61,stimulus,2,82,,,NoMusic
1624705909.11,fixation,2,82,,,NoMusic
1624705909.67,stimulus,1,607,,,RelaxSession
1624705910.17,fixation,1,607,,,RelaxSession
1624705910.61,stimulus,2,83,,,NoMusic
1624705911.11,fixation,2,83,,,NoMusic
1624705911.67,stimulus,1,608,,,RelaxSession
1624705912.17,fixation,1,608,,,RelaxSession
1624705912.61,stimulus,2,84,,,NoMusic
1624705913.11,fixation,2,84,,,NoMusic
1624705913.67,stimulus,1,609,,,RelaxSession
1624705914.17,fixation,1,609,,,RelaxSession
1624705914.61,stimulus,2,85,,,NoMusic
1624705915.11,fixation,2,85,,,NoMusic
1624705915.67,stimulus,1,610,,,RelaxSession
1624705916.17,fixation,1,610,,,RelaxSession
1624705916.61,stimulus,2,86,,,NoMusic
1624705917.11,fixation,2,86,,,NoMusic
1624705917.67,stimulus,1,611,,,RelaxSession
1624705918.17,fixation,1,611,,,RelaxSession
1624705918.61,stimulus,2,87,,,NoMusic
1624705919.11,fixation,2,87,,,NoMusic
1624705919.67,stimulus,1,612,,,RelaxSession
1624705920.17,fixation,1,612,,,RelaxSession
1624705920.61,stimulus,2,88,,,NoMusic
1624705921.11,fixation,2,88,,,NoMusic
1624705921.67,stimulus,1,613,,,RelaxSession
1624705922.17,fixation,1,613,,,RelaxSession
1624705922.61,stimulus,2,89,,,NoMusic
1624705923.11,fixation,2,89,,,NoMusic
1624705923.67,stimulus,1,614,,,RelaxSession
1624705924.17,fixation,1,614,,,RelaxSession
1624705924.61,stimulus,2,90,,,NoMusic
1624705925.11,fixation,2,90,,,NoMusic
1624705925.67,stimulus,1,615,,,RelaxSession
1624705926.17,fixation,1,615,,,RelaxSession
1624705926.61,stimulus,2,91,,,NoMusic
1624705927.11,fixation,2,91,,,NoMusic
1624705927.67,stimulus,1,616,,,RelaxSession
1624705928.17,fixation,1,616,,,RelaxSession
1624705928.61,stimulus,2,92,,,NoMusic
1624705929.11,fixation,2,92,,,NoMusic
1624705929.67,stimulus,1,617,,,RelaxSession
1624705930.17,fixation,1,617,,,RelaxSession
1624705930.61,stimulus,2,93,,,NoMusic
1624705930.89,stimulus,3,1,,,PracticeSession
1624705931.11,fixation,2,93,,,NoMusic
1624705931.39,fixation,3,1,,,PracticeSession
1624705931.67,stimulus,1,618,,,RelaxSession
1624705932.17,fixation,1,618,,,RelaxSession
1624705932.61,stimulus,2,94,,,NoMusic
1624705932.89,stimulus,3,2,,,PracticeSession
1624705933.11,fixation,2,94,,,NoMusic
1624705933.39,fixation,3,2,,,PracticeSession
1624705933.67,stimulus,1,619,,,RelaxSession
1624705934.17,fixation,1,619,,,RelaxSession
1624705934.61,stimulus,2,95,,,NoMusic
1624705934.89,stimulus,3,3,,,PracticeSession
1624705935.11,fixation,2,95,,,NoMusic
1624705935.39,fixation,3,3,,,PracticeSession
1624705935.67,stimulus,1,620,,,RelaxSession
1624705936.17,fixation,1,620,,,RelaxSession
1624705936.61,stimulus,2,96,,,NoMusic
1624705936.89,stimulus,3,4,,,PracticeSession
1624705937.11,fixation,2,96,,,NoMusic
1624705937.39,fixation,3,4,,,PracticeSession
1624705937.67,stimulus,1,621,,,RelaxSession
1624705938.17,fixation,1,621,,,RelaxSession
1624705938.61,stimulus,2,97,,,NoMusic
1624705938.89,stimulus,3,5,,,PracticeSession
1624705939.11,fixation,2,97,,,NoMusic
1624705939.39,fixation,3,5,,,PracticeSession
1624705939.67,stimulus,1,622,,,RelaxSession
1624705940.17,fixation,1,622,,,RelaxSession
1624705940.61,stimulus,2,98,,,NoMusic
1624705940.89,stimulus,3,6,,,PracticeSession
1624705941.11,fixation,2,98,,,NoMusic
1624705941.39,fixation,3,6,,,PracticeSession
1624705941.67,stimulus,1,623,,,RelaxSession
1624705942.17,fixation,1,623,,,RelaxSession
1624705942.61,stimulus,2,99,,,NoMusic
1624705942.89,stimulus,3,7,,,PracticeSession
1624705943.11,fixation,2,99,,,NoMusic
1624705943.39,fixation,3,7,,,PracticeSession
1624705943.67,stimulus,1,624,,,RelaxSession
1624705944.17,fixation,1,624,,,RelaxSession
1624705944.61,stimulus,2,100,,,NoMusic
1624705944.89,stimulus,3,8,,,PracticeSession
1624705945.11,fixation,2,100,,,NoMusic
1624705945.39,fixation,3,8,,,PracticeSession
1624705945.67,stimulus,1,625,,,RelaxSession
1624705946.17,fixation,1,625,,,RelaxSession
1624705946.61,stimulus,2,101,,,NoMusic
1624705946.89,stimulus,3,9,,,PracticeSession
1624705947.11,fixation,2,101,,,NoMusic
1624705947.39,fixation,3,9,,,PracticeSession
1624705947.67,stimulus,1,626,,,RelaxSession
1624705948.17,fixation,1,626,,,RelaxSession
1624705948.61,stimulus,2,102,,,NoMusic
1624705948.89,stimulus,3,10,,,PracticeSession
1624705949.11,fixation,2,102,,,NoMusic
1624705949.39,fixation,3,10,,,PracticeSession
1624705949.67,stimulus,1,627,,,RelaxSession
1624705950.17,fixation,1,627,,,RelaxSession
1624705950.61,stimulus,2,103,,,NoMusic
1624705950.89,stimulus,3,11,,,PracticeSession
1624705951.11,fixation,2,103,,,NoMusic
1624705951.39,fixation,3,11,,,PracticeSession
1624705951.67,stimulus,1,628,,,RelaxSession
1624705952.17,fixation,1,628,,,RelaxSession
1624705952.61,stimulus,2,104,,,NoMusic
1624705952.89,stimulus,3,12,,,PracticeSession
1624705953.11,fixation,2,104,,,NoMusic
1624705953.39,fixation,3,12,,,PracticeSession
1624705953.67,stimulus,1,629,,,RelaxSession
1624705954.17,fixation,1,629,,,RelaxSession
1624705954.61,stimulus,2,105,,,NoMusic
1624705954.89,stimulus,3,13,,,PracticeSession
1624705955.11,fixation,2,105,,,NoMusic
1624705955.39,fixation,3,13,,,PracticeSession
1624705955.67,stimulus,1,630,,,RelaxSession
1624705956.17,fixation,1,630,,,RelaxSession
1624705956.61,stimulus,2,106,,,NoMusic
1624705956.89,stimulus,3,14,,,PracticeSession
1624705957.11,fixation,2,106,,,NoMusic
1624705957.39,fixation,3,14,,,PracticeSession
1624705957.67,stimulus,1,631,,,RelaxSession
1624705958.17,fixation,1,631,,,RelaxSession
1624705958.61,stimulus,2,107,,,NoMusic
1624705958.89,stimulus,3,15,,,PracticeSession
1624705959.11,fixation,2,107,,,NoMusic
1624705959.39,fixation,3,15,,,PracticeSession
1624705959.67,stimulus,1,632,,,RelaxSession
1624705960.17,fixation,1,632,,,RelaxSession
1624705960.61,stimulus,2,108,,,NoMusic
1624705960.89,stimulus,3,16,,,PracticeSession
1624705961.11,fixation,2,108,,,NoMusic
1624705961.39,fixation,3,16,,,PracticeSession
1624705961.67,stimulus,1,633,,,RelaxSession
1624705962.17,fixation,1,633,,,RelaxSession
1624705962.61,stimulus,2,109,,,NoMusic
1624705962.89,stimulus,3,17,,,PracticeSession
1624705963.11,fixation,2,109,,,NoMusic
1624705963.39,fixation,3,17,,,PracticeSession
1624705963.67,stimulus,1,634,,,RelaxSession
1624705964.17,fixation,1,634,,,RelaxSession
1624705964.61,stimulus,2,110,,,NoMusic
1624705964.89,stimulus,3,18,,,PracticeSession
1624705965.11,fixation,2,110,,,NoMusic
1624705965.39,fixation,3,18,,,PracticeSession
1624705965.67,stimulus,1,635,,,RelaxSession
1624705966.17,fixation,1,635,,,RelaxSession
1624705966.61,stimulus,2,111,,,NoMusic
1624705966.89,stimulus,3,19,,,PracticeSession
1624705967.11,fixation,2,111,,,NoMusic
1624705967.39,fixation,3,19,,,PracticeSession
1624705967.67,stimulus,1,636,,,RelaxSession
1624705968.17,fixation,1,636,,,RelaxSession
1624705968.61,stimulus,2,112,,,NoMusic
1624705968.89,stimulus,3,20,,,PracticeSession
1624705969.11,fixation,2,112,,,NoMusic
1624705969.39,fixation,3,20,,,PracticeSession
1624705969.67,stimulus,1,637,,,RelaxSession
1624705970.17,fixation,1,637,,,RelaxSession
1624705970.61,stimulus,2,113,,,NoMusic
1624705970.89,stimulus,3,21,,,PracticeSession
1624705971.11,fixation,2,113,,,NoMusic
1624705971.39,fixation,3,21,,,PracticeSession
1624705971.67,stimulus,1,638,,,RelaxSession
1624705972.17,fixation,1,638,,,RelaxSession
1624705972.61,stimulus,2,114,,,NoMusic
1624705972.89,stimulus,3,22,,,PracticeSession
1624705973.11,fixation,2,114,,,NoMusic
1624705973.39,fixation,3,22,,,PracticeSession
1624705973.67,stimulus,1,639,,,RelaxSession
1624705974.17,fixation,1,639,,,RelaxSession
1624705974.61,stimulus,2,115,,,NoMusic
1624705974.89,stimulus,3,23,,,PracticeSession
1624705975.11,fixation,2,115,,,NoMusic
1624705975.39,fixation,3,23,,,PracticeSession
1624705975.67,stimulus,1,640,,,RelaxSession
1624705976.17,fixation,1,640,,,RelaxSession
1624705976.61,stimulus,2,116,,,NoMusic
1624705976.89,stimulus,3,24,,,PracticeSession
1624705977.11,fixation,2,116,,,NoMusic
1624705977.39,fixation,3,24,,,PracticeSession
1624705977.67,stimulus,1,641,,,RelaxSession
1624705978.17,fixation,1,641,,,RelaxSession
1624705978.61,stimulus,2,117,,,NoMusic
1624705978.89,stimulus,3,25,,,PracticeSession
1624705979.11,fixation,2,117,,,NoMusic
1624705979.39,fixation,3,25,,,PracticeSession
1624705979.67,stimulus,1,642,,,RelaxSession
1624705980.17,fixation,1,642,,,RelaxSession
1624705980.61,stimulus,2,118,,,NoMusic
1624705980.89,stimulus,3,26,,,PracticeSession
1624705981.11,fixation,2,118,,,NoMusic
1624705981.39,fixation,3,26,,,PracticeSession
1624705981.67,stimulus,1,643,,,RelaxSession
1624705982.17,fixation,1,643,,,RelaxSession
1624705982.61,stimulus,2,119,,,NoMusic
1624705982.89,stimulus,3,27,,,PracticeSession
1624705983.11,fixation,2,119,,,NoMusic
1624705983.39,fixation,3,27,,,PracticeSession
1624705983.67,stimulus,1,644,,,RelaxSession
1624705984.17,fixation,1,644,,,RelaxSession
1624705984.61,stimulus,2,120,,,NoMusic
1624705984.89,stimulus,3,28,,,PracticeSession
1624705985.11,fixation,2,120,,,NoMusic
1624705985.39,fixation,3,28,,,PracticeSession
1624705985.67,stimulus,1,645,,,RelaxSession
1624705986.17,fixation,1,645,,,RelaxSession
1624705986.61,stimulus,2,121,,,NoMusic
1624705986.89,stimulus,3,29,,,PracticeSession
1624705987.11,fixation,2,121,,,NoMusic
1624705987.39,fixation,3,29,,,PracticeSession
1624705987.67,stimulus,1,646,,,RelaxSession
1624705988.17,fixation,1,646,,,RelaxSession
1624705988.61,stimulus,2,122,,,NoMusic
1624705988.89,stimulus,3,30,,,PracticeSession
1624705989.11,fixation,2,122,,,NoMusic
1624705989.39,fixation,3,30,,,PracticeSession
1624705989.67,stimulus,1,647,,,RelaxSession
1624705990.17,fixation,1,647,,,RelaxSession
1624705990.61,stimulus,2,123,,,NoMusic
1624705990.89,stimulus,3,31,,,PracticeSession
1624705991.11,fixation,2,123,,,NoMusic
1624705991.39,fixation,3,31,,,PracticeSession
1624705991.67,stimulus,1,648,,,RelaxSession
1624705992.17,fixation,1,648,,,RelaxSession
1624705992.61,stimulus,2,124,,,NoMusic
1624705992.89,stimulus,3,32,,,PracticeSession
1624705993.11,fixation,2,124,,,NoMusic
1624705993.39,fixation,3,32,,,PracticeSession
1624705993.67,stimulus,1,649,,,RelaxSession
1624705994.17,fixation,1,649,,,RelaxSession
1624705994.61,stimulus,2,125,,,NoMusic
1624705994.89,stimulus,3,33,,,PracticeSession
1624705995.11,fixation,2,125,,,NoMusic
1624705995.39,fixation,3,33,,,PracticeSession
1624705995.67,stimulus,1,650,,,RelaxSession
1624705996.17,fixation,1,650,,,RelaxSession
1624705996.61,stimulus,2,126,,,NoMusic
1624705996.89,stimulus,3,34,,,PracticeSession
1624705997.11,fixation,2,126,,,NoMusic
1624705997.39,fixation,3,34,,,PracticeSession
1624705997.67,stimulus,1,651,,,RelaxSession
1624705998.17,fixation,1,651,,,RelaxSession
1624705998.61,stimulus,2,127,,,NoMusic
1624705998.89,stimulus,3,35,,,PracticeSession
1624705999.11,fixation,2,127,,,NoMusic
1624705999.39,fixation,3,35,,,PracticeSession
1624705999.67,stimulus,1,652,,,RelaxSession
1624706000.17,fixation,1,652,,,RelaxSession
1624706000.61,stimulus,2,128,,,NoMusic
1624706000.89,stimulus,3,36,,,PracticeSession
1624706001.11,fixation,2,128,,,NoMusic
1624706001.39,fixation,3,36,,,PracticeSession
1624706001.67,stimulus,1,653,,,RelaxSession
1624706002.17,fixation,1,653,,,RelaxSession
1624706002.61,stimulus,2,129,,,NoMusic
1624706002.89,stimulus,3,37,,,PracticeSession
1624706003.11,fixation,2,129,,,NoMusic
1624706003.39,fixation,3,37,,,PracticeSession
1624706003.67,stimulus,1,654,,,RelaxSession
1624706004.17,fixation,1,654,,,RelaxSession
1624706004.61,stimulus,2,130,,,NoMusic
1624706004.89,stimulus,3,38,,,PracticeSession
1624706005.11,fixation,2,130,,,NoMusic
1624706005.39,fixation,3,38,,,PracticeSession
1624706005.67,stimulus,1,655,,,RelaxSession
1624706006.17,fixation,1,655,,,RelaxSession
1624706006.61,stimulus,2,131,,,NoMusic
1624706006.89,stimulus,3,39,,,PracticeSession
1624706007.11,fixation,2,131,,,NoMusic
1624706007.39,fixation,3,39,,,PracticeSession
1624706007.67,stimulus,1,656,,,RelaxSession
1624706008.17,fixation,1,656,,,RelaxSession
1624706008.61,stimulus,2,132,,,NoMusic
1624706008.89,stimulus,3,40,,,PracticeSession
1624706009.11,fixation,2,132,,,NoMusic
1624706009.39,fixation,3,40,,,PracticeSession
1624706009.67,stimulus,1,657,,,RelaxSession
1624706010.17,fixation,1,657,,,RelaxSession
1624706010.61,stimulus,2,133,,,NoMusic
1624706010.89,stimulus,3,41,,,PracticeSession
1624706011.11,fixation,2,133,,,NoMusic
1624706011.39,fixation,3,41,,,PracticeSession
1624706011.67,stimulus,1,658,,,RelaxSession
1624706012.17,fixation,1,658,,,RelaxSession
1624706012.61,stimulus,2,134,,,NoMusic
1624706012.89,stimulus,3,42,,,PracticeSession
1624706013.11,fixation,2,134,,,NoMusic
1624706013.39,fixation,3,42,,,PracticeSession
1624706013.67,stimulus,1,659,,,RelaxSession
1624706014.17,fixation,1,659,,,RelaxSession
1624706014.61,stimulus,2,135,,,NoMusic
1624706014.89,stimulus,3,43,,,PracticeSession
1624706015.11,fixation,2,135,,,NoMusic
1624706015.39,fixation,3,43,,,PracticeSession
1624706015.67,stimulus,1,660,,,RelaxSession
1624706016.17,fixation,1,660,,,RelaxSession
1624706016.61,stimulus,2,136,,,NoMusic
1624706016.89,stimulus,3,44,,,PracticeSession
1624706017.11,fixation,2,136,,,NoMusic
1624706017.39,fixation,3,44,,,PracticeSession
1624706017.67,stimulus,1,661,,,RelaxSession
1624706018.17,fixation,1,661,,,RelaxSession
1624706018.61,stimulus,2,137,,,NoMusic
1624706018.89,stimulus,3,45,,,NoMusic
1624706019.11,fixation,2,137,,,NoMusic
1624706019.39,fixation,3,45,,,NoMusic
1624706019.67,stimulus,1,662,,,RelaxSession
1624706020.17,fixation,1,662,,,RelaxSession
1624706020.61,stimulus,2,138,,,NoMusic
1624706020.89,stimulus,3,46,,,NoMusic
1624706021.11,fixation,2,138,,,NoMusic
1624706021.39,fixation,3,46,,,NoMusic
1624706021.67,stimulus,1,663,,,RelaxSession
1624706022.17,fixation,1,663,,,RelaxSession
1624706022.61,stimulus,2,139,,,NoMusic
1624706022.89,stimulus,3,47,,,NoMusic
1624706023.11,fixation,2,139,,,NoMusic
1624706023.39,fixation,3,47,,,NoMusic
1624706023.67,stimulus,1,664,,,RelaxSession
1624706024.17,fixation,1,664,,,RelaxSession
1624706024.61,stimulus,2,140,,,NoMusic
1624706024.89,stimulus,3,48,,,NoMusic
1624706025.11,fixation,2,140,,,NoMusic
1624706025.39,fixation,3,48,,,NoMusic
1624706025.67,stimulus,1,665,,,RelaxSession
1624706026.17,fixation,1,665,,,RelaxSession
1624706026.61,stimulus,2,141,,,NoMusic
1624706026.89,stimulus,3,49,,,NoMusic
1624706027.11,fixation,2,141,,,NoMusic
1624706027.39,fixation,3,49,,,NoMusic
1624706027.67,stimulus,1,666,,,RelaxSession
1624706028.17,fixation,1,666,,,RelaxSession
1624706028.61,stimulus,2,142,,,NoMusic
1624706028.89,stimulus,3,50,,,NoMusic
1624706029.11,fixation,2,142,,,NoMusic
1624706029.39,fixation,3,50,,,NoMusic
1624706029.67,stimulus,1,667,,,RelaxSession
1624706030.17,fixation,1,667,,,RelaxSession
1624706030.61,stimulus,2,143,,,NoMusic
1624706030.89,stimulus,3,51,,,NoMusic
1624706031.11,fixation,2,143,,,NoMusic
1624706031.39,fixation,3,51,,,NoMusic
1624706031.67,stimulus,1,668,,,RelaxSession
1624706032.17,fixation,1,668,,,RelaxSession
1624706032.61,stimulus,2,144,,,NoMusic
1624706032.89,stimulus,3,52,,,NoMusic
1624706033.11,fixation,2,144,,,NoMusic
1624706033.39,fixation,3,52,,,NoMusic
1624706033.67,stimulus,1,669,,,RelaxSession
1624706034.17,fixation,1,669,,,RelaxSession
1624706034.61,stimulus,2,145,,,NoMusic
1624706034.89,stimulus,3,53,,,NoMusic
1624706035.11,fixation,2,145,,,NoMusic
1624706035.39,fixation,3,53,,,NoMusic
1624706035.67,stimulus,1,670,,,RelaxSession
1624706036.17,fixation,1,670,,,RelaxSession
1624706036.61,stimulus,2,146,,,NoMusic
1624706036.89,stimulus,3,54,,,NoMusic
1624706037.11,fixation,2,146,,,NoMusic
1624706037.39,fixation,3,54,,,NoMusic
1624706037.67,stimulus,1,671,,,RelaxSession
1624706038.17,fixation,1,671,,,RelaxSession
1624706038.61,stimulus,2,147,,,NoMusic
1624706038.89,stimulus,3,55,,,NoMusic
1624706039.11,fixation,2,147,,,NoMusic
1624706039.39,fixation,3,55,,,NoMusic
1624706039.67,stimulus,1,672,,,RelaxSession
1624706040.17,fixation,1,672,,,RelaxSession
1624706040.61,stimulus,2,148,,,NoMusic
1624706040.89,stimulus,3,56,,,NoMusic
1624706041.11,fixation,2,148,,,NoMusic
1624706041.39,fixation,3,56,,,NoMusic
1624706041.67,stimulus,1,673,,,RelaxSession
1624706042.17,fixation,1,673,,,RelaxSession
1624706042.61,stimulus,2,149,,,NoMusic
1624706042.89,stimulus,3,57,,,NoMusic
1624706043.11,fixation,2,149,,,NoMusic
1624706043.39,fixation,3,57,,,NoMusic
1624706043.67,stimulus,1,674,,,RelaxSession
1624706044.17,fixation,1,674,,,RelaxSession
1624706044.61,stimulus,2,150,,,NoMusic
1624706044.89,stimulus,3,58,,,NoMusic
1624706045.11,fixation,2,150,,,NoMusic
1624706045.39,fixation,3,58,,,NoMusic
1624706045.67,stimulus,1,675,,,RelaxSession
1624706046.17,fixation,1,675,,,RelaxSession
1624706046.61,stimulus,2,151,,,NoMusic
1624706046.89,stimulus,3,59,,,NoMusic
1624706047.11,fixation,2,151,,,NoMusic
1624706047.39,fixation,3,59,,,NoMusic
1624706047.67,stimulus,1,676,,,RelaxSession
1624706048.17,fixation,1,676,,,RelaxSession
1624706048.61,stimulus,2,152,,,NoMusic
1624706048.89,stimulus,3,60,,,NoMusic
1624706049.11,fixation,2,152,,,NoMusic
1624706049.39,fixation,3,60,,,NoMusic
1624706049.67,stimulus,1,677,,,RelaxSession
1624706050.17,fixation,1,677,,,RelaxSession
1624706050.61,stimulus,2,153,,,NoMusic
1624706050.89,stimulus,3,61,,,NoMusic
1624706051.11,fixation,2,153,,,NoMusic
1624706051.39,fixation,3,61,,,NoMusic
1624706051.67,stimulus,1,678,,,RelaxSession
1624706052.17,fixation,1,678,,,RelaxSession
1624706052.61,stimulus,2,154,,,NoMusic
1624706052.89,stimulus,3,62,,,NoMusic
1624706053.11,fixation,2,154,,,NoMusic
1624706053.39,fixation,3,62,,,NoMusic
1624706053.67,stimulus,1,679,,,RelaxSession
1624706054.17,fixation,1,679,,,RelaxSession
1624706054.61,stimulus,2,155,,,NoMusic
1624706054.89,stimulus,3,63,,,NoMusic
1624706055.11,fixation,2,155,,,NoMusic
1624706055.39,fixation,3,63,,,NoMusic
1624706055.67,stimulus,1,680,,,RelaxSession
1624706056.17,fixation,1,680,,,RelaxSession
1624706056.61,stimulus,2,156,,,NoMusic
1624706056.89,stimulus,3,64,,,NoMusic
1624706057.11,fixation,2,156,,,NoMusic
1624706057.39,fixation,3,64,,,NoMusic
1624706057.67,stimulus,1,681,,,RelaxSession
1624706058.17,fixation,1,681,,,RelaxSession
1624706058.61,stimulus,2,157,,,NoMusic
1624706058.89,stimulus,3,65,,,NoMusic
1624706059.11,fixation,2,157,,,NoMusic
1624706059.39,fixation,3,65,,,NoMusic
1624706059.67,stimulus,1,682,,,RelaxSession
1624706060.17,fixation,1,682,,,RelaxSession
1624706060.61,stimulus,2,158,,,NoMusic
1624706060.89,stimulus,3,66,,,NoMusic
1624706061.11,fixation,2,158,,,NoMusic
1624706061.39,fixation,3,66,,,NoMusic
1624706061.67,stimulus,1,683,,,RelaxSession
1624706062.17,fixation,1,683,,,RelaxSession
1624706062.61,stimulus,2,159,,,NoMusic
1624706062.89,stimulus,3,67,,,NoMusic
1624706063.11,fixation,2,159,,,NoMusic
1624706063.39,fixation,3,67,,,NoMusic
1624706063.67,stimulus,1,684,,,RelaxSession
1624706064.17,fixation,1,684,,,RelaxSession
1624706064.61,stimulus,2,160,,,NoMusic
1624706064.89,stimulus,3,68,,,NoMusic
1624706065.11,fixation,2,160,,,NoMusic
1624706065.39,fixation,3,68,,,NoMusic
1624706065.67,stimulus,1,685,,,RelaxSession
1624706066.17,fixation,1,685,,,RelaxSession
1624706066.61,stimulus,2,161,,,NoMusic
1624706066.89,stimulus,3,69,,,NoMusic
1624706067.11,fixation,2,161,,,NoMusic
1624706067.39,fixation,3,69,,,NoMusic
1624706067.67,stimulus,1,686,,,RelaxSession
1624706068.17,fixation,1,686,,,RelaxSession
1624706068.61,stimulus,2,162,,,NoMusic
1624706068.89,stimulus,3,70,,,NoMusic
1624706069.11,fixation,2,162,,,NoMusic
1624706069.39,fixation,3,70,,,NoMusic
1624706069.67,stimulus,1,687,,,RelaxSession
1624706070.17,fixation,1,687,,,RelaxSession
1624706070.61,stimulus,2,163,,,NoMusic
1624706070.89,stimulus,3,71,,,NoMusic
1624706071.11,fixation,2,163,,,NoMusic
1624706071.39,fixation,3,71,,,NoMusic
1624706071.67,stimulus,1,688,,,RelaxSession
1624706072.17,fixation,1,688,,,RelaxSession
1624706072.61,stimulus,2,164,,,NoMusic
1624706072.89,stimulus,3,72,,,NoMusic
1624706073.11,fixation,2,164,,,NoMusic
1624706073.39,fixation,3,72,,,NoMusic
1624706073.67,stimulus,1,689,,,RelaxSession
1624706074.17,fixation,1,689,,,RelaxSession
1624706074.61,stimulus,2,165,,,NoMusic
1624706074.89,stimulus,3,73,,,NoMusic
1624706075.11,fixation,2,165,,,NoMusic
1624706075.39,fixation,3,73,,,NoMusic
1624706075.67,stimulus,1,690,,,RelaxSession
1624706076.17,fixation,1,690,,,RelaxSession
1624706076.61,stimulus,2,166,,,NoMusic
1624706076.89,stimulus,3,74,,,NoMusic
1624706077.11,fixation,2,166,,,NoMusic
1624706077.39,fixation,3,74,,,NoMusic
1624706077.67,stimulus,1,691,,,RelaxSession
1624706078.17,fixation,1,691,,,RelaxSession
1624706078.61,stimulus,2,167,,,NoMusic
1624706078.89,stimulus,3,75,,,NoMusic
1624706079.11,fixation,2,167,,,NoMusic
1624706079.39,fixation,3,75,,,NoMusic
1624706079.67,stimulus,1,692,,,RelaxSession
1624706080.17,fixation,1,692,,,RelaxSession
1624706080.61,stimulus,2,168,,,NoMusic
1624706080.89,stimulus,3,76,,,NoMusic
1624706081.11,fixation,2,168,,,NoMusic
1624706081.39,fixation,3,76,,,NoMusic
1624706081.67,stimulus,1,693,,,RelaxSession
1624706082.17,fixation,1,693,,,RelaxSession
1624706082.61,stimulus,2,169,,,NoMusic
1624706082.89,stimulus,3,77,,,NoMusic
1624706083.11,fixation,2,169,,,NoMusic
1624706083.39,fixation,3,77,,,NoMusic
1624706083.67,stimulus,1,694,,,RelaxSession
1624706084.17,fixation,1,694,,,RelaxSession
1624706084.61,stimulus,2,170,,,NoMusic
1624706084.89,stimulus,3,78,,,NoMusic
1624706085.11,fixation,2,170,,,NoMusic
1624706085.39,fixation,3,78,,,NoMusic
1624706085.67,stimulus,1,695,,,RelaxSession
1624706086.17,fixation,1,695,,,RelaxSession
1624706086.61,stimulus,2,171,,,NoMusic
1624706086.89,stimulus,3,79,,,NoMusic
1624706087.11,fixation,2,171,,,NoMusic
1624706087.39,fixation,3,79,,,NoMusic
1624706087.67,stimulus,1,696,,,RelaxSession
1624706088.17,fixation,1,696,,,RelaxSession
1624706088.61,stimulus,2,172,,,NoMusic
1624706088.89,stimulus,3,80,,,NoMusic
1624706089.11,fixation,2,172,,,NoMusic
1624706089.39,fixation,3,80,,,NoMusic
1624706089.67,stimulus,1,697,,,RelaxSession
1624706090.17,fixation,1,697,,,RelaxSession
1624706090.61,stimulus,2,173,,,NoMusic
1624706090.89,stimulus,3,81,,,NoMusic
1624706091.11,fixation,2,173,,,NoMusic
1624706091.39,fixation,3,81,,,NoMusic
1624706091.67,stimulus,1,698,,,RelaxSession
1624706092.17,fixation,1,698,,,RelaxSession
1624706092.61,stimulus,2,174,,,NoMusic
1624706092.89,stimulus,3,82,,,NoMusic
1624706093.11,fixation,2,174,,,NoMusic
1624706093.39,fixation,3,82,,,NoMusic
1624706093.67,stimulus,1,699,,,RelaxSession
1624706094.17,fixation,1,699,,,RelaxSession
1624706094.61,stimulus,2,175,,,NoMusic
1624706094.89,stimulus,3,83,,,NoMusic
1624706095.11,fixation,2,175,,,NoMusic
1624706095.39,fixation,3,83,,,NoMusic
1624706095.67,stimulus,1,700,,,RelaxSession
1624706096.17,fixation,1,700,,,RelaxSession
1624706096.61,stimulus,2,176,,,NoMusic
1624706096.89,stimulus,3,84,,,NoMusic
1624706097.11,fixation,2,176,,,NoMusic
1624706097.39,fixation,3,84,,,NoMusic
1624706097.67,stimulus,1,701,,,RelaxSession
1624706098.17,fixation,1,701,,,RelaxSession
1624706098.61,stimulus,2,177,,,NoMusic
1624706098.89,stimulus,3,85,,,NoMusic
1624706099.11,fixation,2,177,,,NoMusic
1624706099.39,fixation,3,85,,,NoMusic
1624706099.67,stimulus,1,702,,,RelaxSession
1624706100.17,fixation,1,702,,,RelaxSession
1624706100.61,stimulus,2,178,,,NoMusic
1624706100.89,stimulus,3,86,,,NoMusic
1624706101.11,fixation,2,178,,,NoMusic
1624706101.39,fixation,3,86,,,NoMusic
1624706101.67,stimulus,1,703,,,RelaxSession
1624706102.17,fixation,1,703,,,RelaxSession
1624706102.61,stimulus,2,179,,,NoMusic
1624706102.89,stimulus,3,87,,,NoMusic
1624706103.11,fixation,2,179,,,NoMusic
1624706103.39,fixation,3,87,,,NoMusic
1624706103.67,stimulus,1,704,,,RelaxSession
1624706104.17,fixation,1,704,,,RelaxSession
1624706104.61,stimulus,2,180,,,NoMusic
1624706104.89,stimulus,3,88,,,NoMusic
1624706105.11,fixation,2,180,,,NoMusic
1624706105.39,fixation,3,88,,,NoMusic
1624706105.67,stimulus,1,705,,,RelaxSession
1624706106.17,fixation,1,705,,,RelaxSession
1624706106.61,stimulus,2,181,,,NoMusic
1624706106.89,stimulus,3,89,,,NoMusic
1624706107.11,fixation,2,181,,,NoMusic
1624706107.39,fixation,3,89,,,NoMusic
1624706107.67,stimulus,1,706,,,RelaxSession
1624706108.17,fixation,1,706,,,RelaxSession
1624706108.61,stimulus,2,182,,,NoMusic
1624706108.89,stimulus,3,90,,,NoMusic
1624706109.11,fixation,2,182,,,NoMusic
1624706109.39,fixation,3,90,,,NoMusic
1624706109.67,stimulus,1,707,,,RelaxSession
1624706110.17,fixation,1,707,,,RelaxSession
1624706110.61,stimulus,2,183,,,NoMusic
1624706110.89,stimulus,3,91,,,NoMusic
1624706111.11,fixation,2,183,,,NoMusic
1624706111.39,fixation,3,91,,,NoMusic
1624706111.67,stimulus,1,708,,,RelaxSession
1624706112.17,fixation,1,708,,,RelaxSession
1624706112.61,stimulus,2,184,,,NoMusic
1624706112.89,stimulus,3,92,,,NoMusic
1624706113.11,fixation,2,184,,,NoMusic
1624706113.39,fixation,3,92,,,NoMusic
1624706113.67,stimulus,1,709,,,RelaxSession
1624706114.17,fixation,1,709,,,RelaxSession
1624706114.61,stimulus,2,185,,,NoMusic
1624706114.89,stimulus,3,93,,,NoMusic
1624706115.11,fixation,2,185,,,NoMusic
1624706115.39,fixation,3,93,,,NoMusic
1624706115.67,stimulus,1,710,,,RelaxSession
1624706116.17,fixation,1,710,,,RelaxSession
1624706116.61,stimulus,2,186,,,NoMusic
1624706116.89,stimulus,3,94,,,NoMusic
1624706117.11,fixation,2,186,,,NoMusic
1624706117.39,fixation,3,94,,,NoMusic
1624706117.67,stimulus,1,711,,,RelaxSession
1624706118.17,fixation,1,711,,,RelaxSession
1624706118.61,stimulus,2,187,,,NoMusic
1624706118.89,stimulus,3,95,,,NoMusic
1624706119.11,fixation,2,187,,,NoMusic
1624706119.39,fixation,3,95,,,NoMusic
1624706119.67,stimulus,1,712,,,RelaxSession
1624706120.17,fixation,1,712,,,RelaxSession
1624706120.61,stimulus,2,188,,,NoMusic
1624706120.89,stimulus,3,96,,,NoMusic
1624706121.11,fixation,2,188,,,NoMusic
1624706121.39,fixation,3,96,,,NoMusic
1624706121.67,stimulus,1,713,,,RelaxSession
1624706122.17,fixation,1,713,,,RelaxSession
1624706122.61,stimulus,2,189,,,NoMusic
1624706122.89,stimulus,3,97,,,NoMusic
1624706123.11,fixation,2,189,,,NoMusic
1624706123.39,fixation,3,97,,,NoMusic
1624706123.67,stimulus,1,714,,,RelaxSession
1624706124.17,fixation,1,714,,,RelaxSession
1624706124.61,stimulus,2,190,,,NoMusic
1624706124.89,stimulus,3,98,,,NoMusic
1624706125.11,fixation,2,190,,,NoMusic
1624706125.39,fixation,3,98,,,NoMusic
1624706125.67,stimulus,1,715,,,RelaxSession
1624706126.17,fixation,1,715,,,RelaxSession
1624706126.61,stimulus,2,191,,,NoMusic
1624706126.89,stimulus,3,99,,,NoMusic
1624706127.11,fixation,2,191,,,NoMusic
1624706127.39,fixation,3,99,,,NoMusic
1624706127.67,stimulus,1,716,,,RelaxSession
1624706128.17,fixation,1,716,,,RelaxSession
1624706128.61,stimulus,2,192,,,NoMusic
1624706128.89,stimulus,3,100,,,NoMusic
1624706129.11,fixation,2,192,,,NoMusic
1624706129.39,fixation,3,100,,,NoMusic
1624706129.67,stimulus,1,717,,,RelaxSession
1624706130.17,fixation,1,717,,,RelaxSession
1624706130.61,stimulus,2,193,,,NoMusic
1624706130.89,stimulus,3,101,,,NoMusic
1624706131.11,fixation,2,193,,,NoMusic
1624706131.39,fixation,3,101,,,NoMusic
1624706131.67,stimulus,1,718,,,RelaxSession
1624706132.17,fixation,1,718,,,RelaxSession
1624706132.61,stimulus,2,194,,,NoMusic
1624706132.89,stimulus,3,102,,,NoMusic
1624706133.11,fixation,2,194,,,NoMusic
1624706133.39,fixation,3,102,,,NoMusic
1624706133.67,stimulus,1,719,,,RelaxSession
1624706134.17,fixation,1,719,,,RelaxSession
1624706134.61,stimulus,2,195,,,NoMusic
1624706134.89,stimulus,3,103,,,NoMusic
1624706135.11,fixation,2,195,,,NoMusic
1624706135.39,fixation,3,103,,,NoMusic
1624706135.67,stimulus,1,720,,,RelaxSession
1624706136.17,fixation,1,720,,,RelaxSession
1624706136.61,stimulus,2,196,,,NoMusic
1624706136.89,stimulus,3,104,,,NoMusic
1624706137.11,fixation,2,196,,,NoMusic
1624706137.39,fixation,3,104,,,NoMusic
1624706137.67,stimulus,1,721,,,RelaxSession
1624706138.17,fixation,1,721,,,RelaxSession
1624706138.61,stimulus,2,197,,,NoMusic
1624706138.89,stimulus,3,105,,,NoMusic
1624706139.11,fixation,2,197,,,NoMusic
1624706139.39,fixation,3,105,,,NoMusic
1624706139.67,stimulus,1,722,,,RelaxSession
1624706140.17,fixation,1,722,,,RelaxSession
1624706140.61,stimulus,2,198,,,NoMusic
1624706140.89,stimulus,3,106,,,NoMusic
1624706141.11,fixation,2,198,,,NoMusic
1624706141.39,fixation,3,106,,,NoMusic
1624706141.67,stimulus,1,723,,,RelaxSession
1624706142.17,fixation,1,723,,,RelaxSession
1624706142.61,stimulus,2,199,,,NoMusic
1624706142.89,stimulus,3,107,,,NoMusic
1624706143.11,fixation,2,199,,,NoMusic
1624706143.39,fixation,3,107,,,NoMusic
1624706143.67,stimulus,1,724,,,RelaxSession
1624706144.17,fixation,1,724,,,RelaxSession
1624706144.61,stimulus,2,200,,,NoMusic
1624706144.89,stimulus,3,108,,,NoMusic
1624706145.11,fixation,2,200,,,NoMusic
1624706145.39,fixation,3,108,,,NoMusic
1624706145.67,stimulus,1,725,,,RelaxSession
1624706146.17,fixation,1,725,,,RelaxSession
1624706146.61,stimulus,2,201,,,NoMusic
1624706146.89,stimulus,3,109,,,NoMusic
1624706147.11,fixation,2,201,,,NoMusic
1624706147.39,fixation,3,109,,,NoMusic
1624706147.67,stimulus,1,726,,,RelaxSession
1624706148.17,fixation,1,726,,,RelaxSession
1624706148.61,stimulus,2,202,,,NoMusic
1624706148.89,stimulus,3,110,,,NoMusic
1624706149.11,fixation,2,202,,,NoMusic
1624706149.39,fixation,3,110,,,NoMusic
1624706149.67,stimulus,1,727,,,RelaxSession
1624706150.17,fixation,1,727,,,RelaxSession
1624706150.61,stimulus,2,203,,,NoMusic
1624706150.89,stimulus,3,111,,,NoMusic
1624706151.11,fixation,2,203,,,NoMusic
1624706151.39,fixation,3,111,,,NoMusic
1624706151.67,stimulus,1,728,,,RelaxSession
1624706152.17,fixation,1,728,,,RelaxSession
1624706152.61,stimulus,2,204,,,NoMusic
1624706152.89,stimulus,3,112,,,NoMusic
1624706153.11,fixation,2,204,,,NoMusic
1624706153.39,fixation,3,112,,,NoMusic
1624706153.67,stimulus,1,729,,,RelaxSession
1624706154.17,fixation,1,729,,,RelaxSession
1624706154.61,stimulus,2,205,,,NoMusic
1624706154.89,stimulus,3,113,,,NoMusic
1624706155.11,fixation,2,205,,,NoMusic
1624706155.39,fixation,3,113,,,NoMusic
1624706155.67,stimulus,1,730,,,RelaxSession
1624706156.17,fixation,1,730,,,RelaxSession
1624706156.61,stimulus,2,206,,,NoMusic
1624706156.89,stimulus,3,114,,,NoMusic
1624706157.11,fixation,2,206,,,NoMusic
1624706157.39,fixation,3,114,,,NoMusic
1624706157.67,stimulus,1,731,,,RelaxSession
1624706158.17,fixation,1,731,,,RelaxSession
1624706158.61,stimulus,2,207,,,NoMusic
1624706158.89,stimulus,3,115,,,NoMusic
1624706159.11,fixation,2,207,,,NoMusic
1624706159.39,fixation,3,115,,,NoMusic
1624706159.67,stimulus,1,732,,,RelaxSession
1624706160.17,fixation,1,732,,,RelaxSession
1624706160.61,stimulus,2,208,,,NoMusic
1624706160.89,stimulus,3,116,,,NoMusic
1624706161.11,fixation,2,208,,,NoMusic
1624706161.39,fixation,3,116,,,NoMusic
1624706161.67,stimulus,1,733,,,RelaxSession
1624706162.17,fixation,1,733,,,RelaxSession
1624706162.61,stimulus,2,209,,,NoMusic
1624706162.89,stimulus,3,117,,,NoMusic
1624706163.11,fixation,2,209,,,NoMusic
1624706163.39,fixation,3,117,,,NoMusic
1624706163.67,stimulus,1,734,,,RelaxSession
1624706164.17,fixation,1,734,,,RelaxSession
1624706164.61,stimulus,2,210,,,NoMusic
1624706164.89,stimulus,3,118,,,NoMusic
1624706165.11,fixation,2,210,,,NoMusic
1624706165.39,fixation,3,118,,,NoMusic
1624706165.67,stimulus,1,735,,,RelaxSession
1624706166.17,fixation,1,735,,,RelaxSession
1624706166.61,stimulus,2,211,,,NoMusic
1624706166.89,stimulus,3,119,,,NoMusic
1624706167.11,fixation,2,211,,,NoMusic
1624706167.39,fixation,3,119,,,NoMusic
1624706167.67,stimulus,1,736,,,RelaxSession
1624706168.17,fixation,1,736,,,RelaxSession
1624706168.61,stimulus,2,212,,,NoMusic
1624706168.89,stimulus,3,120,,,NoMusic
1624706169.11,fixation,2,212,,,NoMusic
1624706169.39,fixation,3,120,,,NoMusic
1624706169.67,stimulus,1,737,,,RelaxSession
1624706170.17,fixation,1,737,,,RelaxSession
1624706170.61,stimulus,2,213,,,NoMusic
1624706170.89,stimulus,3,121,,,NoMusic
1624706171.11,fixation,2,213,,,NoMusic
1624706171.39,fixation,3,121,,,NoMusic
1624706171.67,stimulus,1,738,,,RelaxSession
1624706172.17,fixation,1,738,,,RelaxSession
1624706172.61,stimulus,2,214,,,NoMusic
1624706172.89,stimulus,3,122,,,NoMusic
1624706173.11,fixation,2,214,,,NoMusic
1624706173.39,fixation,3,122,,,NoMusic
1624706173.67,stimulus,1,739,,,RelaxSession
1624706174.17,fixation,1,739,,,RelaxSession
1624706174.61,stimulus,2,215,,,NoMusic
1624706174.89,stimulus,3,123,,,NoMusic
1624706175.11,fixation,2,215,,,NoMusic
1624706175.39,fixation,3,123,,,NoMusic
1624706175.67,stimulus,1,740,,,RelaxSession
1624706176.17,fixation,1,740,,,RelaxSession
1624706176.61,stimulus,2,216,,,NoMusic
1624706176.89,stimulus,3,124,,,NoMusic
1624706177.11,fixation,2,216,,,NoMusic
1624706177.39,fixation,3,124,,,NoMusic
1624706177.67,stimulus,1,741,,,RelaxSession
1624706178.17,fixation,1,741,,,RelaxSession
1624706178.61,stimulus,2,217,,,NoMusic
1624706178.89,stimulus,3,125,,,NoMusic
1624706179.11,fixation,2,217,,,NoMusic
1624706179.39,fixation,3,125,,,NoMusic
1624706179.67,stimulus,1,742,,,RelaxSession
1624706180.17,fixation,1,742,,,RelaxSession
1624706180.61,stimulus,2,218,,,NoMusic
1624706180.89,stimulus,3,126,,,NoMusic
1624706181.11,fixation,2,218,,,NoMusic
1624706181.39,fixation,3,126,,,NoMusic
1624706181.67,stimulus,1,743,,,RelaxSession
1624706182.17,fixation,1,743,,,RelaxSession
1624706182.61,stimulus,2,219,,,NoMusic
1624706182.89,stimulus,3,127,,,NoMusic
1624706183.11,fixation,2,219,,,NoMusic
1624706183.39,fixation,3,127,,,NoMusic
1624706183.67,stimulus,1,744,,,RelaxSession
1624706184.17,fixation,1,744,,,RelaxSession
1624706184.61,stimulus,2,220,,,NoMusic
1624706184.89,stimulus,3,128,,,NoMusic
1624706185.11,fixation,2,220,,,NoMusic
1624706185.39,fixation,3,128,,,NoMusic
1624706185.67,stimulus,1,745,,,RelaxSession
1624706186.17,fixation,1,745,,,RelaxSession
1624706186.61,stimulus,2,221,,,NoMusic
1624706186.89,stimulus,3,129,,,NoMusic
1624706187.11,fixation,2,221,,,NoMusic
1624706187.39,fixation,3,129,,,NoMusic
1624706187.67,stimulus,1,746,,,RelaxSession
1624706188.17,fixation,1,746,,,RelaxSession
1624706188.61,stimulus,2,222,,,NoMusic
1624706188.89,stimulus,3,130,,,NoMusic
1624706189.11,fixation,2,222,,,NoMusic
1624706189.39,fixation,3,130,,,NoMusic
1624706189.67,stimulus,1,747,,,RelaxSession
1624706190.17,fixation,1,747,,,RelaxSession
1624706190.61,stimulus,2,223,,,NoMusic
1624706190.89,stimulus,3,131,,,NoMusic
1624706191.11,fixation,2,223,,,NoMusic
1624706191.39,fixation,3,131,,,NoMusic
1624706191.67,stimulus,1,748,,,RelaxSession
1624706192.17,fixation,1,748,,,RelaxSession
1624706192.61,stimulus,2,224,,,NoMusic
1624706192.89,stimulus,3,132,,,NoMusic
1624706193.11,fixation,2,224,,,NoMusic
1624706193.39,fixation,3,132,,,NoMusic
1624706193.67,stimulus,1,749,,,RelaxSession
1624706194.17,fixation,1,749,,,RelaxSession
1624706194.61,stimulus,2,225,,,NoMusic
1624706194.89,stimulus,3,133,,,NoMusic
1624706195.11,fixation,2,225,,,NoMusic
1624706195.39,fixation,3,133,,,NoMusic
1624706195.67,stimulus,1,750,,,RelaxSession
1624706196.17,fixation,1,750,,,RelaxSession
1624706196.61,stimulus,2,226,,,NoMusic
1624706196.89,stimulus,3,134,,,NoMusic
1624706197.11,fixation,2,226,,,NoMusic
1624706197.39,fixation,3,134,,,NoMusic
1624706197.67,stimulus,1,751,,,StressSession
1624706198.17,fixation,1,751,,,StressSession
1624706198.61,stimulus,2,227,,,NoMusic
1624706198.89,stimulus,3,135,,,NoMusic
1624706199.11,fixation,2,227,,,NoMusic
1624706199.39,fixation,3,135,,,NoMusic
1624706199.67,stimulus,1,752,,,StressSession
1624706200.17,fixation,1,752,,,StressSession
1624706200.61,stimulus,2,228,,,NoMusic
1624706200.89,stimulus,3,136,,,NoMusic
1624706201.11,fixation,2,228,,,NoMusic
1624706201.39,fixation,3,136,,,NoMusic
1624706201.67,stimulus,1,753,,,StressSession
1624706202.17,fixation,1,753,,,StressSession
1624706202.61,stimulus,2,229,,,NoMusic
1624706202.89,stimulus,3,137,,,NoMusic
1624706203.11,fixation,2,229,,,NoMusic
1624706203.39,fixation,3,137,,,NoMusic
1624706203.67,stimulus,1,754,,,StressSession
1624706204.17,fixation,1,754,,,StressSession
1624706204.61,stimulus,2,230,,,NoMusic
1624706204.89,stimulus,3,138,,,NoMusic
1624706205.11,fixation,2,230,,,NoMusic
1624706205.39,fixation,3,138,,,NoMusic
1624706205.67,stimulus,1,755,,,StressSession
1624706206.17,fixation,1,755,,,StressSession
1624706206.61,stimulus,2,231,,,NoMusic
1624706206.89,stimulus,3,139,,,NoMusic
1624706207.11,fixation,2,231,,,NoMusic
1624706207.39,fixation,3,139,,,NoMusic
1624706207.67,stimulus,1,756,,,StressSession
1624706208.17,fixation,1,756,,,StressSession
1624706208.61,stimulus,2,232,,,NoMusic
1624706208.89,stimulus,3,140,,,NoMusic
1624706209.11,fixation,2,232,,,NoMusic
1624706209.39,fixation,3,140,,,NoMusic
1624706209.67,stimulus,1,757,,,StressSession
1624706210.17,fixation,1,757,,,StressSession
1624706210.61,stimulus,2,233,,,NoMusic
1624706210.89,stimulus,3,141,,,NoMusic
1624706211.11,fixation,2,233,,,NoMusic
1624706211.39,fixation,3,141,,,NoMusic
1624706211.67,stimulus,1,758,,,StressSession
1624706212.17,fixation,1,758,,,StressSession
1624706212.61,stimulus,2,234,,,NoMusic
1624706212.89,stimulus,3,142,,,NoMusic
1624706213.11,fixation,2,234,,,NoMusic
1624706213.39,fixation,3,142,,,NoMusic
1624706213.67,stimulus,1,759,,,StressSession
1624706214.17,fixation,1,759,,,StressSession
1624706214.61,stimulus,2,235,,,NoMusic
1624706214.89,stimulus,3,143,,,NoMusic
1624706215.11,fixation,2,235,,,NoMusic
1624706215.39,fixation,3,143,,,NoMusic
1624706215.67,stimulus,1,760,,,StressSession
1624706216.17,fixation,1,760,,,StressSession
1624706216.61,stimulus,2,236,,,NoMusic
1624706216.89,stimulus,3,144,,,NoMusic
1624706217.11,fixation,2,236,,,NoMusic
1624706217.39,fixation,3,144,,,NoMusic
1624706217.67,stimulus,1,761,,,StressSession
1624706218.17,fixation,1,761,,,StressSession
1624706218.61,stimulus,2,237,,,NoMusic
1624706218.89,stimulus,3,145,,,NoMusic
1624706219.11,fixation,2,237,,,NoMusic
1624706219.39,fixation,3,145,,,NoMusic
1624706219.67,stimulus,1,762,,,StressSession
1624706220.17,fixation,1,762,,,StressSession
1624706220.61,stimulus,2,238,,,NoMusic
1624706220.89,stimulus,3,146,,,NoMusic
1624706221.11,fixation,2,238,,,NoMusic
1624706221.39,fixation,3,146,,,NoMusic
1624706221.67,stimulus,1,763,,,StressSession
1624706222.17,fixation,1,763,,,StressSession
1624706222.61,stimulus,2,239,,,NoMusic
1624706222.89,stimulus,3,147,,,NoMusic
1624706223.11,fixation,2,239,,,NoMusic
1624706223.39,fixation,3,147,,,NoMusic
1624706223.67,stimulus,1,764,,,StressSession
1624706224.17,fixation,1,764,,,StressSession
1624706224.61,stimulus,2,240,,,NoMusic
1624706224.89,stimulus,3,148,,,NoMusic
1624706225.11,fixation,2,240,,,NoMusic
1624706225.39,fixation,3,148,,,NoMusic
1624706225.67,stimulus,1,765,,,StressSession
1624706226.17,fixation,1,765,,,StressSession
1624706226.61,stimulus,2,241,,,NoMusic
1624706226.89,stimulus,3,149,,,NoMusic
1624706227.11,fixation,2,241,,,NoMusic
1624706227.39,fixation,3,149,,,NoMusic
1624706227.67,stimulus,1,766,,,StressSession
1624706228.17,fixation,1,766,,,StressSession
