event_time_s,trial_type,session_idx,trial_idx,RT_s,ACC,session_type
1635633704.75,stimulus,1,1,,,PracticeSession
1635633705.25,fixation,1,1,,,PracticeSession
1635633706.75,stimulus,1,2,,,PracticeSession
1635633707.25,fixation,1,2,,,PracticeSession
1635633708.75,stimulus,1,3,,,PracticeSession
1635633709.25,fixation,1,3,,,PracticeSession
1635633710.75,stimulus,1,4,,,PracticeSession
1635633711.25,fixation,1,4,,,PracticeSession
1635633712.75,stimulus,1,5,,,PracticeSession
1635633713.25,fixation,1,5,,,PracticeSession
1635633714.75,stimulus,1,6,,,PracticeSession
1635633715.25,fixation,1,6,,,PracticeSession
1635633716.75,stimulus,1,7,,,PracticeSession
1635633717.25,fixation,1,7,,,PracticeSession
1635633718.75,stimulus,1,8,,,PracticeSession
1635633719.25,fixation,1,8,,,PracticeSession
1635633720.75,stimulus,1,9,,,PracticeSession
1635633721.25,fixation,1,9,,,PracticeSession
1635633722.75,stimulus,1,10,,,PracticeSession
1635633723.25,fixation,1,10,,,PracticeSession
1635633724.75,stimulus,1,11,,,PracticeSession
1635633725.25,fixation,1,11,,,PracticeSession
1635633726.75,stimulus,1,12,,,PracticeSession
1635633727.25,fixation,1,12,,,PracticeSession
1635633728.75,stimulus,1,13,,,PracticeSession
1635633729.25,fixation,1,13,,,PracticeSession
1635633730.75,stimulus,1,14,,,PracticeSession
1635633731.25,fixation,1,14,,,PracticeSession
1635633732.75,stimulus,1,15,,,PracticeSession
1635633733.25,fixation,1,15,,,PracticeSession
1635633734.75,stimulus,1,16,,,PracticeSession
1635633735.25,fixation,1,16,,,PracticeSession
1635633736.75,stimulus,1,17,,,PracticeSession
1635633737.25,fixation,1,17,,,PracticeSession
1635633738.75,stimulus,1,18,,,PracticeSession
1635633739.25,fixation,1,18,,,PracticeSession
1635633740.75,stimulus,1,19,,,PracticeSession
1635633741.25,fixation,1,19,,,PracticeSession
1635633742.75,stimulus,1,20,,,PracticeSession
1635633743.25,fixation,1,20,,,PracticeSession
1635633744.75,stimulus,1,21,,,PracticeSession
1635633745.25,fixation,1,21,,,PracticeSession
1635633746.75,stimulus,1,22,,,PracticeSession
1635633747.25,fixation,1,22,,,PracticeSession
1635633748.75,stimulus,1,23,,,PracticeSession
1635633749.25,fixation,1,23,,,PracticeSession
1635633750.75,stimulus,1,24,,,PracticeSession
1635633751.25,fixation,1,24,,,PracticeSession
1635633752.75,stimulus,1,25,,,PracticeSession
1635633753.25,fixation,1,25,,,PracticeSession
1635633754.75,stimulus,1,26,,,PracticeSession
1635633755.25,fixation,1,26,,,PracticeSession
1635633756.75,stimulus,1,27,,,PracticeSession
1635633757.25,fixation,1,27,,,PracticeSession
1635633758.75,stimulus,1,28,,,PracticeSession
1635633759.25,fixation,1,28,,,PracticeSession
1635633760.75,stimulus,1,29,,,PracticeSession
1635633761.25,fixation,1,29,,,PracticeSession
1635633762.75,stimulus,1,30,,,PracticeSession
1635633763.25,fixation,1,30,,,PracticeSession
1635633764.75,stimulus,1,31,,,PracticeSession
1635633765.25,fixation,1,31,,,PracticeSession
1635633766.75,stimulus,1,32,,,PracticeSession
1635633767.25,fixation,1,32,,,PracticeSession
1635633768.75,stimulus,1,33,,,PracticeSession
1635633769.25,fixation,1,33,,,PracticeSession
1635633770.75,stimulus,1,34,,,PracticeSession
1635633771.25,fixation,1,34,,,PracticeSession
1635633772.75,stimulus,1,35,,,PracticeSession
1635633773.25,fixation,1,35,,,PracticeSession
1635633774.75,stimulus,1,36,,,PracticeSession
1635633775.25,fixation,1,36,,,PracticeSession
1635633776.75,stimulus,1,37,,,PracticeSession
1635633777.25,fixation,1,37,,,PracticeSession
1635633778.75,stimulus,1,38,,,PracticeSession
1635633779.25,fixation,1,38,,,PracticeSession
1635633780.75,stimulus,1,39,,,PracticeSession
1635633781.25,fixation,1,39,,,PracticeSession
1635633782.75,stimulus,1,40,,,PracticeSession
1635633783.25,fixation,1,40,,,PracticeSession
1635633784.75,stimulus,1,41,,,PracticeSession
1635633785.25,fixation,1,41,,,PracticeSession
1635633786.75,stimulus,1,42,,,PracticeSession
1635633787.25,fixation,1,42,,,PracticeSession
1635633788.75,stimulus,1,43,,,PracticeSession
1635633789.25,fixation,1,43,,,PracticeSession
1635633790.75,stimulus,1,44,,,PracticeSession
1635633791.25,fixation,1,44,,,PracticeSession
1635633792.75,stimulus,1,45,,0.0,NoMusic
1635633794.32,fixation,1,45,1.07,1.0,NoMusic
1635633794.75,stimulus,1,46,,0.0,NoMusic
1635633795.375,fixation,1,46,0.125,1.0,NoMusic
1635633797.191,stimulus,1,47,0.441,1.0,NoMusic
1635633797.25,fixation,1,47,,0.0,NoMusic
1635633799.175,stimulus,1,48,0.425,0.0,NoMusic
1635633799.636,fixation,1,48,0.386,1.0,NoMusic
1635633800.75,stimulus,1,49,,0.0,NoMusic
1635633801.494,fixation,1,49,0.244,1.0,NoMusic
1635633802.75,stimulus,1,50,,0.0,NoMusic
1635633803.481,fixation,1,50,0.231,1.0,NoMusic
1635633804.75,stimulus,1,51,,0.0,NoMusic
1635633805.25,fixation,1,51,,0.0,NoMusic
1635633806.75,stimulus,1,52,,0.0,NoMusic
1635633807.258,fixation,1,52,0.008,1.0,NoMusic
1635633808.75,stimulus,1,53,,0.0,NoMusic
1635633809.471,fixation,1,53,0.221,1.0,NoMusic
1635633810.75,stimulus,1,54,,0.0,NoMusic
1635633811.457,fixation,1,54,0.207,1.0,NoMusic
1635633813.158,stimulus,1,55,0.408,1.0,NoMusic
1635633813.25,fixation,1,55,,0.0,NoMusic
1635633815.118,stimulus,1,56,0.368,1.0,NoMusic
1635633815.25,fixation,1,56,,0.0,NoMusic
1635633817.165,stimulus,1,57,0.415,1.0,NoMusic
1635633817.25,fixation,1,57,,0.0,NoMusic
1635633819.197,stimulus,1,58,0.447,1.0,NoMusic
1635633819.25,fixation,1,58,,0.0,NoMusic
1635633820.75,stimulus,1,59,,0.0,NoMusic
1635633821.493,fixation,1,59,0.243,1.0,NoMusic
1635633822.75,stimulus,1,60,,0.0,NoMusic
1635633823.33,fixation,1,60,0.08,1.0,NoMusic
1635633824.75,stimulus,1,61,,0.0,NoMusic
1635633825.25,fixation,1,61,,0.0,NoMusic
1635633826.911,stimulus,1,62,0.161,1.0,NoMusic
1635633827.25,fixation,1,62,,0.0,NoMusic
1635633828.75,stimulus,1,63,,0.0,NoMusic
1635633829.338,fixation,1,63,0.088,1.0,NoMusic
1635633830.75,stimulus,1,64,,0.0,NoMusic
1635633831.36,fixation,1,64,0.11,1.0,NoMusic
1635633832.75,stimulus,1,65,,0.0,NoMusic
1635633833.342,fixation,1,65,0.092,1.0,NoMusic
1635633834.75,stimulus,1,66,,0.0,NoMusic
1635633835.521,fixation,1,66,0.271,1.0,NoMusic
1635633836.75,stimulus,1,67,,0.0,NoMusic
1635633837.25,fixation,1,67,,0.0,NoMusic
1635633839.197,stimulus,1,68,0.447,1.0,NoMusic
1635633839.25,fixation,1,68,,0.0,NoMusic
1635633841.234,stimulus,1,69,0.484,1.0,NoMusic
1635633841.25,fixation,1,69,,0.0,NoMusic
1635633843.093,stimulus,1,70,0.343,1.0,NoMusic
1635633843.25,fixation,1,70,,0.0,NoMusic
1635633844.75,stimulus,1,71,,0.0,NoMusic
1635633845.41,fixation,1,71,0.16,1.0,NoMusic
1635633846.75,stimulus,1,72,,0.0,NoMusic
1635633847.26,fixation,1,72,0.01,1.0,NoMusic
1635633849.214,stimulus,1,73,0.464,1.0,NoMusic
1635633849.25,fixation,1,73,,0.0,NoMusic
1635633850.75,stimulus,1,74,,0.0,NoMusic
1635633851.756,fixation,1,74,0.506,1.0,NoMusic
1635633852.75,stimulus,1,75,,0.0,NoMusic
1635633854.408,fixation,1,75,1.158,0.0,NoMusic
1635633854.75,stimulus,1,76,,0.0,NoMusic
1635633855.667,fixation,1,76,0.417,1.0,NoMusic
1635633856.75,stimulus,1,77,,0.0,NoMusic
1635633858.201,fixation,1,77,0.951,0.0,NoMusic
1635633858.75,stimulus,1,78,,0.0,NoMusic
1635633859.697,fixation,1,78,0.447,1.0,NoMusic
1635633860.75,stimulus,1,79,,0.0,NoMusic
1635633862.331,fixation,1,79,1.081,0.0,NoMusic
1635633862.75,stimulus,1,80,,0.0,NoMusic
1635633864.367,fixation,1,80,1.117,1.0,NoMusic
1635633864.75,stimulus,1,81,,0.0,NoMusic
1635633865.529,fixation,1,81,0.279,1.0,NoMusic
1635633867.202,stimulus,1,82,0.452,0.0,NoMusic
1635633867.25,fixation,1,82,,0.0,NoMusic
1635633868.75,stimulus,1,83,,0.0,NoMusic
1635633869.375,fixation,1,83,0.125,1.0,NoMusic
1635633870.75,stimulus,1,84,,0.0,NoMusic
1635633871.969,fixation,1,84,0.719,1.0,NoMusic
1635633872.75,stimulus,1,85,,0.0,NoMusic
1635633873.659,fixation,1,85,0.409,1.0,NoMusic
1635633874.75,stimulus,1,86,,0.0,NoMusic
1635633875.25,fixation,1,86,,0.0,NoMusic
1635633876.75,stimulus,1,87,,0.0,NoMusic
1635633877.983,fixation,1,87,0.733,0.0,NoMusic
1635633878.75,stimulus,1,88,,0.0,NoMusic
1635633879.25,fixation,1,88,,0.0,NoMusic
1635633880.75,stimulus,1,89,,0.0,NoMusic
1635633881.95,fixation,1,89,0.7,1.0,NoMusic
1635633883.134,stimulus,1,90,0.384,1.0,NoMusic
1635633883.25,fixation,1,90,,0.0,NoMusic
1635633884.75,stimulus,1,91,,0.0,NoMusic
1635633885.449,fixation,1,91,0.199,1.0,NoMusic
1635633886.75,stimulus,1,92,,0.0,NoMusic
1635633887.274,fixation,1,92,0.024,1.0,NoMusic
1635633888.75,stimulus,1,93,,0.0,NoMusic
1635633889.463,fixation,1,93,0.213,0.0,NoMusic
1635633890.75,stimulus,1,94,,0.0,NoMusic
1635633891.351,fixation,1,94,0.101,1.0,NoMusic
1635633892.75,stimulus,1,95,,0.0,NoMusic
1635633893.746,fixation,1,95,0.496,1.0,NoMusic
1635633894.75,stimulus,1,96,,0.0,NoMusic
1635633895.393,fixation,1,96,0.143,1.0,NoMusic
1635633896.75,stimulus,1,97,,0.0,NoMusic
1635633897.631,fixation,1,97,0.381,1.0,NoMusic
1635633898.75,stimulus,1,98,,0.0,NoMusic
1635633899.771,fixation,1,98,0.521,0.0,NoMusic
1635633900.75,stimulus,1,99,,0.0,NoMusic
1635633902.111,fixation,1,99,0.861,1.0,NoMusic
1635633902.75,stimulus,1,100,,0.0,NoMusic
1635633903.868,fixation,1,100,0.618,1.0,NoMusic
1635633904.75,stimulus,1,101,,0.0,NoMusic
1635633905.529,fixation,1,101,0.279,0.0,NoMusic
1635633906.75,stimulus,1,102,,0.0,NoMusic
1635633907.593,fixation,1,102,0.343,1.0,NoMusic
1635633908.75,stimulus,1,103,,0.0,NoMusic
1635633909.355,fixation,1,103,0.105,1.0,NoMusic
1635633910.75,stimulus,1,104,,0.0,NoMusic
1635633911.948,fixation,1,104,0.698,1.0,NoMusic
1635633912.75,stimulus,1,105,,0.0,NoMusic
1635633913.773,fixation,1,105,0.523,1.0,NoMusic
1635633914.75,stimulus,1,106,,0.0,NoMusic
1635633915.76,fixation,1,106,0.51,1.0,NoMusic
1635633916.75,stimulus,1,107,,0.0,NoMusic
1635633917.673,fixation,1,107,0.423,1.0,NoMusic
1635633918.75,stimulus,1,108,,0.0,NoMusic
1635633920.216,fixation,1,108,0.966,1.0,NoMusic
1635633920.75,stimulus,1,109,,0.0,NoMusic
1635633922.147,fixation,1,109,0.897,0.0,NoMusic
1635633922.75,stimulus,1,110,,0.0,NoMusic
1635633923.623,fixation,1,110,0.373,1.0,NoMusic
1635633924.75,stimulus,1,111,,0.0,NoMusic
1635633925.905,fixation,1,111,0.655,1.0,NoMusic
1635633926.75,stimulus,1,112,,0.0,NoMusic
1635633927.363,fixation,1,112,0.113,1.0,NoMusic
1635633928.75,stimulus,1,113,,0.0,NoMusic
1635633929.369,fixation,1,113,0.119,1.0,NoMusic
1635633931.189,stimulus,1,114,0.439,1.0,NoMusic
1635633931.25,fixation,1,114,,0.0,NoMusic
1635633932.75,stimulus,1,115,,0.0,NoMusic
1635633933.667,fixation,1,115,0.417,1.0,NoMusic
1635633934.75,stimulus,1,116,,0.0,NoMusic
1635633935.414,fixation,1,116,0.164,1.0,NoMusic
1635633937.193,stimulus,1,117,0.443,1.0,NoMusic
1635633937.25,fixation,1,117,,0.0,NoMusic
1635633938.75,stimulus,1,118,,0.0,NoMusic
1635633939.265,fixation,1,118,0.015,1.0,NoMusic
1635633940.75,stimulus,1,119,,0.0,NoMusic
1635633941.442,fixation,1,119,0.192,1.0,NoMusic
1635633943.235,stimulus,1,120,0.485,1.0,NoMusic
1635633943.25,fixation,1,120,,0.0,NoMusic
1635633944.75,stimulus,1,121,,0.0,NoMusic
1635633945.369,fixation,1,121,0.119,1.0,NoMusic
1635633947.223,stimulus,1,122,0.473,1.0,NoMusic
1635633947.25,fixation,1,122,,0.0,NoMusic
1635633948.75,stimulus,1,123,,0.0,NoMusic
1635633949.428,fixation,1,123,0.178,1.0,NoMusic
1635633950.75,stimulus,1,124,,0.0,NoMusic
1635633951.388,fixation,1,124,0.138,1.0,NoMusic
1635633952.75,stimulus,1,125,,0.0,NoMusic
1635633953.574,fixation,1,125,0.324,1.0,NoMusic
1635633954.75,stimulus,1,126,,0.0,NoMusic
1635633955.25,fixation,1,126,,0.0,NoMusic
1635633956.75,stimulus,1,127,,0.0,NoMusic
1635633957.544,fixation,1,127,0.294,0.0,NoMusic
1635633958.75,stimulus,1,128,,0.0,NoMusic
1635633959.482,fixation,1,128,0.232,1.0,NoMusic
1635633960.75,stimulus,1,129,,0.0,NoMusic
1635633961.34,fixation,1,129,0.09,1.0,NoMusic
1635633963.192,stimulus,1,130,0.442,0.0,NoMusic
1635633963.581,fixation,1,130,0.331,1.0,NoMusic
1635633964.75,stimulus,1,131,,0.0,NoMusic
1635633965.332,fixation,1,131,0.082,1.0,NoMusic
1635633966.75,stimulus,1,132,,0.0,NoMusic
1635633967.27,fixation,1,132,0.02,1.0,NoMusic
1635633968.75,stimulus,1,133,,0.0,NoMusic
1635633969.674,fixation,1,133,0.424,1.0,NoMusic
1635633971.077,stimulus,1,134,0.327,1.0,NoMusic
1635633971.25,fixation,1,134,,0.0,NoMusic
1635633973.187,stimulus,1,135,0.437,1.0,NoMusic
1635633973.25,fixation,1,135,,0.0,NoMusic
1635633974.75,stimulus,1,136,,0.0,NoMusic
1635633975.554,fixation,1,136,0.304,0.0,NoMusic
1635633976.75,stimulus,1,137,,0.0,NoMusic
1635633977.947,fixation,1,137,0.697,1.0,NoMusic
1635633978.75,stimulus,1,138,,0.0,NoMusic
1635633980.069,fixation,1,138,0.819,1.0,NoMusic
1635633980.75,stimulus,1,139,,0.0,NoMusic
1635633981.894,fixation,1,139,0.644,0.0,NoMusic
1635633982.75,stimulus,1,140,,0.0,NoMusic
1635633984.45,fixation,1,140,1.2,1.0,NoMusic
1635633984.75,stimulus,1,141,,0.0,NoMusic
1635633986.559,fixation,1,141,1.309,0.0,NoMusic
1635633986.75,stimulus,1,142,,0.0,NoMusic
1635633988.428,fixation,1,142,1.178,1.0,NoMusic
1635633988.75,stimulus,1,143,,0.0,NoMusic
1635633990.339,fixation,1,143,1.089,1.0,NoMusic
1635633990.75,stimulus,1,144,,0.0,NoMusic
1635633991.795,fixation,1,144,0.545,1.0,NoMusic
1635633992.75,stimulus,1,145,,0.0,NoMusic
1635633993.401,fixation,1,145,0.151,0.0,NoMusic
1635633994.75,stimulus,1,146,,0.0,NoMusic
1635633996.436,fixation,1,146,1.186,1.0,NoMusic
1635633997.219,stimulus,1,147,0.469,0.0,NoMusic
1635633997.25,fixation,1,147,,0.0,NoMusic
1635633998.75,stimulus,1,148,,0.0,NoMusic
1635634000.705,fixation,1,148,1.455,1.0,NoMusic
1635634000.75,stimulus,1,149,,0.0,NoMusic
1635634001.712,fixation,1,149,0.462,1.0,NoMusic
1635634002.75,stimulus,1,150,,0.0,NoMusic
1635634003.821,fixation,1,150,0.571,1.0,NoMusic
1635634004.75,stimulus,1,151,,0.0,NoMusic
1635634006.019,fixation,1,151,0.769,0.0,NoMusic
1635634006.75,stimulus,1,152,,0.0,NoMusic
1635634008.029,fixation,1,152,0.779,1.0,NoMusic
1635634008.75,stimulus,1,153,,0.0,NoMusic
1635634009.828,fixation,1,153,0.578,1.0,NoMusic
1635634010.75,stimulus,1,154,,0.0,NoMusic
1635634011.567,fixation,1,154,0.317,1.0,NoMusic
1635634012.75,stimulus,1,155,,0.0,NoMusic
1635634013.537,fixation,1,155,0.287,1.0,NoMusic
1635634015.226,stimulus,1,156,0.476,1.0,NoMusic
1635634015.25,fixation,1,156,,0.0,NoMusic
1635634016.75,stimulus,1,157,,0.0,NoMusic
1635634017.286,fixation,1,157,0.036,1.0,NoMusic
1635634018.75,stimulus,1,158,,0.0,NoMusic
1635634019.872,fixation,1,158,0.622,1.0,NoMusic
1635634020.75,stimulus,1,159,,0.0,NoMusic
1635634021.389,fixation,1,159,0.139,1.0,NoMusic
1635634023.243,stimulus,1,160,0.493,1.0,NoMusic
1635634023.25,fixation,1,160,,0.0,NoMusic
1635634024.75,stimulus,1,161,,0.0,NoMusic
1635634025.292,fixation,1,161,0.042,1.0,NoMusic
1635634026.75,stimulus,1,162,,0.0,NoMusic
1635634027.297,fixation,1,162,0.047,1.0,NoMusic
1635634028.75,stimulus,1,163,,0.0,NoMusic
1635634029.893,fixation,1,163,0.643,1.0,NoMusic
1635634030.75,stimulus,1,164,,0.0,NoMusic
1635634032.22,fixation,1,164,0.97,1.0,NoMusic
1635634032.75,stimulus,1,165,,0.0,NoMusic
1635634033.35,fixation,1,165,0.1,1.0,NoMusic
1635634034.75,stimulus,1,166,,0.0,NoMusic
1635634035.462,fixation,1,166,0.212,1.0,NoMusic
1635634036.75,stimulus,1,167,,0.0,NoMusic
1635634037.284,fixation,1,167,0.034,1.0,NoMusic
1635634038.75,stimulus,1,168,,0.0,NoMusic
1635634039.462,fixation,1,168,0.212,1.0,NoMusic
1635634041.195,stimulus,1,169,0.445,1.0,NoMusic
1635634041.25,fixation,1,169,,0.0,NoMusic
1635634042.75,stimulus,1,170,,0.0,NoMusic
1635634043.891,fixation,1,170,0.641,1.0,NoMusic
1635634044.75,stimulus,1,171,,0.0,NoMusic
1635634045.352,fixation,1,171,0.102,1.0,NoMusic
1635634046.75,stimulus,1,172,,0.0,NoMusic
1635634047.414,fixation,1,172,0.164,1.0,NoMusic
1635634048.75,stimulus,1,173,,0.0,NoMusic
1635634049.444,fixation,1,173,0.194,1.0,NoMusic
1635634050.75,stimulus,1,174,,0.0,NoMusic
1635634051.471,fixation,1,174,0.221,1.0,NoMusic
1635634052.75,stimulus,1,175,,0.0,NoMusic
1635634054.113,fixation,1,175,0.863,0.0,NoMusic
1635634054.75,stimulus,1,176,,0.0,NoMusic
1635634055.338,fixation,1,176,0.088,0.0,NoMusic
1635634057.178,stimulus,1,177,0.428,1.0,NoMusic
1635634057.25,fixation,1,177,,0.0,NoMusic
1635634058.75,stimulus,1,178,,0.0,NoMusic
1635634059.434,fixation,1,178,0.184,1.0,NoMusic
1635634060.75,stimulus,1,179,,0.0,NoMusic
1635634061.312,fixation,1,179,0.062,1.0,NoMusic
1635634063.201,stimulus,1,180,0.451,1.0,NoMusic
1635634063.25,fixation,1,180,,0.0,NoMusic
1635634065.078,stimulus,1,181,0.328,1.0,NoMusic
1635634065.25,fixation,1,181,,0.0,NoMusic
1635634067.194,stimulus,1,182,0.444,1.0,NoMusic
1635634067.25,fixation,1,182,,0.0,NoMusic
1635634068.75,stimulus,1,183,,0.0,NoMusic
1635634069.289,fixation,1,183,0.039,1.0,NoMusic
1635634071.127,stimulus,1,184,0.377,1.0,NoMusic
1635634071.25,fixation,1,184,,0.0,NoMusic
1635634072.75,stimulus,1,185,,0.0,NoMusic
1635634073.279,fixation,1,185,0.029,1.0,NoMusic
1635634074.75,stimulus,1,186,,0.0,NoMusic
1635634075.967,fixation,1,186,0.717,1.0,NoMusic
1635634076.75,stimulus,1,187,,0.0,NoMusic
1635634077.36,fixation,1,187,0.11,1.0,NoMusic
1635634079.221,stimulus,1,188,0.471,1.0,NoMusic
1635634079.25,fixation,1,188,,0.0,NoMusic
1635634080.75,stimulus,1,189,,0.0,NoMusic
1635634081.833,fixation,1,189,0.583,1.0,NoMusic
1635634082.75,stimulus,1,190,,0.0,NoMusic
1635634083.33,fixation,1,190,0.08,1.0,NoMusic
1635634084.75,stimulus,1,191,,0.0,NoMusic
1635634085.307,fixation,1,191,0.057,1.0,NoMusic
1635634086.75,stimulus,1,192,,0.0,NoMusic
1635634087.305,fixation,1,192,0.055,1.0,NoMusic
1635634088.75,stimulus,1,193,,0.0,NoMusic
1635634089.468,fixation,1,193,0.218,1.0,NoMusic
1635634090.75,stimulus,1,194,,0.0,NoMusic
1635634091.317,fixation,1,194,0.067,1.0,NoMusic
1635634092.75,stimulus,1,195,,0.0,NoMusic
1635634093.356,fixation,1,195,0.106,1.0,NoMusic
1635634094.75,stimulus,1,196,,0.0,NoMusic
1635634095.45,fixation,1,196,0.2,1.0,NoMusic
1635634096.75,stimulus,1,197,,0.0,NoMusic
1635634097.347,fixation,1,197,0.097,1.0,NoMusic
1635634098.75,stimulus,1,198,,0.0,NoMusic
1635634099.266,fixation,1,198,0.016,1.0,NoMusic
1635634100.75,stimulus,1,199,,0.0,NoMusic
1635634101.882,fixation,1,199,0.632,1.0,NoMusic
1635634103.164,stimulus,1,200,0.414,1.0,NoMusic
1635634103.25,fixation,1,200,,0.0,NoMusic
1635634105.146,stimulus,1,201,0.396,1.0,NoMusic
1635634105.25,fixation,1,201,,0.0,NoMusic
1635634107.246,stimulus,1,202,0.496,1.0,NoMusic
1635634107.25,fixation,1,202,,0.0,NoMusic
1635634109.136,stimulus,1,203,0.386,1.0,NoMusic
1635634109.25,fixation,1,203,,0.0,NoMusic
1635634110.75,stimulus,1,204,,0.0,NoMusic
1635634111.494,fixation,1,204,0.244,1.0,NoMusic
1635634112.75,stimulus,1,205,,0.0,NoMusic
1635634113.367,fixation,1,205,0.117,1.0,NoMusic
1635634114.75,stimulus,1,206,,0.0,NoMusic
1635634115.376,fixation,1,206,0.126,1.0,NoMusic
1635634116.75,stimulus,1,207,,0.0,NoMusic
1635634117.835,fixation,1,207,0.585,0.0,NoMusic
1635634119.187,stimulus,1,208,0.437,0.0,NoMusic
1635634119.25,fixation,1,208,,0.0,NoMusic
1635634120.75,stimulus,1,209,,0.0,NoMusic
1635634121.6,fixation,1,209,0.35,1.0,NoMusic
1635634123.166,stimulus,1,210,0.416,1.0,NoMusic
1635634123.25,fixation,1,210,,0.0,NoMusic
1635634125.131,stimulus,1,211,0.381,1.0,NoMusic
1635634125.25,fixation,1,211,,0.0,NoMusic
1635634126.75,stimulus,1,212,,0.0,NoMusic
1635634127.307,fixation,1,212,0.057,1.0,NoMusic
1635634128.75,stimulus,1,213,,0.0,NoMusic
1635634129.569,fixation,1,213,0.319,1.0,NoMusic
1635634130.75,stimulus,1,214,,0.0,NoMusic
1635634131.704,fixation,1,214,0.454,1.0,NoMusic
1635634132.75,stimulus,1,215,,0.0,NoMusic
1635634134.068,fixation,1,215,0.818,1.0,NoMusic
1635634134.75,stimulus,1,216,,0.0,NoMusic
1635634135.903,fixation,1,216,0.653,1.0,NoMusic
1635634136.75,stimulus,1,217,,0.0,NoMusic
1635634138.611,fixation,1,217,1.361,0.0,NoMusic
1635634138.75,stimulus,1,218,,0.0,NoMusic
1635634139.25,fixation,1,218,,0.0,NoMusic
1635634140.982,stimulus,1,219,0.232,1.0,NoMusic
1635634142.647,fixation,1,219,1.397,1.0,NoMusic
1635634142.75,stimulus,1,220,,0.0,NoMusic
1635634144.456,fixation,1,220,1.206,1.0,NoMusic
1635634144.75,stimulus,1,221,,,NoMusic
1635634145.25,fixation,1,221,,,NoMusic
1635634146.75,stimulus,1,222,,0.0,NoMusic
1635634147.718,fixation,1,222,0.468,1.0,NoMusic
1635634148.75,stimulus,1,223,,0.0,NoMusic
1635634149.663,fixation,1,223,0.413,1.0,NoMusic
1635634150.75,stimulus,1,224,,0.0,NoMusic
1635634151.648,fixation,1,224,0.398,1.0,NoMusic
1635634153.231,stimulus,1,225,0.481,1.0,NoMusic
1635634153.25,fixation,1,225,,0.0,NoMusic
1635634155.226,stimulus,1,226,0.476,1.0,NoMusic
1635634155.25,fixation,1,226,,0.0,NoMusic
1635634157.116,stimulus,1,227,0.366,1.0,NoMusic
1635634157.25,fixation,1,227,,0.0,NoMusic
1635634158.75,stimulus,1,228,,0.0,NoMusic
1635634159.475,fixation,1,228,0.225,0.0,NoMusic
1635634161.188,stimulus,1,229,0.438,1.0,NoMusic
1635634161.25,fixation,1,229,,0.0,NoMusic
1635634162.75,stimulus,1,230,,0.0,NoMusic
1635634163.415,fixation,1,230,0.165,1.0,NoMusic
1635634164.75,stimulus,1,231,,0.0,NoMusic
1635634165.328,fixation,1,231,0.078,1.0,NoMusic
1635634166.75,stimulus,1,232,,0.0,NoMusic
1635634167.962,fixation,1,232,0.712,1.0,NoMusic
1635634169.208,stimulus,1,233,0.458,1.0,NoMusic
1635634169.25,fixation,1,233,,0.0,NoMusic
1635634170.75,stimulus,1,234,,0.0,NoMusic
1635634171.332,fixation,1,234,0.082,1.0,NoMusic
1635634172.75,stimulus,1,235,,0.0,NoMusic
1635634173.255,fixation,1,235,0.005,0.0,NoMusic
1635634174.75,stimulus,1,236,,0.0,NoMusic
1635634175.381,fixation,1,236,0.131,1.0,NoMusic
1635634176.75,stimulus,1,237,,0.0,NoMusic
1635634177.274,fixation,1,237,0.024,1.0,NoMusic
1635634178.75,stimulus,1,238,,0.0,NoMusic
1635634179.44,fixation,1,238,0.19,0.0,NoMusic
1635634180.75,stimulus,1,239,,0.0,NoMusic
1635634181.346,fixation,1,239,0.096,1.0,NoMusic
1635634183.209,stimulus,1,240,0.459,0.0,NoMusic
1635634183.25,fixation,1,240,,0.0,NoMusic
1635634184.75,stimulus,1,241,,0.0,NoMusic
1635634185.311,fixation,1,241,0.061,1.0,NoMusic
1635634186.75,stimulus,1,242,,0.0,NoMusic
1635634187.627,fixation,1,242,0.377,1.0,NoMusic
1635634189.106,stimulus,1,243,0.356,0.0,NoMusic
1635634189.25,fixation,1,243,,0.0,NoMusic
1635634190.75,stimulus,1,244,,0.0,NoMusic
1635634191.524,fixation,1,244,0.274,1.0,NoMusic
1635634192.75,stimulus,1,245,,0.0,NoMusic
1635634193.372,fixation,1,245,0.122,1.0,NoMusic
1635634195.03,stimulus,1,246,0.28,1.0,NoMusic
1635634195.25,fixation,1,246,,0.0,NoMusic
1635634197.193,stimulus,1,247,0.443,1.0,NoMusic
1635634197.25,fixation,1,247,,0.0,NoMusic
1635634199.067,stimulus,1,248,0.317,1.0,NoMusic
1635634199.25,fixation,1,248,,0.0,NoMusic
1635634201.163,stimulus,1,249,0.413,1.0,NoMusic
1635634201.25,fixation,1,249,,0.0,NoMusic
1635634203.171,stimulus,1,250,0.421,1.0,NoMusic
1635634203.25,fixation,1,250,,0.0,NoMusic
1635634204.75,stimulus,1,251,,0.0,NoMusic
1635634205.278,fixation,1,251,0.028,1.0,NoMusic
1635634206.75,stimulus,1,252,,0.0,NoMusic
1635634207.284,fixation,1,252,0.034,1.0,NoMusic
1635634209.242,stimulus,1,253,0.492,1.0,NoMusic
1635634209.25,fixation,1,253,,0.0,NoMusic
1635634211.157,stimulus,1,254,0.407,1.0,NoMusic
1635634211.25,fixation,1,254,,0.0,NoMusic
1635634212.75,stimulus,1,255,,0.0,NoMusic
1635634213.251,fixation,1,255,0.001,1.0,NoMusic
1635634214.75,stimulus,1,256,,0.0,NoMusic
1635634215.37,fixation,1,256,0.12,1.0,NoMusic
1635634216.75,stimulus,1,257,,0.0,NoMusic
1635634217.382,fixation,1,257,0.132,1.0,NoMusic
1635634218.75,stimulus,1,258,,0.0,NoMusic
1635634220.025,fixation,1,258,0.775,1.0,NoMusic
1635634220.75,stimulus,1,259,,0.0,NoMusic
1635634221.445,fixation,1,259,0.195,1.0,NoMusic
1635634222.75,stimulus,1,260,,0.0,NoMusic
1635634223.273,fixation,1,260,0.023,1.0,NoMusic
1635634225.218,stimulus,1,261,0.468,1.0,NoMusic
1635634225.25,fixation,1,261,,0.0,NoMusic
1635634226.75,stimulus,1,262,,0.0,NoMusic
1635634227.41,fixation,1,262,0.16,1.0,NoMusic
1635634229.138,stimulus,1,263,0.388,1.0,NoMusic
1635634229.25,fixation,1,263,,0.0,NoMusic
1635634230.75,stimulus,1,264,,0.0,NoMusic
1635634231.338,fixation,1,264,0.088,1.0,NoMusic
1635634233.151,stimulus,1,265,0.401,1.0,NoMusic
1635634233.25,fixation,1,265,,0.0,NoMusic
1635634234.75,stimulus,1,266,,0.0,NoMusic
1635634235.328,fixation,1,266,0.078,1.0,NoMusic
1635634237.111,stimulus,1,267,0.361,0.0,NoMusic
1635634237.25,fixation,1,267,,0.0,NoMusic
1635634239.15,stimulus,1,268,0.4,1.0,NoMusic
1635634239.25,fixation,1,268,,0.0,NoMusic
1635634240.75,stimulus,1,269,,0.0,NoMusic
1635634241.488,fixation,1,269,0.238,1.0,NoMusic
1635634243.128,stimulus,1,270,0.378,1.0,NoMusic
1635634243.25,fixation,1,270,,0.0,NoMusic
1635634244.75,stimulus,1,271,,0.0,NoMusic
1635634245.265,fixation,1,271,0.015,1.0,NoMusic
1635634247.181,stimulus,1,272,0.431,0.0,NoMusic
1635634247.457,fixation,1,272,0.207,1.0,NoMusic
1635634249.237,stimulus,1,273,0.487,1.0,NoMusic
1635634249.25,fixation,1,273,,0.0,NoMusic
1635634250.75,stimulus,1,274,,0.0,NoMusic
1635634251.285,fixation,1,274,0.035,1.0,NoMusic
1635634253.235,stimulus,1,275,0.485,1.0,NoMusic
1635634253.25,fixation,1,275,,0.0,NoMusic
1635634255.123,stimulus,1,276,0.373,1.0,NoMusic
1635634255.25,fixation,1,276,,0.0,NoMusic
1635634257.169,stimulus,1,277,0.419,1.0,NoMusic
1635634257.25,fixation,1,277,,0.0,NoMusic
1635634259.187,stimulus,1,278,0.437,1.0,NoMusic
1635634259.25,fixation,1,278,,0.0,NoMusic
1635634261.227,stimulus,1,279,0.477,1.0,NoMusic
1635634261.25,fixation,1,279,,0.0,NoMusic
1635634262.75,stimulus,1,280,,0.0,NoMusic
1635634263.263,fixation,1,280,0.013,1.0,NoMusic
1635634264.75,stimulus,1,281,,0.0,NoMusic
1635634265.744,fixation,1,281,0.494,1.0,NoMusic
1635634266.75,stimulus,1,282,,0.0,NoMusic
1635634267.388,fixation,1,282,0.138,1.0,NoMusic
1635634268.75,stimulus,1,283,,0.0,NoMusic
1635634269.434,fixation,1,283,0.184,1.0,NoMusic
1635634270.75,stimulus,1,284,,0.0,NoMusic
1635634271.276,fixation,1,284,0.026,1.0,NoMusic
1635634273.171,stimulus,1,285,0.421,1.0,NoMusic
1635634273.25,fixation,1,285,,0.0,NoMusic
1635634274.75,stimulus,1,286,,0.0,NoMusic
1635634275.385,fixation,1,286,0.135,1.0,NoMusic
1635634276.75,stimulus,1,287,,0.0,NoMusic
1635634277.297,fixation,1,287,0.047,1.0,NoMusic
1635634278.75,stimulus,1,288,,0.0,NoMusic
1635634279.359,fixation,1,288,0.109,1.0,NoMusic
1635634281.107,stimulus,1,289,0.357,1.0,NoMusic
1635634281.25,fixation,1,289,,0.0,NoMusic
1635634283.244,stimulus,1,290,0.494,1.0,NoMusic
1635634283.25,fixation,1,290,,0.0,NoMusic
1635634284.75,stimulus,1,291,,0.0,NoMusic
1635634285.337,fixation,1,291,0.087,1.0,NoMusic
1635634286.75,stimulus,1,292,,0.0,NoMusic
1635634287.273,fixation,1,292,0.023,1.0,NoMusic
1635634288.75,stimulus,1,293,,0.0,NoMusic
1635634289.251,fixation,1,293,0.001,1.0,NoMusic
1635634291.159,stimulus,1,294,0.409,1.0,NoMusic
1635634291.25,fixation,1,294,,0.0,NoMusic
1635634293.104,stimulus,1,295,0.354,0.0,NoMusic
1635634293.25,fixation,1,295,,0.0,NoMusic
1635634294.75,stimulus,1,296,,0.0,NoMusic
1635634295.273,fixation,1,296,0.023,0.0,NoMusic
1635634297.222,stimulus,1,297,0.472,1.0,NoMusic
1635634297.25,fixation,1,297,,0.0,NoMusic
1635634298.75,stimulus,1,298,,0.0,NoMusic
1635634299.292,fixation,1,298,0.042,0.0,NoMusic
1635634301.184,stimulus,1,299,0.434,1.0,NoMusic
1635634301.25,fixation,1,299,,0.0,NoMusic
1635634302.75,stimulus,1,300,,0.0,NoMusic
1635634303.339,fixation,1,300,0.089,1.0,NoMusic
1635634305.057,stimulus,1,301,0.307,1.0,NoMusic
1635634305.25,fixation,1,301,,0.0,NoMusic
1635634307.026,stimulus,1,302,0.276,1.0,NoMusic
1635634307.25,fixation,1,302,,0.0,NoMusic
1635634308.75,stimulus,1,303,,0.0,NoMusic
1635634309.291,fixation,1,303,0.041,1.0,NoMusic
1635634311.171,stimulus,1,304,0.421,1.0,NoMusic
1635634311.25,fixation,1,304,,0.0,NoMusic
1635634312.75,stimulus,1,305,,0.0,NoMusic
1635634313.277,fixation,1,305,0.027,1.0,NoMusic
1635634314.75,stimulus,1,306,,0.0,NoMusic
1635634315.751,fixation,1,306,0.501,0.0,NoMusic
1635634317.166,stimulus,1,307,0.416,1.0,NoMusic
1635634317.25,fixation,1,307,,0.0,NoMusic
1635634318.75,stimulus,1,308,,0.0,NoMusic
1635634319.319,fixation,1,308,0.069,1.0,NoMusic
1635634320.75,stimulus,1,309,,0.0,NoMusic
1635634321.299,fixation,1,309,0.049,1.0,NoMusic
1635634322.75,stimulus,1,310,,0.0,NoMusic
1635634323.695,fixation,1,310,0.445,1.0,NoMusic
1635634325.109,stimulus,1,311,0.359,1.0,NoMusic
1635634325.25,fixation,1,311,,0.0,NoMusic
1635634327.103,stimulus,1,312,0.353,1.0,NoMusic
1635634327.25,fixation,1,312,,0.0,NoMusic
1635634329.18,stimulus,1,313,0.43,1.0,NoMusic
1635634329.25,fixation,1,313,,0.0,NoMusic
1635634331.158,stimulus,1,314,0.408,1.0,NoMusic
1635634331.25,fixation,1,314,,0.0,NoMusic
1635634333.194,stimulus,1,315,0.444,1.0,NoMusic
1635634333.25,fixation,1,315,,0.0,NoMusic
1635634334.75,stimulus,1,316,,0.0,NoMusic
1635634335.299,fixation,1,316,0.049,1.0,NoMusic
1635634337.234,stimulus,1,317,0.484,1.0,NoMusic
1635634337.25,fixation,1,317,,0.0,NoMusic
1635634339.152,stimulus,1,318,0.402,1.0,NoMusic
1635634339.25,fixation,1,318,,0.0,NoMusic
1635634341.153,stimulus,1,319,0.403,1.0,NoMusic
1635634341.25,fixation,1,319,,0.0,NoMusic
1635634343.21,stimulus,1,320,0.46,0.0,NoMusic
1635634343.25,fixation,1,320,,0.0,NoMusic
1635634345.182,stimulus,1,321,0.432,1.0,NoMusic
1635634345.25,fixation,1,321,,0.0,NoMusic
1635634346.75,stimulus,1,322,,0.0,NoMusic
1635634347.394,fixation,1,322,0.144,1.0,NoMusic
1635634348.75,stimulus,1,323,,0.0,NoMusic
1635634349.535,fixation,1,323,0.285,1.0,NoMusic
1635634351.197,stimulus,1,324,0.447,0.0,NoMusic
1635634351.25,fixation,1,324,,0.0,NoMusic
1635634352.75,stimulus,1,325,,0.0,NoMusic
1635634353.288,fixation,1,325,0.038,1.0,NoMusic
1635634355.134,stimulus,1,326,0.384,1.0,NoMusic
1635634355.25,fixation,1,326,,0.0,NoMusic
1635634357.158,stimulus,1,327,0.408,1.0,NoMusic
1635634357.25,fixation,1,327,,0.0,NoMusic
1635634359.167,stimulus,1,328,0.417,0.0,NoMusic
1635634359.25,fixation,1,328,,0.0,NoMusic
1635634361.245,stimulus,1,329,0.495,1.0,NoMusic
1635634361.25,fixation,1,329,,0.0,NoMusic
1635634363.147,stimulus,1,330,0.397,1.0,NoMusic
1635634363.25,fixation,1,330,,0.0,NoMusic
1635634365.167,stimulus,1,331,0.417,1.0,NoMusic
1635634365.25,fixation,1,331,,0.0,NoMusic
1635634366.75,stimulus,1,332,,0.0,NoMusic
1635634367.595,fixation,1,332,0.345,1.0,NoMusic
1635634369.246,stimulus,1,333,0.496,1.0,NoMusic
1635634369.453,fixation,1,333,0.203,1.0,NoMusic
1635634370.75,stimulus,1,334,,0.0,NoMusic
1635634371.283,fixation,1,334,0.033,1.0,NoMusic
1635634372.75,stimulus,1,335,,0.0,NoMusic
1635634373.968,fixation,1,335,0.718,0.0,NoMusic
1635634375.198,stimulus,1,336,0.448,1.0,NoMusic
1635634375.25,fixation,1,336,,0.0,NoMusic
1635634377.21,stimulus,1,337,0.46,1.0,NoMusic
1635634377.25,fixation,1,337,,0.0,NoMusic
1635634379.129,stimulus,1,338,0.379,1.0,NoMusic
1635634379.25,fixation,1,338,,0.0,NoMusic
1635634381.088,stimulus,1,339,0.338,1.0,NoMusic
1635634381.831,fixation,1,339,0.581,0.0,NoMusic
1635634382.75,stimulus,1,340,,0.0,NoMusic
1635634383.324,fixation,1,340,0.074,1.0,NoMusic
1635634385.202,stimulus,1,341,0.452,1.0,NoMusic
1635634385.25,fixation,1,341,,0.0,NoMusic
1635634387.151,stimulus,1,342,0.401,1.0,NoMusic
1635634387.25,fixation,1,342,,0.0,NoMusic
1635634389.224,stimulus,1,343,0.474,1.0,NoMusic
1635634389.25,fixation,1,343,,0.0,NoMusic
1635634390.75,stimulus,1,344,,0.0,NoMusic
1635634391.343,fixation,1,344,0.093,1.0,NoMusic
1635634393.226,stimulus,1,345,0.476,1.0,NoMusic
1635634393.25,fixation,1,345,,0.0,NoMusic
1635634395.212,stimulus,1,346,0.462,1.0,NoMusic
1635634395.25,fixation,1,346,,0.0,NoMusic
1635634396.75,stimulus,1,347,,0.0,NoMusic
1635634397.494,fixation,1,347,0.244,1.0,NoMusic
1635634398.75,stimulus,1,348,,0.0,NoMusic
1635634399.299,fixation,1,348,0.049,1.0,NoMusic
1635634401.158,stimulus,1,349,0.408,1.0,NoMusic
1635634401.25,fixation,1,349,,0.0,NoMusic
1635634402.75,stimulus,1,350,,0.0,NoMusic
1635634404.34,fixation,1,350,1.09,1.0,NoMusic
1635634404.75,stimulus,1,351,,0.0,NoMusic
1635634405.443,fixation,1,351,0.193,1.0,NoMusic
1635634406.75,stimulus,1,352,,0.0,NoMusic
1635634407.299,fixation,1,352,0.049,1.0,NoMusic
1635634409.152,stimulus,1,353,0.402,0.0,NoMusic
1635634409.508,fixation,1,353,0.258,1.0,NoMusic
1635634411.173,stimulus,1,354,0.423,1.0,NoMusic
1635634411.25,fixation,1,354,,0.0,NoMusic
1635634413.035,stimulus,1,355,0.285,1.0,NoMusic
1635634413.25,fixation,1,355,,0.0,NoMusic
1635634415.047,stimulus,1,356,0.297,1.0,NoMusic
1635634415.25,fixation,1,356,,0.0,NoMusic
1635634417.241,stimulus,1,357,0.491,1.0,NoMusic
1635634417.25,fixation,1,357,,0.0,NoMusic
1635634418.75,stimulus,1,358,,0.0,NoMusic
1635634419.343,fixation,1,358,0.093,1.0,NoMusic
1635634420.75,stimulus,1,359,,0.0,NoMusic
1635634421.25,fixation,1,359,,0.0,NoMusic
1635634423.171,stimulus,1,360,0.421,1.0,NoMusic
1635634423.25,fixation,1,360,,0.0,NoMusic
1635634425.143,stimulus,1,361,0.393,1.0,NoMusic
1635634425.25,fixation,1,361,,0.0,NoMusic
1635634427.159,stimulus,1,362,0.409,1.0,NoMusic
1635634427.25,fixation,1,362,,0.0,NoMusic
1635634428.75,stimulus,1,363,,0.0,NoMusic
1635634429.371,fixation,1,363,0.121,0.0,NoMusic
1635634431.234,stimulus,1,364,0.484,1.0,NoMusic
1635634431.25,fixation,1,364,,0.0,NoMusic
1635634432.75,stimulus,1,365,,0.0,NoMusic
1635634433.263,fixation,1,365,0.013,1.0,NoMusic
1635634434.75,stimulus,1,366,,0.0,NoMusic
1635634435.383,fixation,1,366,0.133,1.0,NoMusic
1635634437.187,stimulus,1,367,0.437,1.0,NoMusic
1635634437.25,fixation,1,367,,0.0,NoMusic
1635634438.75,stimulus,1,368,,0.0,NoMusic
1635634439.269,fixation,1,368,0.019,1.0,NoMusic
1635634440.75,stimulus,1,369,,0.0,NoMusic
1635634441.421,fixation,1,369,0.171,0.0,NoMusic
1635634442.75,stimulus,1,370,,0.0,NoMusic
1635634443.395,fixation,1,370,0.145,1.0,NoMusic
1635634445.152,stimulus,1,371,0.402,1.0,NoMusic
1635634445.25,fixation,1,371,,0.0,NoMusic
1635634446.75,stimulus,1,372,,0.0,NoMusic
1635634447.304,fixation,1,372,0.054,1.0,NoMusic
1635634448.75,stimulus,1,373,,0.0,NoMusic
1635634449.726,fixation,1,373,0.476,1.0,NoMusic
1635634450.75,stimulus,1,374,,0.0,NoMusic
1635634451.348,fixation,1,374,0.098,0.0,NoMusic
1635634453.214,stimulus,1,375,0.464,1.0,NoMusic
1635634453.25,fixation,1,375,,0.0,NoMusic
1635634454.75,stimulus,1,376,,0.0,NoMusic
1635634455.672,fixation,1,376,0.422,1.0,NoMusic
1635634456.75,stimulus,1,377,,0.0,NoMusic
1635634457.38,fixation,1,377,0.13,1.0,NoMusic
1635634459.203,stimulus,1,378,0.453,1.0,NoMusic
1635634459.25,fixation,1,378,,0.0,NoMusic
1635634461.232,stimulus,1,379,0.482,1.0,NoMusic
1635634461.25,fixation,1,379,,0.0,NoMusic
1635634463.086,stimulus,1,380,0.336,1.0,NoMusic
1635634463.25,fixation,1,380,,0.0,NoMusic
1635634465.215,stimulus,1,381,0.465,1.0,NoMusic
1635634465.25,fixation,1,381,,0.0,NoMusic
1635634467.176,stimulus,1,382,0.426,0.0,NoMusic
1635634467.502,fixation,1,382,0.252,1.0,NoMusic
1635634469.18,stimulus,1,383,0.43,1.0,NoMusic
1635634469.25,fixation,1,383,,0.0,NoMusic
1635634470.75,stimulus,1,384,,0.0,NoMusic
1635634471.496,fixation,1,384,0.246,1.0,NoMusic
1635634472.75,stimulus,1,385,,0.0,NoMusic
1635634473.577,fixation,1,385,0.327,1.0,NoMusic
1635634474.75,stimulus,1,386,,0.0,NoMusic
1635634475.388,fixation,1,386,0.138,1.0,NoMusic
1635634476.75,stimulus,1,387,,0.0,NoMusic
1635634477.563,fixation,1,387,0.313,1.0,NoMusic
1635634478.75,stimulus,1,388,,0.0,NoMusic
1635634479.45,fixation,1,388,0.2,1.0,NoMusic
1635634480.75,stimulus,1,389,,0.0,NoMusic
1635634481.527,fixation,1,389,0.277,1.0,NoMusic
1635634483.205,stimulus,1,390,0.455,1.0,NoMusic
1635634483.25,fixation,1,390,,0.0,NoMusic
1635634484.75,stimulus,1,391,,0.0,NoMusic
1635634485.33,fixation,1,391,0.08,1.0,NoMusic
1635634487.24,stimulus,1,392,0.49,1.0,NoMusic
1635634487.25,fixation,1,392,,0.0,NoMusic
1635634488.75,stimulus,1,393,,0.0,NoMusic
1635634489.507,fixation,1,393,0.257,1.0,NoMusic
1635634490.75,stimulus,1,394,,0.0,NoMusic
1635634491.25,fixation,1,394,,0.0,NoMusic
1635634492.75,stimulus,1,395,,0.0,NoMusic
1635634493.456,fixation,1,395,0.206,1.0,NoMusic
1635634494.75,stimulus,1,396,,0.0,NoMusic
1635634495.332,fixation,1,396,0.082,1.0,NoMusic
1635634497.21,stimulus,1,397,0.46,1.0,NoMusic
1635634497.25,fixation,1,397,,0.0,NoMusic
1635634498.75,stimulus,1,398,,,RelaxSession
1635634499.25,fixation,1,398,,,RelaxSession
1635634500.75,stimulus,1,399,,,RelaxSession
1635634501.25,fixation,1,399,,,RelaxSession
1635634502.75,stimulus,1,400,,,RelaxSession
1635634503.25,fixation,1,400,,,RelaxSession
1635634504.75,stimulus,1,401,,,RelaxSession
1635634505.25,fixation,1,401,,,RelaxSession
1635634506.75,stimulus,1,402,,,RelaxSession
1635634507.25,fixation,1,402,,,RelaxSession
1635634508.75,stimulus,1,403,,,RelaxSession
1635634509.25,fixation,1,403,,,RelaxSession
1635634510.75,stimulus,1,404,,,RelaxSession
1635634511.25,fixation,1,404,,,RelaxSession
1635634512.75,stimulus,1,405,,,RelaxSession
1635634513.25,fixation,1,405,,,RelaxSession
1635634514.75,stimulus,1,406,,,RelaxSession
1635634515.25,fixation,1,406,,,RelaxSession
1635634516.75,stimulus,1,407,,,RelaxSession
1635634517.25,fixation,1,407,,,RelaxSession
1635634518.75,stimulus,1,408,,,RelaxSession
1635634519.25,fixation,1,408,,,RelaxSession
1635634520.75,stimulus,1,409,,,RelaxSession
1635634521.25,fixation,1,409,,,RelaxSession
1635634522.75,stimulus,1,410,,,RelaxSession
1635634523.25,fixation,1,410,,,RelaxSession
1635634524.75,stimulus,1,411,,,RelaxSession
1635634525.25,fixation,1,411,,,RelaxSession
1635634526.75,stimulus,1,412,,,RelaxSession
1635634527.25,fixation,1,412,,,RelaxSession
1635634528.75,stimulus,1,413,,,RelaxSession
1635634529.25,fixation,1,413,,,RelaxSession
1635634530.75,stimulus,1,414,,,RelaxSession
1635634531.25,fixation,1,414,,,RelaxSession
1635634532.75,stimulus,1,415,,,RelaxSession
1635634533.25,fixation,1,415,,,RelaxSession
1635634534.75,stimulus,1,416,,,RelaxSession
1635634535.25,fixation,1,416,,,RelaxSession
1635634536.75,stimulus,1,417,,,RelaxSession
1635634537.25,fixation,1,417,,,RelaxSession
1635634538.75,stimulus,1,418,,,RelaxSession
1635634539.25,fixation,1,418,,,RelaxSession
1635634540.75,stimulus,1,419,,,RelaxSession
1635634541.25,fixation,1,419,,,RelaxSession
1635634542.75,stimulus,1,420,,,RelaxSession
1635634543.25,fixation,1,420,,,RelaxSession
1635634544.75,stimulus,1,421,,,RelaxSession
1635634545.25,fixation,1,421,,,RelaxSession
1635634546.75,stimulus,1,422,,,RelaxSession
1635634547.25,fixation,1,422,,,RelaxSession
1635634548.75,stimulus,1,423,,,RelaxSession
1635634549.25,fixation,1,423,,,RelaxSession
1635634550.75,stimulus,1,424,,,RelaxSession
1635634551.25,fixation,1,424,,,RelaxSession
1635634552.75,stimulus,1,425,,,RelaxSession
1635634553.25,fixation,1,425,,,RelaxSession
1635634554.75,stimulus,1,426,,,RelaxSession
1635634555.25,fixation,1,426,,,RelaxSession
1635634556.75,stimulus,1,427,,,RelaxSession
1635634557.25,fixation,1,427,,,RelaxSession
1635634558.75,stimulus,1,428,,,RelaxSession
1635634559.25,fixation,1,428,,,RelaxSession
1635634560.75,stimulus,1,429,,,RelaxSession
1635634561.25,fixation,1,429,,,RelaxSession
1635634562.75,stimulus,1,430,,,RelaxSession
1635634563.25,fixation,1,430,,,RelaxSession
1635634564.75,stimulus,1,431,,,RelaxSession
1635634565.25,fixation,1,431,,,RelaxSession
1635634566.75,stimulus,1,432,,,RelaxSession
1635634567.25,fixation,1,432,,,RelaxSession
1635634568.75,stimulus,1,433,,,RelaxSession
1635634569.25,fixation,1,433,,,RelaxSession
1635634570.75,stimulus,1,434,,,RelaxSession
1635634571.25,fixation,1,434,,,RelaxSession
1635634572.75,stimulus,1,435,,,RelaxSession
1635634573.25,fixation,1,435,,,RelaxSession
1635634574.75,stimulus,1,436,,,RelaxSession
1635634575.25,fixation,1,436,,,RelaxSession
1635634576.75,stimulus,1,437,,,RelaxSession
1635634577.25,fixation,1,437,,,RelaxSession
1635634578.75,stimulus,1,438,,,RelaxSession
1635634579.25,fixation,1,438,,,RelaxSession
1635634580.75,stimulus,1,439,,,RelaxSession
1635634581.25,fixation,1,439,,,RelaxSession
1635634582.75,stimulus,1,440,,,RelaxSession
1635634583.25,fixation,1,440,,,RelaxSession
1635634584.75,stimulus,1,441,,,RelaxSession
1635634585.25,fixation,1,441,,,RelaxSession
1635634586.75,stimulus,1,442,,,RelaxSession
1635634587.25,fixation,1,442,,,RelaxSession
1635634588.75,stimulus,1,443,,,RelaxSession
1635634589.25,fixation,1,443,,,RelaxSession
1635634590.75,stimulus,1,444,,,RelaxSession
1635634591.25,fixation,1,444,,,RelaxSession
1635634592.75,stimulus,1,445,,,RelaxSession
1635634593.25,fixation,1,445,,,RelaxSession
1635634594.75,stimulus,1,446,,,RelaxSession
1635634595.25,fixation,1,446,,,RelaxSession
1635634596.75,stimulus,1,447,,,RelaxSession
1635634597.25,fixation,1,447,,,RelaxSession
1635634598.75,stimulus,1,448,,,RelaxSession
1635634599.25,fixation,1,448,,,RelaxSession
1635634600.75,stimulus,1,449,,,RelaxSession
1635634601.25,fixation,1,449,,,RelaxSession
1635634602.75,stimulus,1,450,,,RelaxSession
1635634603.25,fixation,1,450,,,RelaxSession
1635634604.75,stimulus,1,451,,,RelaxSession
1635634605.25,fixation,1,451,,,RelaxSession
1635634606.75,stimulus,1,452,,,RelaxSession
1635634607.25,fixation,1,452,,,RelaxSession
1635634608.75,stimulus,1,453,,,RelaxSession
1635634609.25,fixation,1,453,,,RelaxSession
1635634610.75,stimulus,1,454,,,RelaxSession
1635634611.25,fixation,1,454,,,RelaxSession
1635634612.75,stimulus,1,455,,,RelaxSession
1635634613.25,fixation,1,455,,,RelaxSession
1635634614.75,stimulus,1,456,,,RelaxSession
1635634615.25,fixation,1,456,,,RelaxSession
1635634616.75,stimulus,1,457,,,RelaxSession
1635634617.25,fixation,1,457,,,RelaxSession
1635634618.75,stimulus,1,458,,,RelaxSession
1635634619.25,fixation,1,458,,,RelaxSession
1635634620.75,stimulus,1,459,,,RelaxSession
1635634621.25,fixation,1,459,,,RelaxSession
1635634622.75,stimulus,1,460,,,RelaxSession
1635634623.25,fixation,1,460,,,RelaxSession
1635634624.75,stimulus,1,461,,,RelaxSession
1635634625.25,fixation,1,461,,,RelaxSession
1635634626.75,stimulus,1,462,,,RelaxSession
1635634627.25,fixation,1,462,,,RelaxSession
1635634628.75,stimulus,1,463,,,RelaxSession
1635634629.25,fixation,1,463,,,RelaxSession
1635634630.75,stimulus,1,464,,,RelaxSession
1635634631.25,fixation,1,464,,,RelaxSession
1635634632.75,stimulus,1,465,,,RelaxSession
1635634633.25,fixation,1,465,,,RelaxSession
1635634634.75,stimulus,1,466,,,RelaxSession
1635634635.25,fixation,1,466,,,RelaxSession
1635634636.75,stimulus,1,467,,,RelaxSession
1635634637.25,fixation,1,467,,,RelaxSession
1635634638.75,stimulus,1,468,,,RelaxSession
1635634639.25,fixation,1,468,,,RelaxSession
1635634640.75,stimulus,1,469,,,RelaxSession
1635634641.25,fixation,1,469,,,RelaxSession
1635634642.75,stimulus,1,470,,,RelaxSession
1635634643.25,fixation,1,470,,,RelaxSession
1635634644.75,stimulus,1,471,,,RelaxSession
1635634645.25,fixation,1,471,,,RelaxSession
1635634646.75,stimulus,1,472,,,RelaxSession
1635634647.25,fixation,1,472,,,RelaxSession
1635634648.75,stimulus,1,473,,,RelaxSession
1635634649.25,fixation,1,473,,,RelaxSession
1635634650.75,stimulus,1,474,,,RelaxSession
1635634651.25,fixation,1,474,,,RelaxSession
1635634652.75,stimulus,1,475,,,RelaxSession
1635634653.25,fixation,1,475,,,RelaxSession
1635634654.75,stimulus,1,476,,,RelaxSession
1635634655.25,fixation,1,476,,,RelaxSession
1635634656.75,stimulus,1,477,,,RelaxSession
1635634657.25,fixation,1,477,,,RelaxSession
1635634658.75,stimulus,1,478,,,RelaxSession
1635634659.25,fixation,1,478,,,RelaxSession
1635634660.75,stimulus,1,479,,,RelaxSession
1635634661.25,fixation,1,479,,,RelaxSession
1635634662.75,stimulus,1,480,,,RelaxSession
1635634663.25,fixation,1,480,,,RelaxSession
1635634664.75,stimulus,1,481,,,RelaxSession
1635634665.25,fixation,1,481,,,RelaxSession
1635634666.75,stimulus,1,482,,,RelaxSession
1635634667.25,fixation,1,482,,,RelaxSession
1635634668.75,stimulus,1,483,,,RelaxSession
1635634669.25,fixation,1,483,,,RelaxSession
1635634670.75,stimulus,1,484,,,RelaxSession
1635634671.25,fixation,1,484,,,RelaxSession
1635634672.75,stimulus,1,485,,,RelaxSession
1635634673.25,fixation,1,485,,,RelaxSession
1635634674.75,stimulus,1,486,,,RelaxSession
1635634675.25,fixation,1,486,,,RelaxSession
1635634676.75,stimulus,1,487,,,RelaxSession
1635634677.25,fixation,1,487,,,RelaxSession
1635634678.75,stimulus,1,488,,,RelaxSession
1635634679.25,fixation,1,488,,,RelaxSession
1635634679.67,stimulus,2,1,,,PracticeSession
1635634680.17,fixation,2,1,,,PracticeSession
1635634680.75,stimulus,1,489,,,RelaxSession
1635634681.25,fixation,1,489,,,RelaxSession
1635634681.67,stimulus,2,2,,,PracticeSession
1635634682.17,fixation,2,2,,,PracticeSession
1635634682.75,stimulus,1,490,,,RelaxSession
1635634683.25,fixation,1,490,,,RelaxSession
1635634683.67,stimulus,2,3,,,PracticeSession
1635634684.17,fixation,2,3,,,PracticeSession
1635634684.75,stimulus,1,491,,,RelaxSession
1635634685.25,fixation,1,491,,,RelaxSession
1635634685.67,stimulus,2,4,,,PracticeSession
1635634686.17,fixation,2,4,,,PracticeSession
1635634686.75,stimulus,1,492,,,RelaxSession
1635634687.25,fixation,1,492,,,RelaxSession
1635634687.67,stimulus,2,5,,,PracticeSession
1635634688.17,fixation,2,5,,,PracticeSession
1635634688.75,stimulus,1,493,,,RelaxSession
1635634689.25,fixation,1,493,,,RelaxSession
1635634689.67,stimulus,2,6,,,PracticeSession
1635634690.17,fixation,2,6,,,PracticeSession
1635634690.75,stimulus,1,494,,,RelaxSession
1635634691.25,fixation,1,494,,,RelaxSession
1635634691.67,stimulus,2,7,,,PracticeSession
1635634692.17,fixation,2,7,,,PracticeSession
1635634692.75,stimulus,1,495,,,RelaxSession
1635634693.25,fixation,1,495,,,RelaxSession
1635634693.67,stimulus,2,8,,,PracticeSession
1635634694.17,fixation,2,8,,,PracticeSession
1635634694.75,stimulus,1,496,,,RelaxSession
1635634695.25,fixation,1,496,,,RelaxSession
1635634695.67,stimulus,2,9,,,PracticeSession
1635634696.17,fixation,2,9,,,PracticeSession
1635634696.75,stimulus,1,497,,,RelaxSession
1635634697.25,fixation,1,497,,,RelaxSession
1635634697.67,stimulus,2,10,,,PracticeSession
1635634698.17,fixation,2,10,,,PracticeSession
1635634698.75,stimulus,1,498,,,RelaxSession
1635634699.25,fixation,1,498,,,RelaxSession
1635634699.67,stimulus,2,11,,,PracticeSession
1635634700.17,fixation,2,11,,,PracticeSession
1635634700.75,stimulus,1,499,,,RelaxSession
1635634701.25,fixation,1,499,,,RelaxSession
1635634701.67,stimulus,2,12,,,PracticeSession
1635634702.17,fixation,2,12,,,PracticeSession
1635634702.75,stimulus,1,500,,,RelaxSession
1635634703.25,fixation,1,500,,,RelaxSession
1635634703.67,stimulus,2,13,,,PracticeSession
1635634704.17,fixation,2,13,,,PracticeSession
1635634704.75,stimulus,1,501,,,RelaxSession
1635634705.25,fixation,1,501,,,RelaxSession
1635634705.67,stimulus,2,14,,,PracticeSession
1635634706.17,fixation,2,14,,,PracticeSession
1635634706.75,stimulus,1,502,,,RelaxSession
1635634707.25,fixation,1,502,,,RelaxSession
1635634707.67,stimulus,2,15,,,PracticeSession
1635634708.17,fixation,2,15,,,PracticeSession
1635634708.75,stimulus,1,503,,,RelaxSession
1635634709.25,fixation,1,503,,,RelaxSession
1635634709.67,stimulus,2,16,,,PracticeSession
1635634710.17,fixation,2,16,,,PracticeSession
1635634710.75,stimulus,1,504,,,RelaxSession
1635634711.25,fixation,1,504,,,RelaxSession
1635634711.67,stimulus,2,17,,,PracticeSession
1635634712.17,fixation,2,17,,,PracticeSession
1635634712.75,stimulus,1,505,,,RelaxSession
1635634713.25,fixation,1,505,,,RelaxSession
1635634713.67,stimulus,2,18,,,PracticeSession
1635634714.17,fixation,2,18,,,PracticeSession
1635634714.75,stimulus,1,506,,,RelaxSession
1635634715.25,fixation,1,506,,,RelaxSession
1635634715.67,stimulus,2,19,,,PracticeSession
1635634716.17,fixation,2,19,,,PracticeSession
1635634716.75,stimulus,1,507,,,RelaxSession
1635634717.25,fixation,1,507,,,RelaxSession
1635634717.67,stimulus,2,20,,,PracticeSession
1635634718.17,fixation,2,20,,,PracticeSession
1635634718.75,stimulus,1,508,,,RelaxSession
1635634719.25,fixation,1,508,,,RelaxSession
1635634719.67,stimulus,2,21,,,PracticeSession
1635634720.17,fixation,2,21,,,PracticeSession
1635634720.75,stimulus,1,509,,,RelaxSession
1635634721.25,fixation,1,509,,,RelaxSession
1635634721.67,stimulus,2,22,,,PracticeSession
1635634722.17,fixation,2,22,,,PracticeSession
1635634722.75,stimulus,1,510,,,RelaxSession
1635634723.25,fixation,1,510,,,RelaxSession
1635634723.67,stimulus,2,23,,,PracticeSession
1635634724.17,fixation,2,23,,,PracticeSession
1635634724.75,stimulus,1,511,,,RelaxSession
1635634725.25,fixation,1,511,,,RelaxSession
1635634725.67,stimulus,2,24,,,PracticeSession
1635634726.17,fixation,2,24,,,PracticeSession
1635634726.75,stimulus,1,512,,,RelaxSession
1635634727.25,fixation,1,512,,,RelaxSession
1635634727.67,stimulus,2,25,,,PracticeSession
1635634728.17,fixation,2,25,,,PracticeSession
1635634728.75,stimulus,1,513,,,RelaxSession
1635634729.25,fixation,1,513,,,RelaxSession
1635634729.67,stimulus,2,26,,,PracticeSession
1635634730.17,fixation,2,26,,,PracticeSession
1635634730.75,stimulus,1,514,,,RelaxSession
1635634731.25,fixation,1,514,,,RelaxSession
1635634731.67,stimulus,2,27,,,PracticeSession
1635634732.17,fixation,2,27,,,PracticeSession
1635634732.75,stimulus,1,515,,,RelaxSession
1635634733.25,fixation,1,515,,,RelaxSession
1635634733.67,stimulus,2,28,,,PracticeSession
1635634734.17,fixation,2,28,,,PracticeSession
1635634734.75,stimulus,1,516,,,RelaxSession
1635634735.25,fixation,1,516,,,RelaxSession
1635634735.67,stimulus,2,29,,,PracticeSession
1635634736.17,fixation,2,29,,,PracticeSession
1635634736.75,stimulus,1,517,,,RelaxSession
1635634737.25,fixation,1,517,,,RelaxSession
1635634737.67,stimulus,2,30,,,PracticeSession
1635634738.17,fixation,2,30,,,PracticeSession
1635634738.75,stimulus,1,518,,,RelaxSession
1635634739.25,fixation,1,518,,,RelaxSession
1635634739.67,stimulus,2,31,,,PracticeSession
1635634740.17,fixation,2,31,,,PracticeSession
1635634740.75,stimulus,1,519,,,RelaxSession
1635634741.25,fixation,1,519,,,RelaxSession
1635634741.67,stimulus,2,32,,,PracticeSession
1635634742.17,fixation,2,32,,,PracticeSession
1635634742.75,stimulus,1,520,,,RelaxSession
1635634743.25,fixation,1,520,,,RelaxSession
1635634743.67,stimulus,2,33,,,PracticeSession
1635634744.17,fixation,2,33,,,PracticeSession
1635634744.75,stimulus,1,521,,,RelaxSession
1635634745.25,fixation,1,521,,,RelaxSession
1635634745.67,stimulus,2,34,,,PracticeSession
1635634746.17,fixation,2,34,,,PracticeSession
1635634746.75,stimulus,1,522,,,RelaxSession
1635634747.25,fixation,1,522,,,RelaxSession
1635634747.67,stimulus,2,35,,,PracticeSession
1635634748.17,fixation,2,35,,,PracticeSession
1635634748.75,stimulus,1,523,,,RelaxSession
1635634749.25,fixation,1,523,,,RelaxSession
1635634749.67,stimulus,2,36,,,PracticeSession
1635634750.17,fixation,2,36,,,PracticeSession
1635634750.75,stimulus,1,524,,,RelaxSession
1635634751.25,fixation,1,524,,,RelaxSession
1635634751.67,stimulus,2,37,,,PracticeSession
1635634752.17,fixation,2,37,,,PracticeSession
1635634752.75,stimulus,1,525,,,RelaxSession
1635634753.25,fixation,1,525,,,RelaxSession
1635634753.67,stimulus,2,38,,,PracticeSession
1635634754.17,fixation,2,38,,,PracticeSession
1635634754.75,stimulus,1,526,,,RelaxSession
1635634755.25,fixation,1,526,,,RelaxSession
1635634755.67,stimulus,2,39,,,PracticeSession
1635634756.17,fixation,2,39,,,PracticeSession
1635634756.75,stimulus,1,527,,,RelaxSession
1635634757.25,fixation,1,527,,,RelaxSession
1635634757.67,stimulus,2,40,,,PracticeSession
1635634758.17,fixation,2,40,,,PracticeSession
1635634758.75,stimulus,1,528,,,RelaxSession
1635634759.25,fixation,1,528,,,RelaxSession
1635634759.67,stimulus,2,41,,,PracticeSession
1635634760.17,fixation,2,41,,,PracticeSession
1635634760.75,stimulus,1,529,,,RelaxSession
1635634761.25,fixation,1,529,,,RelaxSession
1635634761.67,stimulus,2,42,,,PracticeSession
1635634762.17,fixation,2,42,,,PracticeSession
1635634762.75,stimulus,1,530,,,RelaxSession
1635634763.25,fixation,1,530,,,RelaxSession
1635634763.67,stimulus,2,43,,,PracticeSession
1635634764.17,fixation,2,43,,,PracticeSession
1635634764.75,stimulus,1,531,,,RelaxSession
1635634765.25,fixation,1,531,,,RelaxSession
1635634765.67,stimulus,2,44,,,PracticeSession
1635634766.17,fixation,2,44,,,PracticeSession
1635634766.75,stimulus,1,532,,,RelaxSession
1635634767.25,fixation,1,532,,,RelaxSession
1635634767.67,stimulus,2,45,,,NoMusic
1635634768.17,fixation,2,45,,,NoMusic
1635634768.75,stimulus,1,533,,,RelaxSession
1635634769.25,fixation,1,533,,,RelaxSession
1635634769.67,stimulus,2,46,,,NoMusic
1635634770.17,fixation,2,46,,,NoMusic
1635634770.75,stimulus,1,534,,,RelaxSession
1635634771.25,fixation,1,534,,,RelaxSession
1635634771.67,stimulus,2,47,,,NoMusic
1635634772.17,fixation,2,47,,,NoMusic
1635634772.75,stimulus,1,535,,,RelaxSession
1635634773.25,fixation,1,535,,,RelaxSession
1635634773.67,stimulus,2,48,,,NoMusic
1635634774.17,fixation,2,48,,,NoMusic
1635634774.75,stimulus,1,536,,,RelaxSession
1635634775.25,fixation,1,536,,,RelaxSession
1635634775.67,stimulus,2,49,,,NoMusic
1635634776.17,fixation,2,49,,,NoMusic
1635634776.75,stimulus,1,537,,,RelaxSession
1635634777.25,fixation,1,537,,,RelaxSession
1635634777.67,stimulus,2,50,,,NoMusic
1635634778.17,fixation,2,50,,,NoMusic
1635634778.75,stimulus,1,538,,,RelaxSession
1635634779.25,fixation,1,538,,,RelaxSession
1635634779.67,stimulus,2,51,,,NoMusic
1635634780.17,fixation,2,51,,,NoMusic
1635634780.75,stimulus,1,539,,,RelaxSession
1635634781.25,fixation,1,539,,,RelaxSession
1635634781.67,stimulus,2,52,,,NoMusic
1635634782.17,fixation,2,52,,,NoMusic
1635634782.75,stimulus,1,540,,,RelaxSession
1635634783.25,fixation,1,540,,,RelaxSession
1635634783.67,stimulus,2,53,,,NoMusic
1635634784.17,fixation,2,53,,,NoMusic
1635634784.75,stimulus,1,541,,,RelaxSession
1635634785.25,fixation,1,541,,,RelaxSession
1635634785.67,stimulus,2,54,,,NoMusic
1635634786.17,fixation,2,54,,,NoMusic
1635634786.75,stimulus,1,542,,,RelaxSession
1635634787.25,fixation,1,542,,,RelaxSession
1635634787.67,stimulus,2,55,,,NoMusic
1635634788.17,fixation,2,55,,,NoMusic
1635634788.75,stimulus,1,543,,,RelaxSession
1635634789.25,fixation,1,543,,,RelaxSession
1635634789.67,stimulus,2,56,,,NoMusic
1635634790.17,fixation,2,56,,,NoMusic
1635634790.75,stimulus,1,544,,,RelaxSession
1635634791.25,fixation,1,544,,,RelaxSession
1635634791.67,stimulus,2,57,,,NoMusic
1635634792.17,fixation,2,57,,,NoMusic
1635634792.75,stimulus,1,545,,,RelaxSession
1635634793.25,fixation,1,545,,,RelaxSession
1635634793.67,stimulus,2,58,,,NoMusic
1635634794.17,fixation,2,58,,,NoMusic
1635634794.75,stimulus,1,546,,,RelaxSession
1635634795.25,fixation,1,546,,,RelaxSession
1635634795.67,stimulus,2,59,,,NoMusic
1635634796.17,fixation,2,59,,,NoMusic
1635634796.75,stimulus,1,547,,,RelaxSession
1635634797.25,fixation,1,547,,,RelaxSession
1635634797.67,stimulus,2,60,,,NoMusic
1635634798.17,fixation,2,60,,,NoMusic
1635634798.75,stimulus,1,548,,,RelaxSession
1635634799.25,fixation,1,548,,,RelaxSession
1635634799.67,stimulus,2,61,,,NoMusic
1635634800.17,fixation,2,61,,,NoMusic
1635634800.75,stimulus,1,549,,,RelaxSession
1635634801.25,fixation,1,549,,,RelaxSession
1635634801.67,stimulus,2,62,,,NoMusic
1635634802.17,fixation,2,62,,,NoMusic
1635634802.75,stimulus,1,550,,,RelaxSession
1635634803.25,fixation,1,550,,,RelaxSession
1635634803.67,stimulus,2,63,,,NoMusic
1635634804.17,fixation,2,63,,,NoMusic
1635634804.75,stimulus,1,551,,,RelaxSession
1635634805.25,fixation,1,551,,,RelaxSession
1635634805.67,stimulus,2,64,,,NoMusic
1635634806.17,fixation,2,64,,,NoMusic
1635634806.75,stimulus,1,552,,,RelaxSession
1635634807.25,fixation,1,552,,,RelaxSession
1635634807.67,stimulus,2,65,,,NoMusic
1635634808.17,fixation,2,65,,,NoMusic
1635634808.75,stimulus,1,553,,,RelaxSession
1635634809.25,fixation,1,553,,,RelaxSession
1635634809.67,stimulus,2,66,,,NoMusic
1635634810.17,fixation,2,66,,,NoMusic
1635634810.75,stimulus,1,554,,,RelaxSession
1635634811.25,fixation,1,554,,,RelaxSession
1635634811.67,stimulus,2,67,,,NoMusic
1635634812.17,fixation,2,67,,,NoMusic
1635634812.75,stimulus,1,555,,,RelaxSession
1635634813.25,fixation,1,555,,,RelaxSession
1635634813.67,stimulus,2,68,,,NoMusic
1635634814.17,fixation,2,68,,,NoMusic
1635634814.75,stimulus,1,556,,,RelaxSession
1635634815.25,fixation,1,556,,,RelaxSession
1635634815.67,stimulus,2,69,,,NoMusic
1635634816.17,fixation,2,69,,,NoMusic
1635634816.75,stimulus,1,557,,,RelaxSession
1635634817.25,fixation,1,557,,,RelaxSession
1635634817.67,stimulus,2,70,,,NoMusic
1635634818.17,fixation,2,70,,,NoMusic
1635634818.75,stimulus,1,558,,,RelaxSession
1635634819.25,fixation,1,558,,,RelaxSession
1635634819.67,stimulus,2,71,,,NoMusic
1635634820.17,fixation,2,71,,,NoMusic
1635634820.75,stimulus,1,559,,,RelaxSession
1635634821.25,fixation,1,559,,,RelaxSession
1635634821.67,stimulus,2,72,,,NoMusic
1635634822.17,fixation,2,72,,,NoMusic
1635634822.75,stimulus,1,560,,,RelaxSession
1635634823.25,fixation,1,560,,,RelaxSession
1635634823.67,stimulus,2,73,,,NoMusic
1635634824.17,fixation,2,73,,,NoMusic
1635634824.75,stimulus,1,561,,,RelaxSession
1635634825.25,fixation,1,561,,,RelaxSession
1635634825.67,stimulus,2,74,,,NoMusic
1635634826.17,fixation,2,74,,,NoMusic
1635634826.75,stimulus,1,562,,,RelaxSession
1635634827.25,fixation,1,562,,,RelaxSession
1635634827.67,stimulus,2,75,,,NoMusic
1635634828.17,fixation,2,75,,,NoMusic
1635634828.75,stimulus,1,563,,,RelaxSession
1635634829.25,fixation,1,563,,,RelaxSession
1635634829.67,stimulus,2,76,,,NoMusic
1635634830.17,fixation,2,76,,,NoMusic
1635634830.75,stimulus,1,564,,,RelaxSession
1635634831.25,fixation,1,564,,,RelaxSession
1635634831.67,stimulus,2,77,,,NoMusic
1635634832.17,fixation,2,77,,,NoMusic
1635634832.75,stimulus,1,565,,,RelaxSession
1635634833.25,fixation,1,565,,,RelaxSession
1635634833.67,stimulus,2,78,,,NoMusic
1635634834.17,fixation,2,78,,,NoMusic
1635634834.75,stimulus,1,566,,,RelaxSession
1635634835.25,fixation,1,566,,,RelaxSession
1635634835.67,stimulus,2,79,,,NoMusic
1635634836.17,fixation,2,79,,,NoMusic
1635634836.75,stimulus,1,567,,,RelaxSession
1635634837.25,fixation,1,567,,,RelaxSession
1635634837.67,stimulus,2,80,,,NoMusic
1635634838.17,fixation,2,80,,,NoMusic
1635634838.75,stimulus,1,568,,,RelaxSession
1635634839.25,fixation,1,568,,,RelaxSession
1635634839.67,stimulus,2,81,,,NoMusic
1635634840.17,fixation,2,81,,,NoMusic
1635634840.75,stimulus,1,569,,,RelaxSession
1635634841.25,fixation,1,569,,,RelaxSession
1635634841.67,stimulus,2,82,,,NoMusic
1635634842.17,fixation,2,82,,,NoMusic
1635634842.75,stimulus,1,570,,,RelaxSession
1635634843.25,fixation,1,570,,,RelaxSession
1635634843.67,stimulus,2,83,,,NoMusic
1635634844.17,fixation,2,83,,,NoMusic
1635634844.75,stimulus,1,571,,,RelaxSession
1635634845.25,fixation,1,571,,,RelaxSession
1635634845.67,stimulus,2,84,,,NoMusic
1635634846.17,fixation,2,84,,,NoMusic
1635634846.75,stimulus,1,572,,,RelaxSession
1635634847.25,fixation,1,572,,,RelaxSession
1635634847.67,stimulus,2,85,,,NoMusic
1635634848.17,fixation,2,85,,,NoMusic
1635634848.75,stimulus,1,573,,,RelaxSession
1635634849.25,fixation,1,573,,,RelaxSession
1635634849.67,stimulus,2,86,,,NoMusic
1635634850.17,fixation,2,86,,,NoMusic
1635634850.75,stimulus,1,574,,,RelaxSession
1635634851.25,fixation,1,574,,,RelaxSession
1635634851.67,stimulus,2,87,,,NoMusic
1635634852.17,fixation,2,87,,,NoMusic
1635634852.75,stimulus,1,575,,,RelaxSession
1635634853.25,fixation,1,575,,,RelaxSession
1635634853.67,stimulus,2,88,,,NoMusic
1635634854.17,fixation,2,88,,,NoMusic
1635634854.75,stimulus,1,576,,,RelaxSession
1635634855.25,fixation,1,576,,,RelaxSession
1635634855.67,stimulus,2,89,,,NoMusic
1635634856.17,fixation,2,89,,,NoMusic
1635634856.75,stimulus,1,577,,,RelaxSession
1635634857.25,fixation,1,577,,,RelaxSession
1635634857.67,stimulus,2,90,,,NoMusic
1635634858.17,fixation,2,90,,,NoMusic
1635634858.75,stimulus,1,578,,,RelaxSession
1635634859.25,fixation,1,578,,,RelaxSession
1635634859.67,stimulus,2,91,,,NoMusic
1635634860.17,fixation,2,91,,,NoMusic
1635634860.75,stimulus,1,579,,,RelaxSession
1635634861.25,fixation,1,579,,,RelaxSession
1635634861.67,stimulus,2,92,,,NoMusic
1635634862.17,fixation,2,92,,,NoMusic
1635634862.75,stimulus,1,580,,,RelaxSession
1635634863.25,fixation,1,580,,,RelaxSession
1635634863.67,stimulus,2,93,,,NoMusic
1635634864.17,fixation,2,93,,,NoMusic
1635634864.75,stimulus,1,581,,,RelaxSession
1635634865.25,fixation,1,581,,,RelaxSession
1635634865.67,stimulus,2,94,,,NoMusic
1635634866.17,fixation,2,94,,,NoMusic
1635634866.75,stimulus,1,582,,,RelaxSession
1635634867.25,fixation,1,582,,,RelaxSession
1635634867.67,stimulus,2,95,,,NoMusic
1635634868.17,fixation,2,95,,,NoMusic
1635634868.75,stimulus,1,583,,,RelaxSession
1635634869.25,fixation,1,583,,,RelaxSession
1635634869.67,stimulus,2,96,,,NoMusic
1635634870.17,fixation,2,96,,,NoMusic
1635634870.75,stimulus,1,584,,,RelaxSession
1635634871.25,fixation,1,584,,,RelaxSession
1635634871.67,stimulus,2,97,,,NoMusic
1635634872.17,fixation,2,97,,,NoMusic
1635634872.75,stimulus,1,585,,,RelaxSession
1635634873.25,fixation,1,585,,,RelaxSession
1635634873.67,stimulus,2,98,,,NoMusic
1635634873.88,stimulus,3,1,,,PracticeSession
1635634874.17,fixation,2,98,,,NoMusic
1635634874.38,fixation,3,1,,,PracticeSession
1635634874.75,stimulus,1,586,,,RelaxSession
1635634875.25,fixation,1,586,,,RelaxSession
1635634875.67,stimulus,2,99,,,NoMusic
1635634875.88,stimulus,3,2,,,PracticeSession
1635634876.17,fixation,2,99,,,NoMusic
1635634876.38,fixation,3,2,,,PracticeSession
1635634876.75,stimulus,1,587,,,RelaxSession
1635634877.25,fixation,1,587,,,RelaxSession
1635634877.67,stimulus,2,100,,,NoMusic
1635634877.88,stimulus,3,3,,,PracticeSession
1635634878.17,fixation,2,100,,,NoMusic
1635634878.38,fixation,3,3,,,PracticeSession
1635634878.75,stimulus,1,588,,,RelaxSession
1635634879.25,fixation,1,588,,,RelaxSession
1635634879.67,stimulus,2,101,,,NoMusic
1635634879.88,stimulus,3,4,,,PracticeSession
1635634880.17,fixation,2,101,,,NoMusic
1635634880.38,fixation,3,4,,,PracticeSession
1635634880.75,stimulus,1,589,,,RelaxSession
1635634881.25,fixation,1,589,,,RelaxSession
1635634881.67,stimulus,2,102,,,NoMusic
1635634881.88,stimulus,3,5,,,PracticeSession
1635634882.17,fixation,2,102,,,NoMusic
1635634882.38,fixation,3,5,,,PracticeSession
1635634882.75,stimulus,1,590,,,RelaxSession
1635634883.25,fixation,1,590,,,RelaxSession
1635634883.67,stimulus,2,103,,,NoMusic
1635634883.88,stimulus,3,6,,,PracticeSession
1635634884.17,fixation,2,103,,,NoMusic
1635634884.38,fixation,3,6,,,PracticeSession
1635634884.75,stimulus,1,591,,,RelaxSession
1635634885.25,fixation,1,591,,,RelaxSession
1635634885.67,stimulus,2,104,,,NoMusic
1635634885.88,stimulus,3,7,,,PracticeSession
1635634886.17,fixation,2,104,,,NoMusic
1635634886.38,fixation,3,7,,,PracticeSession
1635634886.75,stimulus,1,592,,,RelaxSession
1635634887.25,fixation,1,592,,,RelaxSession
1635634887.67,stimulus,2,105,,,NoMusic
1635634887.88,stimulus,3,8,,,PracticeSession
1635634888.17,fixation,2,105,,,NoMusic
1635634888.38,fixation,3,8,,,PracticeSession
1635634888.75,stimulus,1,593,,,RelaxSession
1635634889.25,fixation,1,593,,,RelaxSession
1635634889.67,stimulus,2,106,,,NoMusic
1635634889.88,stimulus,3,9,,,PracticeSession
1635634890.17,fixation,2,106,,,NoMusic
1635634890.38,fixation,3,9,,,PracticeSession
1635634890.75,stimulus,1,594,,,RelaxSession
1635634891.25,fixation,1,594,,,RelaxSession
1635634891.67,stimulus,2,107,,,NoMusic
1635634891.88,stimulus,3,10,,,PracticeSession
1635634892.17,fixation,2,107,,,NoMusic
1635634892.38,fixation,3,10,,,PracticeSession
1635634892.75,stimulus,1,595,,,RelaxSession
1635634893.25,fixation,1,595,,,RelaxSession
1635634893.67,stimulus,2,108,,,NoMusic
1635634893.88,stimulus,3,11,,,PracticeSession
1635634894.17,fixation,2,108,,,NoMusic
1635634894.38,fixation,3,11,,,PracticeSession
1635634894.75,stimulus,1,596,,,RelaxSession
1635634895.25,fixation,1,596,,,RelaxSession
1635634895.67,stimulus,2,109,,,NoMusic
1635634895.88,stimulus,3,12,,,PracticeSession
1635634896.17,fixation,2,109,,,NoMusic
1635634896.38,fixation,3,12,,,PracticeSession
1635634896.75,stimulus,1,597,,,RelaxSession
1635634897.25,fixation,1,597,,,RelaxSession
1635634897.67,stimulus,2,110,,,NoMusic
1635634897.88,stimulus,3,13,,,PracticeSession
1635634898.17,fixation,2,110,,,NoMusic
1635634898.38,fixation,3,13,,,PracticeSession
1635634898.75,stimulus,1,598,,,RelaxSession
1635634899.25,fixation,1,598,,,RelaxSession
1635634899.67,stimulus,2,111,,,NoMusic
1635634899.88,stimulus,3,14,,,PracticeSession
1635634900.17,fixation,2,111,,,NoMusic
1635634900.38,fixation,3,14,,,PracticeSession
1635634900.75,stimulus,1,599,,,RelaxSession
1635634901.25,fixation,1,599,,,RelaxSession
1635634901.67,stimulus,2,112,,,NoMusic
1635634901.88,stimulus,3,15,,,PracticeSession
1635634902.17,fixation,2,112,,,NoMusic
1635634902.38,fixation,3,15,,,PracticeSession
1635634902.75,stimulus,1,600,,,RelaxSession
1635634903.25,fixation,1,600,,,RelaxSession
1635634903.67,stimulus,2,113,,,NoMusic
1635634903.88,stimulus,3,16,,,PracticeSession
1635634904.17,fixation,2,113,,,NoMusic
1635634904.38,fixation,3,16,,,PracticeSession
1635634904.75,stimulus,1,601,,,RelaxSession
1635634905.25,fixation,1,601,,,RelaxSession
1635634905.67,stimulus,2,114,,,NoMusic
1635634905.88,stimulus,3,17,,,PracticeSession
1635634906.17,fixation,2,114,,,NoMusic
1635634906.38,fixation,3,17,,,PracticeSession
1635634906.75,stimulus,1,602,,,RelaxSession
1635634907.25,fixation,1,602,,,RelaxSession
1635634907.67,stimulus,2,115,,,NoMusic
1635634907.88,stimulus,3,18,,,PracticeSession
1635634908.17,fixation,2,115,,,NoMusic
1635634908.38,fixation,3,18,,,PracticeSession
1635634908.75,stimulus,1,603,,,RelaxSession
1635634909.25,fixation,1,603,,,RelaxSession
1635634909.67,stimulus,2,116,,,NoMusic
1635634909.88,stimulus,3,19,,,PracticeSession
1635634910.17,fixation,2,116,,,NoMusic
1635634910.38,fixation,3,19,,,PracticeSession
1635634910.75,stimulus,1,604,,,RelaxSession
1635634911.25,fixation,1,604,,,RelaxSession
1635634911.67,stimulus,2,117,,,NoMusic
1635634911.88,stimulus,3,20,,,PracticeSession
1635634912.17,fixation,2,117,,,NoMusic
1635634912.38,fixation,3,20,,,PracticeSession
1635634912.75,stimulus,1,605,,,RelaxSession
1635634913.25,fixation,1,605,,,RelaxSession
1635634913.67,stimulus,2,118,,,NoMusic
1635634913.88,stimulus,3,21,,,PracticeSession
1635634914.17,fixation,2,118,,,NoMusic
1635634914.38,fixation,3,21,,,PracticeSession
1635634914.75,stimulus,1,606,,,RelaxSession
1635634915.25,fixation,1,606,,,RelaxSession
1635634915.67,stimulus,2,119,,,NoMusic
1635634915.88,stimulus,3,22,,,PracticeSession
1635634916.17,fixation,2,119,,,NoMusic
1635634916.38,fixation,3,22,,,PracticeSession
1635634916.75,stimulus,1,607,,,RelaxSession
1635634917.25,fixation,1,607,,,RelaxSession
1635634917.67,stimulus,2,120,,,NoMusic
1635634917.88,stimulus,3,23,,,PracticeSession
1635634918.17,fixation,2,120,,,NoMusic
1635634918.38,fixation,3,23,,,PracticeSession
1635634918.75,stimulus,1,608,,,RelaxSession
1635634919.25,fixation,1,608,,,RelaxSession
1635634919.67,stimulus,2,121,,,NoMusic
1635634919.88,stimulus,3,24,,,PracticeSession
1635634920.17,fixation,2,121,,,NoMusic
1635634920.38,fixation,3,24,,,PracticeSession
1635634920.75,stimulus,1,609,,,RelaxSession
1635634921.25,fixation,1,609,,,RelaxSession
1635634921.67,stimulus,2,122,,,NoMusic
1635634921.88,stimulus,3,25,,,PracticeSession
1635634922.17,fixation,2,122,,,NoMusic
1635634922.38,fixation,3,25,,,PracticeSession
1635634922.75,stimulus,1,610,,,RelaxSession
1635634923.25,fixation,1,610,,,RelaxSession
1635634923.67,stimulus,2,123,,,NoMusic
1635634923.88,stimulus,3,26,,,PracticeSession
1635634924.17,fixation,2,123,,,NoMusic
1635634924.38,fixation,3,26,,,PracticeSession
1635634924.75,stimulus,1,611,,,RelaxSession
1635634925.25,fixation,1,611,,,RelaxSession
1635634925.67,stimulus,2,124,,,NoMusic
1635634925.88,stimulus,3,27,,,PracticeSession
1635634926.17,fixation,2,124,,,NoMusic
1635634926.38,fixation,3,27,,,PracticeSession
1635634926.75,stimulus,1,612,,,RelaxSession
1635634927.25,fixation,1,612,,,RelaxSession
1635634927.67,stimulus,2,125,,,NoMusic
1635634927.88,stimulus,3,28,,,PracticeSession
1635634928.17,fixation,2,125,,,NoMusic
1635634928.38,fixation,3,28,,,PracticeSession
1635634928.75,stimulus,1,613,,,RelaxSession
1635634929.25,fixation,1,613,,,RelaxSession
1635634929.67,stimulus,2,126,,,NoMusic
1635634929.88,stimulus,3,29,,,PracticeSession
1635634930.17,fixation,2,126,,,NoMusic
1635634930.38,fixation,3,29,,,PracticeSession
1635634930.75,stimulus,1,614,,,RelaxSession
1635634931.25,fixation,1,614,,,RelaxSession
1635634931.67,stimulus,2,127,,,NoMusic
1635634931.88,stimulus,3,30,,,PracticeSession
1635634932.17,fixation,2,127,,,NoMusic
1635634932.38,fixation,3,30,,,PracticeSession
1635634932.75,stimulus,1,615,,,RelaxSession
1635634933.25,fixation,1,615,,,RelaxSession
1635634933.67,stimulus,2,128,,,NoMusic
1635634933.88,stimulus,3,31,,,PracticeSession
1635634934.17,fixation,2,128,,,NoMusic
1635634934.38,fixation,3,31,,,PracticeSession
1635634934.75,stimulus,1,616,,,RelaxSession
1635634935.25,fixation,1,616,,,RelaxSession
1635634935.67,stimulus,2,129,,,NoMusic
1635634935.88,stimulus,3,32,,,PracticeSession
1635634936.17,fixation,2,129,,,NoMusic
1635634936.38,fixation,3,32,,,PracticeSession
1635634936.75,stimulus,1,617,,,RelaxSession
1635634937.25,fixation,1,617,,,RelaxSession
1635634937.67,stimulus,2,130,,,NoMusic
1635634937.88,stimulus,3,33,,,PracticeSession
1635634938.17,fixation,2,130,,,NoMusic
1635634938.38,fixation,3,33,,,PracticeSession
1635634938.75,stimulus,1,618,,,RelaxSession
1635634939.25,fixation,1,618,,,RelaxSession
1635634939.67,stimulus,2,131,,,NoMusic
1635634939.88,stimulus,3,34,,,PracticeSession
1635634940.17,fixation,2,131,,,NoMusic
1635634940.38,fixation,3,34,,,PracticeSession
1635634940.75,stimulus,1,619,,,RelaxSession
1635634941.25,fixation,1,619,,,RelaxSession
1635634941.67,stimulus,2,132,,,NoMusic
1635634941.88,stimulus,3,35,,,PracticeSession
1635634942.17,fixation,2,132,,,NoMusic
1635634942.38,fixation,3,35,,,PracticeSession
1635634942.75,stimulus,1,620,,,RelaxSession
1635634943.25,fixation,1,620,,,RelaxSession
1635634943.67,stimulus,2,133,,,NoMusic
1635634943.88,stimulus,3,36,,,PracticeSession
1635634944.17,fixation,2,133,,,NoMusic
1635634944.38,fixation,3,36,,,PracticeSession
1635634944.75,stimulus,1,621,,,RelaxSession
1635634945.25,fixation,1,621,,,RelaxSession
1635634945.67,stimulus,2,134,,,NoMusic
1635634945.88,stimulus,3,37,,,PracticeSession
1635634946.17,fixation,2,134,,,NoMusic
1635634946.38,fixation,3,37,,,PracticeSession
1635634946.75,stimulus,1,622,,,RelaxSession
1635634947.25,fixation,1,622,,,RelaxSession
1635634947.67,stimulus,2,135,,,NoMusic
1635634947.88,stimulus,3,38,,,PracticeSession
1635634948.17,fixation,2,135,,,NoMusic
1635634948.38,fixation,3,38,,,PracticeSession
1635634948.75,stimulus,1,623,,,RelaxSession
1635634949.25,fixation,1,623,,,RelaxSession
1635634949.67,stimulus,2,136,,,NoMusic
1635634949.88,stimulus,3,39,,,PracticeSession
1635634950.17,fixation,2,136,,,NoMusic
1635634950.38,fixation,3,39,,,PracticeSession
1635634950.75,stimulus,1,624,,,RelaxSession
1635634951.25,fixation,1,624,,,RelaxSession
1635634951.67,stimulus,2,137,,,NoMusic
1635634951.88,stimulus,3,40,,,PracticeSession
1635634952.17,fixation,2,137,,,NoMusic
1635634952.38,fixation,3,40,,,PracticeSession
1635634952.75,stimulus,1,625,,,RelaxSession
1635634953.25,fixation,1,625,,,RelaxSession
1635634953.67,stimulus,2,138,,,NoMusic
1635634953.88,stimulus,3,41,,,PracticeSession
1635634954.17,fixation,2,138,,,NoMusic
1635634954.38,fixation,3,41,,,PracticeSession
1635634954.75,stimulus,1,626,,,RelaxSession
1635634955.25,fixation,1,626,,,RelaxSession
1635634955.67,stimulus,2,139,,,NoMusic
1635634955.88,stimulus,3,42,,,PracticeSession
1635634956.17,fixation,2,139,,,NoMusic
1635634956.38,fixation,3,42,,,PracticeSession
1635634956.75,stimulus,1,627,,,RelaxSession
1635634957.25,fixation,1,627,,,RelaxSession
1635634957.67,stimulus,2,140,,,NoMusic
1635634957.88,stimulus,3,43,,,PracticeSession
1635634958.17,fixation,2,140,,,NoMusic
1635634958.38,fixation,3,43,,,PracticeSession
1635634958.75,stimulus,1,628,,,RelaxSession
1635634959.25,fixation,1,628,,,RelaxSession
1635634959.67,stimulus,2,141,,,NoMusic
1635634959.88,stimulus,3,44,,,PracticeSession
1635634960.17,fixation,2,141,,,NoMusic
1635634960.38,fixation,3,44,,,PracticeSession
1635634960.75,stimulus,1,629,,,RelaxSession
1635634961.25,fixation,1,629,,,RelaxSession
1635634961.67,stimulus,2,142,,,NoMusic
1635634961.88,stimulus,3,45,,,NoMusic
1635634962.17,fixation,2,142,,,NoMusic
1635634962.38,fixation,3,45,,,NoMusic
1635634962.75,stimulus,1,630,,,RelaxSession
1635634963.25,fixation,1,630,,,RelaxSession
1635634963.67,stimulus,2,143,,,NoMusic
1635634963.88,stimulus,3,46,,,NoMusic
1635634964.17,fixation,2,143,,,NoMusic
1635634964.38,fixation,3,46,,,NoMusic
1635634964.75,stimulus,1,631,,,RelaxSession
1635634965.25,fixation,1,631,,,RelaxSession
1635634965.67,stimulus,2,144,,,NoMusic
1635634965.88,stimulus,3,47,,,NoMusic
1635634966.17,fixation,2,144,,,NoMusic
1635634966.38,fixation,3,47,,,NoMusic
1635634966.75,stimulus,1,632,,,RelaxSession
1635634967.25,fixation,1,632,,,RelaxSession
1635634967.67,stimulus,2,145,,,NoMusic
1635634967.88,stimulus,3,48,,,NoMusic
1635634968.17,fixation,2,145,,,NoMusic
1635634968.38,fixation,3,48,,,NoMusic
1635634968.75,stimulus,1,633,,,RelaxSession
1635634969.25,fixation,1,633,,,RelaxSession
1635634969.67,stimulus,2,146,,,NoMusic
1635634969.88,stimulus,3,49,,,NoMusic
1635634970.17,fixation,2,146,,,NoMusic
1635634970.38,fixation,3,49,,,NoMusic
1635634970.75,stimulus,1,634,,,RelaxSession
1635634971.25,fixation,1,634,,,RelaxSession
1635634971.67,stimulus,2,147,,,NoMusic
1635634971.88,stimulus,3,50,,,NoMusic
1635634972.17,fixation,2,147,,,NoMusic
1635634972.38,fixation,3,50,,,NoMusic
1635634972.75,stimulus,1,635,,,RelaxSession
1635634973.25,fixation,1,635,,,RelaxSession
1635634973.67,stimulus,2,148,,,NoMusic
1635634973.88,stimulus,3,51,,,NoMusic
1635634974.17,fixation,2,148,,,NoMusic
1635634974.38,fixation,3,51,,,NoMusic
1635634974.75,stimulus,1,636,,,RelaxSession
1635634975.25,fixation,1,636,,,RelaxSession
1635634975.67,stimulus,2,149,,,NoMusic
1635634975.88,stimulus,3,52,,,NoMusic
1635634976.17,fixation,2,149,,,NoMusic
1635634976.38,fixation,3,52,,,NoMusic
1635634976.75,stimulus,1,637,,,RelaxSession
1635634977.25,fixation,1,637,,,RelaxSession
1635634977.67,stimulus,2,150,,,NoMusic
1635634977.88,stimulus,3,53,,,NoMusic
1635634978.17,fixation,2,150,,,NoMusic
1635634978.38,fixation,3,53,,,NoMusic
1635634978.75,stimulus,1,638,,,RelaxSession
1635634979.25,fixation,1,638,,,RelaxSession
1635634979.67,stimulus,2,151,,,NoMusic
1635634979.88,stimulus,3,54,,,NoMusic
1635634980.17,fixation,2,151,,,NoMusic
1635634980.38,fixation,3,54,,,NoMusic
1635634980.75,stimulus,1,639,,,RelaxSession
1635634981.25,fixation,1,639,,,RelaxSession
1635634981.67,stimulus,2,152,,,NoMusic
1635634981.88,stimulus,3,55,,,NoMusic
1635634982.17,fixation,2,152,,,NoMusic
1635634982.38,fixation,3,55,,,NoMusic
1635634982.75,stimulus,1,640,,,RelaxSession
1635634983.25,fixation,1,640,,,RelaxSession
1635634983.67,stimulus,2,153,,,NoMusic
1635634983.88,stimulus,3,56,,,NoMusic
1635634984.17,fixation,2,153,,,NoMusic
1635634984.38,fixation,3,56,,,NoMusic
1635634984.75,stimulus,1,641,,,RelaxSession
1635634985.25,fixation,1,641,,,RelaxSession
1635634985.67,stimulus,2,154,,,NoMusic
1635634985.88,stimulus,3,57,,,NoMusic
1635634986.17,fixation,2,154,,,NoMusic
1635634986.38,fixation,3,57,,,NoMusic
1635634986.75,stimulus,1,642,,,RelaxSession
1635634987.25,fixation,1,642,,,RelaxSession
1635634987.67,stimulus,2,155,,,NoMusic
1635634987.88,stimulus,3,58,,,NoMusic
1635634988.17,fixation,2,155,,,NoMusic
1635634988.38,fixation,3,58,,,NoMusic
1635634988.75,stimulus,1,643,,,RelaxSession
1635634989.25,fixation,1,643,,,RelaxSession
1635634989.67,stimulus,2,156,,,NoMusic
1635634989.88,stimulus,3,59,,,NoMusic
1635634990.17,fixation,2,156,,,NoMusic
1635634990.38,fixation,3,59,,,NoMusic
1635634990.75,stimulus,1,644,,,RelaxSession
1635634991.25,fixation,1,644,,,RelaxSession
1635634991.67,stimulus,2,157,,,NoMusic
1635634991.88,stimulus,3,60,,,NoMusic
1635634992.17,fixation,2,157,,,NoMusic
1635634992.38,fixation,3,60,,,NoMusic
1635634992.75,stimulus,1,645,,,RelaxSession
1635634993.25,fixation,1,645,,,RelaxSession
1635634993.67,stimulus,2,158,,,NoMusic
1635634993.88,stimulus,3,61,,,NoMusic
1635634994.17,fixation,2,158,,,NoMusic
1635634994.38,fixation,3,61,,,NoMusic
1635634994.75,stimulus,1,646,,,RelaxSession
1635634995.25,fixation,1,646,,,RelaxSession
1635634995.67,stimulus,2,159,,,NoMusic
1635634995.88,stimulus,3,62,,,NoMusic
1635634996.17,fixation,2,159,,,NoMusic
1635634996.38,fixation,3,62,,,NoMusic
1635634996.75,stimulus,1,647,,,RelaxSession
1635634997.25,fixation,1,647,,,RelaxSession
1635634997.67,stimulus,2,160,,,NoMusic
1635634997.88,stimulus,3,63,,,NoMusic
1635634998.17,fixation,2,160,,,NoMusic
1635634998.38,fixation,3,63,,,NoMusic
1635634998.75,stimulus,1,648,,,RelaxSession
1635634999.25,fixation,1,648,,,RelaxSession
1635634999.67,stimulus,2,161,,,NoMusic
1635634999.88,stimulus,3,64,,,NoMusic
1635635000.17,fixation,2,161,,,NoMusic
1635635000.38,fixation,3,64,,,NoMusic
1635635000.75,stimulus,1,649,,,RelaxSession
1635635001.25,fixation,1,649,,,RelaxSession
1635635001.67,stimulus,2,162,,,NoMusic
1635635001.88,stimulus,3,65,,,NoMusic
1635635002.17,fixation,2,162,,,NoMusic
1635635002.38,fixation,3,65,,,NoMusic
1635635002.75,stimulus,1,650,,,RelaxSession
1635635003.25,fixation,1,650,,,RelaxSession
1635635003.67,stimulus,2,163,,,NoMusic
1635635003.88,stimulus,3,66,,,NoMusic
1635635004.17,fixation,2,163,,,NoMusic
1635635004.38,fixation,3,66,,,NoMusic
1635635004.75,stimulus,1,651,,,RelaxSession
1635635005.25,fixation,1,651,,,RelaxSession
1635635005.67,stimulus,2,164,,,NoMusic
1635635005.88,stimulus,3,67,,,NoMusic
1635635006.17,fixation,2,164,,,NoMusic
1635635006.38,fixation,3,67,,,NoMusic
1635635006.75,stimulus,1,652,,,RelaxSession
1635635007.25,fixation,1,652,,,RelaxSession
1635635007.67,stimulus,2,165,,,NoMusic
1635635007.88,stimulus,3,68,,,NoMusic
1635635008.17,fixation,2,165,,,NoMusic
1635635008.38,fixation,3,68,,,NoMusic
1635635008.75,stimulus,1,653,,,RelaxSession
1635635009.25,fixation,1,653,,,RelaxSession
1635635009.67,stimulus,2,166,,,NoMusic
1635635009.88,stimulus,3,69,,,NoMusic
1635635010.17,fixation,2,166,,,NoMusic
1635635010.38,fixation,3,69,,,NoMusic
1635635010.75,stimulus,1,654,,,RelaxSession
1635635011.25,fixation,1,654,,,RelaxSession
1635635011.67,stimulus,2,167,,,NoMusic
1635635011.88,stimulus,3,70,,,NoMusic
1635635012.17,fixation,2,167,,,NoMusic
1635635012.38,fixation,3,70,,,NoMusic
1635635012.75,stimulus,1,655,,,RelaxSession
1635635013.25,fixation,1,655,,,RelaxSession
1635635013.67,stimulus,2,168,,,NoMusic
1635635013.88,stimulus,3,71,,,NoMusic
1635635014.17,fixation,2,168,,,NoMusic
1635635014.38,fixation,3,71,,,NoMusic
1635635014.75,stimulus,1,656,,,RelaxSession
1635635015.25,fixation,1,656,,,RelaxSession
1635635015.67,stimulus,2,169,,,NoMusic
1635635015.88,stimulus,3,72,,,NoMusic
1635635016.17,fixation,2,169,,,NoMusic
1635635016.38,fixation,3,72,,,NoMusic
1635635016.75,stimulus,1,657,,,RelaxSession
1635635017.25,fixation,1,657,,,RelaxSession
1635635017.67,stimulus,2,170,,,NoMusic
1635635017.88,stimulus,3,73,,,NoMusic
1635635018.17,fixation,2,170,,,NoMusic
1635635018.38,fixation,3,73,,,NoMusic
1635635018.75,stimulus,1,658,,,RelaxSession
1635635019.25,fixation,1,658,,,RelaxSession
1635635019.67,stimulus,2,171,,,NoMusic
1635635019.88,stimulus,3,74,,,NoMusic
1635635020.17,fixation,2,171,,,NoMusic
1635635020.38,fixation,3,74,,,NoMusic
1635635020.75,stimulus,1,659,,,RelaxSession
1635635021.25,fixation,1,659,,,RelaxSession
1635635021.67,stimulus,2,172,,,NoMusic
1635635021.88,stimulus,3,75,,,NoMusic
1635635022.17,fixation,2,172,,,NoMusic
1635635022.38,fixation,3,75,,,NoMusic
1635635022.75,stimulus,1,660,,,RelaxSession
1635635023.25,fixation,1,660,,,RelaxSession
1635635023.67,stimulus,2,173,,,NoMusic
1635635023.88,stimulus,3,76,,,NoMusic
1635635024.17,fixation,2,173,,,NoMusic
1635635024.38,fixation,3,76,,,NoMusic
1635635024.75,stimulus,1,661,,,RelaxSession
1635635025.25,fixation,1,661,,,RelaxSession
1635635025.67,stimulus,2,174,,,NoMusic
1635635025.88,stimulus,3,77,,,NoMusic
1635635026.17,fixation,2,174,,,NoMusic
1635635026.38,fixation,3,77,,,NoMusic
1635635026.75,stimulus,1,662,,,RelaxSession
1635635027.25,fixation,1,662,,,RelaxSession
1635635027.67,stimulus,2,175,,,NoMusic
1635635027.88,stimulus,3,78,,,NoMusic
1635635028.17,fixation,2,175,,,NoMusic
1635635028.38,fixation,3,78,,,NoMusic
1635635028.75,stimulus,1,663,,,RelaxSession
1635635029.25,fixation,1,663,,,RelaxSession
1635635029.67,stimulus,2,176,,,NoMusic
1635635029.88,stimulus,3,79,,,NoMusic
1635635030.17,fixation,2,176,,,NoMusic
1635635030.38,fixation,3,79,,,NoMusic
1635635030.75,stimulus,1,664,,,RelaxSession
1635635031.25,fixation,1,664,,,RelaxSession
1635635031.67,stimulus,2,177,,,NoMusic
1635635031.88,stimulus,3,80,,,NoMusic
1635635032.17,fixation,2,177,,,NoMusic
1635635032.38,fixation,3,80,,,NoMusic
1635635032.75,stimulus,1,665,,,RelaxSession
1635635033.25,fixation,1,665,,,RelaxSession
1635635033.67,stimulus,2,178,,,NoMusic
1635635033.88,stimulus,3,81,,,NoMusic
1635635034.17,fixation,2,178,,,NoMusic
1635635034.38,fixation,3,81,,,NoMusic
1635635034.75,stimulus,1,666,,,RelaxSession
1635635035.25,fixation,1,666,,,RelaxSession
1635635035.67,stimulus,2,179,,,NoMusic
1635635035.88,stimulus,3,82,,,NoMusic
1635635036.17,fixation,2,179,,,NoMusic
1635635036.38,fixation,3,82,,,NoMusic
1635635036.75,stimulus,1,667,,,RelaxSession
1635635037.25,fixation,1,667,,,RelaxSession
1635635037.67,stimulus,2,180,,,NoMusic
1635635037.88,stimulus,3,83,,,NoMusic
1635635038.17,fixation,2,180,,,NoMusic
1635635038.38,fixation,3,83,,,NoMusic
1635635038.75,stimulus,1,668,,,RelaxSession
1635635039.25,fixation,1,668,,,RelaxSession
1635635039.67,stimulus,2,181,,,NoMusic
1635635039.88,stimulus,3,84,,,NoMusic
1635635040.17,fixation,2,181,,,NoMusic
1635635040.38,fixation,3,84,,,NoMusic
1635635040.75,stimulus,1,669,,,RelaxSession
1635635041.25,fixation,1,669,,,RelaxSession
1635635041.67,stimulus,2,182,,,NoMusic
1635635041.88,stimulus,3,85,,,NoMusic
1635635042.17,fixation,2,182,,,NoMusic
1635635042.38,fixation,3,85,,,NoMusic
1635635042.75,stimulus,1,670,,,RelaxSession
1635635043.25,fixation,1,670,,,RelaxSession
1635635043.67,stimulus,2,183,,,NoMusic
1635635043.88,stimulus,3,86,,,NoMusic
1635635044.17,fixation,2,183,,,NoMusic
1635635044.38,fixation,3,86,,,NoMusic
1635635044.75,stimulus,1,671,,,RelaxSession
1635635045.25,fixation,1,671,,,RelaxSession
1635635045.67,stimulus,2,184,,,NoMusic
1635635045.88,stimulus,3,87,,,NoMusic
1635635046.17,fixation,2,184,,,NoMusic
1635635046.38,fixation,3,87,,,NoMusic
1635635046.75,stimulus,1,672,,,RelaxSession
1635635047.25,fixation,1,672,,,RelaxSession
1635635047.67,stimulus,2,185,,,NoMusic
1635635047.88,stimulus,3,88,,,NoMusic
1635635048.17,fixation,2,185,,,NoMusic
1635635048.38,fixation,3,88,,,NoMusic
1635635048.75,stimulus,1,673,,,RelaxSession
1635635049.25,fixation,1,673,,,RelaxSession
1635635049.67,stimulus,2,186,,,NoMusic
1635635049.88,stimulus,3,89,,,NoMusic
1635635050.17,fixation,2,186,,,NoMusic
1635635050.38,fixation,3,89,,,NoMusic
1635635050.75,stimulus,1,674,,,RelaxSession
1635635051.25,fixation,1,674,,,RelaxSession
1635635051.67,stimulus,2,187,,,NoMusic
1635635051.88,stimulus,3,90,,,NoMusic
1635635052.17,fixation,2,187,,,NoMusic
1635635052.38,fixation,3,90,,,NoMusic
1635635052.75,stimulus,1,675,,,RelaxSession
1635635053.25,fixation,1,675,,,RelaxSession
1635635053.67,stimulus,2,188,,,NoMusic
1635635053.88,stimulus,3,91,,,NoMusic
1635635054.17,fixation,2,188,,,NoMusic
1635635054.38,fixation,3,91,,,NoMusic
1635635054.75,stimulus,1,676,,,RelaxSession
1635635055.25,fixation,1,676,,,RelaxSession
1635635055.67,stimulus,2,189,,,NoMusic
1635635055.88,stimulus,3,92,,,NoMusic
1635635056.17,fixation,2,189,,,NoMusic
1635635056.38,fixation,3,92,,,NoMusic
1635635056.75,stimulus,1,677,,,RelaxSession
1635635057.25,fixation,1,677,,,RelaxSession
1635635057.67,stimulus,2,190,,,NoMusic
1635635057.88,stimulus,3,93,,,NoMusic
1635635058.17,fixation,2,190,,,NoMusic
1635635058.38,fixation,3,93,,,NoMusic
1635635058.75,stimulus,1,678,,,RelaxSession
1635635059.25,fixation,1,678,,,RelaxSession
1635635059.67,stimulus,2,191,,,NoMusic
1635635059.88,stimulus,3,94,,,NoMusic
1635635060.17,fixation,2,191,,,NoMusic
1635635060.38,fixation,3,94,,,NoMusic
1635635060.75,stimulus,1,679,,,RelaxSession
1635635061.25,fixation,1,679,,,RelaxSession
1635635061.67,stimulus,2,192,,,NoMusic
1635635061.88,stimulus,3,95,,,NoMusic
1635635062.17,fixation,2,192,,,NoMusic
1635635062.38,fixation,3,95,,,NoMusic
1635635062.75,stimulus,1,680,,,RelaxSession
1635635063.25,fixation,1,680,,,RelaxSession
1635635063.67,stimulus,2,193,,,NoMusic
1635635063.88,stimulus,3,96,,,NoMusic
1635635064.17,fixation,2,193,,,NoMusic
1635635064.38,fixation,3,96,,,NoMusic
1635635064.75,stimulus,1,681,,,RelaxSession
1635635065.25,fixation,1,681,,,RelaxSession
1635635065.67,stimulus,2,194,,,NoMusic
1635635065.88,stimulus,3,97,,,NoMusic
1635635066.17,fixation,2,194,,,NoMusic
1635635066.38,fixation,3,97,,,NoMusic
1635635066.75,stimulus,1,682,,,RelaxSession
1635635067.25,fixation,1,682,,,RelaxSession
1635635067.67,stimulus,2,195,,,NoMusic
1635635067.88,stimulus,3,98,,,NoMusic
1635635068.17,fixation,2,195,,,NoMusic
1635635068.38,fixation,3,98,,,NoMusic
1635635068.75,stimulus,1,683,,,RelaxSession
1635635069.25,fixation,1,683,,,RelaxSession
1635635069.67,stimulus,2,196,,,NoMusic
1635635069.88,stimulus,3,99,,,NoMusic
1635635070.17,fixation,2,196,,,NoMusic
1635635070.38,fixation,3,99,,,NoMusic
1635635070.75,stimulus,1,684,,,RelaxSession
1635635071.25,fixation,1,684,,,RelaxSession
1635635071.67,stimulus,2,197,,,NoMusic
1635635071.88,stimulus,3,100,,,NoMusic
1635635072.17,fixation,2,197,,,NoMusic
1635635072.38,fixation,3,100,,,NoMusic
1635635072.75,stimulus,1,685,,,RelaxSession
1635635073.25,fixation,1,685,,,RelaxSession
1635635073.67,stimulus,2,198,,,NoMusic
1635635073.88,stimulus,3,101,,,NoMusic
1635635074.17,fixation,2,198,,,NoMusic
1635635074.38,fixation,3,101,,,NoMusic
1635635074.75,stimulus,1,686,,,RelaxSession
1635635075.25,fixation,1,686,,,RelaxSession
1635635075.67,stimulus,2,199,,,NoMusic
1635635075.88,stimulus,3,102,,,NoMusic
1635635076.17,fixation,2,199,,,NoMusic
1635635076.38,fixation,3,102,,,NoMusic
1635635076.75,stimulus,1,687,,,RelaxSession
1635635077.25,fixation,1,687,,,RelaxSession
1635635077.67,stimulus,2,200,,,NoMusic
1635635077.88,stimulus,3,103,,,NoMusic
1635635078.17,fixation,2,200,,,NoMusic
1635635078.38,fixation,3,103,,,NoMusic
1635635078.75,stimulus,1,688,,,RelaxSession
1635635079.25,fixation,1,688,,,RelaxSession
1635635079.67,stimulus,2,201,,,NoMusic
1635635079.88,stimulus,3,104,,,NoMusic
1635635080.17,fixation,2,201,,,NoMusic
1635635080.38,fixation,3,104,,,NoMusic
1635635080.75,stimulus,1,689,,,RelaxSession
1635635081.25,fixation,1,689,,,RelaxSession
1635635081.67,stimulus,2,202,,,NoMusic
1635635081.88,stimulus,3,105,,,NoMusic
1635635082.17,fixation,2,202,,,NoMusic
1635635082.38,fixation,3,105,,,NoMusic
1635635082.75,stimulus,1,690,,,RelaxSession
1635635083.25,fixation,1,690,,,RelaxSession
1635635083.67,stimulus,2,203,,,NoMusic
1635635083.88,stimulus,3,106,,,NoMusic
1635635084.17,fixation,2,203,,,NoMusic
1635635084.38,fixation,3,106,,,NoMusic
1635635084.75,stimulus,1,691,,,RelaxSession
1635635085.25,fixation,1,691,,,RelaxSession
1635635085.67,stimulus,2,204,,,NoMusic
1635635085.88,stimulus,3,107,,,NoMusic
1635635086.17,fixation,2,204,,,NoMusic
1635635086.38,fixation,3,107,,,NoMusic
1635635086.75,stimulus,1,692,,,RelaxSession
1635635087.25,fixation,1,692,,,RelaxSession
1635635087.67,stimulus,2,205,,,NoMusic
1635635087.88,stimulus,3,108,,,NoMusic
1635635088.17,fixation,2,205,,,NoMusic
1635635088.38,fixation,3,108,,,NoMusic
1635635088.75,stimulus,1,693,,,RelaxSession
1635635089.25,fixation,1,693,,,RelaxSession
1635635089.67,stimulus,2,206,,,NoMusic
1635635089.88,stimulus,3,109,,,NoMusic
1635635090.17,fixation,2,206,,,NoMusic
1635635090.38,fixation,3,109,,,NoMusic
1635635090.75,stimulus,1,694,,,RelaxSession
1635635091.25,fixation,1,694,,,RelaxSession
1635635091.67,stimulus,2,207,,,NoMusic
1635635091.88,stimulus,3,110,,,NoMusic
1635635092.17,fixation,2,207,,,NoMusic
1635635092.38,fixation,3,110,,,NoMusic
1635635092.75,stimulus,1,695,,,RelaxSession
1635635093.25,fixation,1,695,,,RelaxSession
1635635093.67,stimulus,2,208,,,NoMusic
1635635093.88,stimulus,3,111,,,NoMusic
1635635094.17,fixation,2,208,,,NoMusic
1635635094.38,fixation,3,111,,,NoMusic
1635635094.75,stimulus,1,696,,,RelaxSession
1635635095.25,fixation,1,696,,,RelaxSession
1635635095.67,stimulus,2,209,,,NoMusic
1635635095.88,stimulus,3,112,,,NoMusic
1635635096.17,fixation,2,209,,,NoMusic
1635635096.38,fixation,3,112,,,NoMusic
1635635096.75,stimulus,1,697,,,RelaxSession
1635635097.25,fixation,1,697,,,RelaxSession
1635635097.67,stimulus,2,210,,,NoMusic
1635635097.88,stimulus,3,113,,,NoMusic
1635635098.17,fixation,2,210,,,NoMusic
1635635098.38,fixation,3,113,,,NoMusic
1635635098.75,stimulus,1,698,,,RelaxSession
1635635099.25,fixation,1,698,,,RelaxSession
1635635099.67,stimulus,2,211,,,NoMusic
1635635099.88,stimulus,3,114,,,NoMusic
1635635100.17,fixation,2,211,,,NoMusic
1635635100.38,fixation,3,114,,,NoMusic
1635635100.75,stimulus,1,699,,,RelaxSession
1635635101.25,fixation,1,699,,,RelaxSession
1635635101.67,stimulus,2,212,,,NoMusic
1635635101.88,stimulus,3,115,,,NoMusic
1635635102.17,fixation,2,212,,,NoMusic
1635635102.38,fixation,3,115,,,NoMusic
1635635102.75,stimulus,1,700,,,RelaxSession
1635635103.25,fixation,1,700,,,RelaxSession
1635635103.67,stimulus,2,213,,,NoMusic
1635635103.88,stimulus,3,116,,,NoMusic
1635635104.17,fixation,2,213,,,NoMusic
1635635104.38,fixation,3,116,,,NoMusic
1635635104.75,stimulus,1,701,,,RelaxSession
1635635105.25,fixation,1,701,,,RelaxSession
1635635105.67,stimulus,2,214,,,NoMusic
1635635105.88,stimulus,3,117,,,NoMusic
1635635106.17,fixation,2,214,,,NoMusic
1635635106.38,fixation,3,117,,,NoMusic
1635635106.75,stimulus,1,702,,,RelaxSession
1635635107.25,fixation,1,702,,,RelaxSession
1635635107.67,stimulus,2,215,,,NoMusic
1635635107.88,stimulus,3,118,,,NoMusic
1635635108.17,fixation,2,215,,,NoMusic
1635635108.38,fixation,3,118,,,NoMusic
1635635108.75,stimulus,1,703,,,RelaxSession
1635635109.25,fixation,1,703,,,RelaxSession
1635635109.67,stimulus,2,216,,,NoMusic
1635635109.88,stimulus,3,119,,,NoMusic
1635635110.17,fixation,2,216,,,NoMusic
1635635110.38,fixation,3,119,,,NoMusic
1635635110.75,stimulus,1,704,,,RelaxSession
1635635111.25,fixation,1,704,,,RelaxSession
1635635111.67,stimulus,2,217,,,NoMusic
1635635111.88,stimulus,3,120,,,NoMusic
1635635112.17,fixation,2,217,,,NoMusic
1635635112.38,fixation,3,120,,,NoMusic
1635635112.75,stimulus,1,705,,,RelaxSession
1635635113.25,fixation,1,705,,,RelaxSession
1635635113.67,stimulus,2,218,,,NoMusic
1635635113.88,stimulus,3,121,,,NoMusic
1635635114.17,fixation,2,218,,,NoMusic
1635635114.38,fixation,3,121,,,NoMusic
1635635114.75,stimulus,1,706,,,RelaxSession
1635635115.25,fixation,1,706,,,RelaxSession
1635635115.67,stimulus,2,219,,,NoMusic
1635635115.88,stimulus,3,122,,,NoMusic
1635635116.17,fixation,2,219,,,NoMusic
1635635116.38,fixation,3,122,,,NoMusic
1635635116.75,stimulus,1,707,,,RelaxSession
1635635117.25,fixation,1,707,,,RelaxSession
1635635117.67,stimulus,2,220,,,NoMusic
1635635117.88,stimulus,3,123,,,NoMusic
1635635118.17,fixation,2,220,,,NoMusic
1635635118.38,fixation,3,123,,,NoMusic
1635635118.75,stimulus,1,708,,,RelaxSession
1635635119.25,fixation,1,708,,,RelaxSession
1635635119.67,stimulus,2,221,,,NoMusic
1635635119.88,stimulus,3,124,,,NoMusic
1635635120.17,fixation,2,221,,,NoMusic
1635635120.38,fixation,3,124,,,NoMusic
1635635120.75,stimulus,1,709,,,RelaxSession
1635635121.25,fixation,1,709,,,RelaxSession
1635635121.67,stimulus,2,222,,,NoMusic
1635635121.88,stimulus,3,125,,,NoMusic
1635635122.17,fixation,2,222,,,NoMusic
1635635122.38,fixation,3,125,,,NoMusic
1635635122.75,stimulus,1,710,,,RelaxSession
1635635123.25,fixation,1,710,,,RelaxSession
1635635123.67,stimulus,2,223,,,NoMusic
1635635123.88,stimulus,3,126,,,NoMusic
1635635124.17,fixation,2,223,,,NoMusic
1635635124.38,fixation,3,126,,,NoMusic
1635635124.75,stimulus,1,711,,,RelaxSession
1635635125.25,fixation,1,711,,,RelaxSession
1635635125.67,stimulus,2,224,,,NoMusic
1635635125.88,stimulus,3,127,,,NoMusic
1635635126.17,fixation,2,224,,,NoMusic
1635635126.38,fixation,3,127,,,NoMusic
1635635126.75,stimulus,1,712,,,RelaxSession
1635635127.25,fixation,1,712,,,RelaxSession
1635635127.67,stimulus,2,225,,,NoMusic
1635635127.88,stimulus,3,128,,,NoMusic
1635635128.17,fixation,2,225,,,NoMusic
1635635128.38,fixation,3,128,,,NoMusic
1635635128.75,stimulus,1,713,,,RelaxSession
1635635129.25,fixation,1,713,,,RelaxSession
1635635129.67,stimulus,2,226,,,NoMusic
1635635129.88,stimulus,3,129,,,NoMusic
1635635130.17,fixation,2,226,,,NoMusic
1635635130.38,fixation,3,129,,,NoMusic
1635635130.75,stimulus,1,714,,,RelaxSession
1635635131.25,fixation,1,714,,,RelaxSession
1635635131.67,stimulus,2,227,,,NoMusic
1635635131.88,stimulus,3,130,,,NoMusic
1635635132.17,fixation,2,227,,,NoMusic
1635635132.38,fixation,3,130,,,NoMusic
1635635132.75,stimulus,1,715,,,RelaxSession
1635635133.25,fixation,1,715,,,RelaxSession
1635635133.67,stimulus,2,228,,,NoMusic
1635635133.88,stimulus,3,131,,,NoMusic
1635635134.17,fixation,2,228,,,NoMusic
1635635134.38,fixation,3,131,,,NoMusic
1635635134.75,stimulus,1,716,,,RelaxSession
1635635135.25,fixation,1,716,,,RelaxSession
1635635135.67,stimulus,2,229,,,NoMusic
1635635135.88,stimulus,3,132,,,NoMusic
1635635136.17,fixation,2,229,,,NoMusic
1635635136.38,fixation,3,132,,,NoMusic
1635635136.75,stimulus,1,717,,,RelaxSession
1635635137.25,fixation,1,717,,,RelaxSession
1635635137.67,stimulus,2,230,,,NoMusic
1635635137.88,stimulus,3,133,,,NoMusic
1635635138.17,fixation,2,230,,,NoMusic
1635635138.38,fixation,3,133,,,NoMusic
1635635138.75,stimulus,1,718,,,RelaxSession
1635635139.25,fixation,1,718,,,RelaxSession
1635635139.67,stimulus,2,231,,,NoMusic
1635635139.88,stimulus,3,134,,,NoMusic
1635635140.17,fixation,2,231,,,NoMusic
1635635140.38,fixation,3,134,,,NoMusic
1635635140.75,stimulus,1,719,,,RelaxSession
1635635141.25,fixation,1,719,,,RelaxSession
1635635141.67,stimulus,2,232,,,NoMusic
1635635141.88,stimulus,3,135,,,NoMusic
1635635142.17,fixation,2,232,,,NoMusic
1635635142.38,fixation,3,135,,,NoMusic
1635635142.75,stimulus,1,720,,,RelaxSession
1635635143.25,fixation,1,720,,,RelaxSession
1635635143.67,stimulus,2,233,,,NoMusic
1635635143.88,stimulus,3,136,,,NoMusic
1635635144.17,fixation,2,233,,,NoMusic
1635635144.38,fixation,3,136,,,NoMusic
1635635144.75,stimulus,1,721,,,RelaxSession
1635635145.25,fixation,1,721,,,RelaxSession
1635635145.67,stimulus,2,234,,,NoMusic
1635635145.88,stimulus,3,137,,,NoMusic
1635635146.17,fixation,2,234,,,NoMusic
1635635146.38,fixation,3,137,,,NoMusic
1635635146.75,stimulus,1,722,,,RelaxSession
1635635147.25,fixation,1,722,,,RelaxSession
1635635147.67,stimulus,2,235,,,NoMusic
1635635147.88,stimulus,3,138,,,NoMusic
1635635148.17,fixation,2,235,,,NoMusic
1635635148.38,fixation,3,138,,,NoMusic
1635635148.75,stimulus,1,723,,,RelaxSession
1635635149.25,fixation,1,723,,,RelaxSession
1635635149.67,stimulus,2,236,,,NoMusic
1635635149.88,stimulus,3,139,,,NoMusic
1635635150.17,fixation,2,236,,,NoMusic
1635635150.38,fixation,3,139,,,NoMusic
1635635150.75,stimulus,1,724,,,RelaxSession
1635635151.25,fixation,1,724,,,RelaxSession
1635635151.67,stimulus,2,237,,,NoMusic
1635635151.88,stimulus,3,140,,,NoMusic
1635635152.17,fixation,2,237,,,NoMusic
1635635152.38,fixation,3,140,,,NoMusic
1635635152.75,stimulus,1,725,,,RelaxSession
1635635153.25,fixation,1,725,,,RelaxSession
1635635153.67,stimulus,2,238,,,NoMusic
1635635153.88,stimulus,3,141,,,NoMusic
1635635154.17,fixation,2,238,,,NoMusic
1635635154.38,fixation,3,141,,,NoMusic
1635635154.75,stimulus,1,726,,,RelaxSession
1635635155.25,fixation,1,726,,,RelaxSession
1635635155.67,stimulus,2,239,,,NoMusic
1635635155.88,stimulus,3,142,,,NoMusic
1635635156.17,fixation,2,239,,,NoMusic
1635635156.38,fixation,3,142,,,NoMusic
1635635156.75,stimulus,1,727,,,RelaxSession
1635635157.25,fixation,1,727,,,RelaxSession
1635635157.67,stimulus,2,240,,,NoMusic
1635635157.88,stimulus,3,143,,,NoMusic
1635635158.17,fixation,2,240,,,NoMusic
1635635158.38,fixation,3,143,,,NoMusic
1635635158.75,stimulus,1,728,,,RelaxSession
1635635159.25,fixation,1,728,,,RelaxSession
1635635159.67,stimulus,2,241,,,NoMusic
1635635159.88,stimulus,3,144,,,NoMusic
1635635160.17,fixation,2,241,,,NoMusic
1635635160.38,fixation,3,144,,,NoMusic
1635635160.75,stimulus,1,729,,,RelaxSession
1635635161.25,fixation,1,729,,,RelaxSession
1635635161.67,stimulus,2,242,,,NoMusic
1635635161.88,stimulus,3,145,,,NoMusic
1635635162.17,fixation,2,242,,,NoMusic
1635635162.38,fixation,3,145,,,NoMusic
1635635162.75,stimulus,1,730,,,RelaxSession
1635635163.25,fixation,1,730,,,RelaxSession
1635635163.67,stimulus,2,243,,,NoMusic
1635635163.88,stimulus,3,146,,,NoMusic
1635635164.17,fixation,2,243,,,NoMusic
1635635164.38,fixation,3,146,,,NoMusic
1635635164.75,stimulus,1,731,,,RelaxSession
1635635165.25,fixation,1,731,,,RelaxSession
1635635165.67,stimulus,2,244,,,NoMusic
1635635165.88,stimulus,3,147,,,NoMusic
1635635166.17,fixation,2,244,,,NoMusic
1635635166.38,fixation,3,147,,,NoMusic
1635635166.75,stimulus,1,732,,,RelaxSession
1635635167.25,fixation,1,732,,,RelaxSession
1635635167.67,stimulus,2,245,,,NoMusic
1635635167.88,stimulus,3,148,,,NoMusic
1635635168.17,fixation,2,245,,,NoMusic
1635635168.38,fixation,3,148,,,NoMusic
1635635168.75,stimulus,1,733,,,RelaxSession
1635635169.25,fixation,1,733,,,RelaxSession
1635635169.67,stimulus,2,246,,,NoMusic
1635635169.88,stimulus,3,149,,,NoMusic
1635635170.17,fixation,2,246,,,NoMusic
1635635170.38,fixation,3,149,,,NoMusic
1635635170.75,stimulus,1,734,,,RelaxSession
1635635171.25,fixation,1,734,,,RelaxSession
1635635171.67,stimulus,2,247,,,NoMusic
1635635171.88,stimulus,3,150,,,NoMusic
1635635172.17,fixation,2,247,,,NoMusic
1635635172.38,fixation,3,150,,,NoMusic
1635635172.75,stimulus,1,735,,,RelaxSession
1635635173.25,fixation,1,735,,,RelaxSession
1635635173.67,stimulus,2,248,,,NoMusic
1635635173.88,stimulus,3,151,,,NoMusic
1635635174.17,fixation,2,248,,,NoMusic
1635635174.38,fixation,3,151,,,NoMusic
1635635174.75,stimulus,1,736,,,RelaxSession
1635635175.25,fixation,1,736,,,RelaxSession
1635635175.67,stimulus,2,249,,,NoMusic
1635635175.88,stimulus,3,152,,,NoMusic
1635635176.17,fixation,2,249,,,NoMusic
1635635176.38,fixation,3,152,,,NoMusic
1635635176.75,stimulus,1,737,,,RelaxSession
1635635177.25,fixation,1,737,,,RelaxSession
1635635177.67,stimulus,2,250,,,NoMusic
1635635177.88,stimulus,3,153,,,NoMusic
1635635178.17,fixation,2,250,,,NoMusic
1635635178.38,fixation,3,153,,,NoMusic
1635635178.75,stimulus,1,738,,,RelaxSession
1635635179.25,fixation,1,738,,,RelaxSession
1635635179.67,stimulus,2,251,,,NoMusic
1635635179.88,stimulus,3,154,,,NoMusic
1635635180.17,fixation,2,251,,,NoMusic
1635635180.38,fixation,3,154,,,NoMusic
1635635180.75,stimulus,1,739,,,RelaxSession
1635635181.25,fixation,1,739,,,RelaxSession
1635635181.67,stimulus,2,252,,,NoMusic
1635635181.88,stimulus,3,155,,,NoMusic
1635635182.17,fixation,2,252,,,NoMusic
1635635182.38,fixation,3,155,,,NoMusic
1635635182.75,stimulus,1,740,,,RelaxSession
1635635183.25,fixation,1,740,,,RelaxSession
1635635183.67,stimulus,2,253,,,NoMusic
1635635183.88,stimulus,3,156,,,NoMusic
1635635184.17,fixation,2,253,,,NoMusic
1635635184.38,fixation,3,156,,,NoMusic
1635635184.75,stimulus,1,741,,,RelaxSession
1635635185.25,fixation,1,741,,,RelaxSession
1635635185.67,stimulus,2,254,,,NoMusic
1635635185.88,stimulus,3,157,,,NoMusic
1635635186.17,fixation,2,254,,,NoMusic
1635635186.38,fixation,3,157,,,NoMusic
1635635186.75,stimulus,1,742,,,RelaxSession
1635635187.25,fixation,1,742,,,RelaxSession
1635635187.67,stimulus,2,255,,,NoMusic
1635635187.88,stimulus,3,158,,,NoMusic
1635635188.17,fixation,2,255,,,NoMusic
1635635188.38,fixation,3,158,,,NoMusic
1635635188.75,stimulus,1,743,,,RelaxSession
1635635189.25,fixation,1,743,,,RelaxSession
1635635189.67,stimulus,2,256,,,NoMusic
1635635189.88,stimulus,3,159,,,NoMusic
1635635190.17,fixation,2,256,,,NoMusic
1635635190.38,fixation,3,159,,,NoMusic
1635635190.75,stimulus,1,744,,,RelaxSession
1635635191.25,fixation,1,744,,,RelaxSession
1635635191.67,stimulus,2,257,,,NoMusic
1635635191.88,stimulus,3,160,,,NoMusic
1635635192.17,fixation,2,257,,,NoMusic
1635635192.38,fixation,3,160,,,NoMusic
1635635192.75,stimulus,1,745,,,RelaxSession
1635635193.25,fixation,1,745,,,RelaxSession
1635635193.67,stimulus,2,258,,,NoMusic
1635635193.88,stimulus,3,161,,,NoMusic
1635635194.17,fixation,2,258,,,NoMusic
1635635194.38,fixation,3,161,,,NoMusic
1635635194.75,stimulus,1,746,,,RelaxSession
