event_time_s,trial_type,session_idx,trial_idx,RT_s,ACC,session_type
1630810977.02,stimulus,1,1,,,PracticeSession
1630810977.52,fixation,1,1,,,PracticeSession
1630810979.02,stimulus,1,2,,,PracticeSession
1630810979.52,fixation,1,2,,,PracticeSession
1630810981.02,stimulus,1,3,,,PracticeSession
1630810981.52,fixation,1,3,,,PracticeSession
1630810983.02,stimulus,1,4,,,PracticeSession
1630810983.52,fixation,1,4,,,PracticeSession
1630810985.02,stimulus,1,5,,,PracticeSession
1630810985.52,fixation,1,5,,,PracticeSession
1630810987.02,stimulus,1,6,,,PracticeSession
1630810987.52,fixation,1,6,,,PracticeSession
1630810989.02,stimulus,1,7,,,PracticeSession
1630810989.52,fixation,1,7,,,PracticeSession
1630810991.02,stimulus,1,8,,,PracticeSession
1630810991.52,fixation,1,8,,,PracticeSession
1630810993.02,stimulus,1,9,,,PracticeSession
1630810993.52,fixation,1,9,,,PracticeSession
1630810995.02,stimulus,1,10,,,PracticeSession
1630810995.52,fixation,1,10,,,PracticeSession
1630810997.02,stimulus,1,11,,,PracticeSession
1630810997.52,fixation,1,11,,,PracticeSession
1630810999.02,stimulus,1,12,,,PracticeSession
1630810999.52,fixation,1,12,,,PracticeSession
1630811001.02,stimulus,1,13,,,PracticeSession
1630811001.52,fixation,1,13,,,PracticeSession
1630811003.02,stimulus,1,14,,,PracticeSession
1630811003.52,fixation,1,14,,,PracticeSession
1630811005.02,stimulus,1,15,,,PracticeSession
1630811005.52,fixation,1,15,,,PracticeSession
1630811007.02,stimulus,1,16,,,PracticeSession
1630811007.52,fixation,1,16,,,PracticeSession
1630811009.02,stimulus,1,17,,,PracticeSession
1630811009.52,fixation,1,17,,,PracticeSession
1630811011.02,stimulus,1,18,,,PracticeSession
1630811011.52,fixation,1,18,,,PracticeSession
1630811013.02,stimulus,1,19,,,PracticeSession
1630811013.52,fixation,1,19,,,PracticeSession
1630811015.02,stimulus,1,20,,,PracticeSession
1630811015.52,fixation,1,20,,,PracticeSession
1630811017.02,stimulus,1,21,,,PracticeSession
1630811017.52,fixation,1,21,,,PracticeSession
1630811019.02,stimulus,1,22,,,PracticeSession
1630811019.52,fixation,1,22,,,PracticeSession
1630811021.02,stimulus,1,23,,,PracticeSession
1630811021.52,fixation,1,23,,,PracticeSession
1630811023.02,stimulus,1,24,,,PracticeSession
1630811023.52,fixation,1,24,,,PracticeSession
1630811025.02,stimulus,1,25,,,PracticeSession
1630811025.52,fixation,1,25,,,PracticeSession
1630811027.02,stimulus,1,26,,,PracticeSession
1630811027.52,fixation,1,26,,,PracticeSession
1630811029.02,stimulus,1,27,,,PracticeSession
1630811029.52,fixation,1,27,,,PracticeSession
1630811031.02,stimulus,1,28,,,PracticeSession
1630811031.52,fixation,1,28,,,PracticeSession
1630811033.02,stimulus,1,29,,,PracticeSession
1630811033.52,fixation,1,29,,,PracticeSession
1630811035.02,stimulus,1,30,,,PracticeSession
1630811035.52,fixation,1,30,,,PracticeSession
1630811037.02,stimulus,1,31,,,PracticeSession
1630811037.52,fixation,1,31,,,PracticeSession
1630811039.02,stimulus,1,32,,,PracticeSession
1630811039.52,fixation,1,32,,,PracticeSession
1630811041.02,stimulus,1,33,,,PracticeSession
1630811041.52,fixation,1,33,,,PracticeSession
1630811043.02,stimulus,1,34,,,PracticeSession
1630811043.52,fixation,1,34,,,PracticeSession
1630811045.02,stimulus,1,35,,,PracticeSession
1630811045.52,fixation,1,35,,,PracticeSession
1630811047.02,stimulus,1,36,,,PracticeSession
1630811047.52,fixation,1,36,,,PracticeSession
1630811049.02,stimulus,1,37,,,PracticeSession
1630811049.52,fixation,1,37,,,PracticeSession
1630811051.02,stimulus,1,38,,,PracticeSession
1630811051.52,fixation,1,38,,,PracticeSession
1630811053.02,stimulus,1,39,,,PracticeSession
1630811053.52,fixation,1,39,,,PracticeSession
1630811055.02,stimulus,1,40,,,PracticeSession
1630811055.52,fixation,1,40,,,PracticeSession
1630811057.02,stimulus,1,41,,,PracticeSession
1630811057.52,fixation,1,41,,,PracticeSession
1630811059.02,stimulus,1,42,,,PracticeSession
1630811059.52,fixation,1,42,,,PracticeSession
1630811061.02,stimulus,1,43,,,PracticeSession
1630811061.52,fixation,1,43,,,PracticeSession
1630811063.02,stimulus,1,44,,,PracticeSession
1630811063.52,fixation,1,44,,,PracticeSession
1630811065.02,stimulus,1,45,,0.0,NoAct
1630811066.595,fixation,1,45,1.075,1.0,NoAct
1630811067.02,stimulus,1,46,,0.0,NoAct
1630811067.963,fixation,1,46,0.443,1.0,NoAct
1630811069.02,stimulus,1,47,,0.0,NoAct
1630811069.759,fixation,1,47,0.239,1.0,NoAct
1630811071.02,stimulus,1,48,,0.0,NoAct
1630811071.648,fixation,1,48,0.128,1.0,NoAct
1630811073.491,stimulus,1,49,0.471,1.0,NoAct
1630811073.52,fixation,1,49,,0.0,NoAct
1630811075.02,stimulus,1,50,,0.0,NoAct
1630811075.796,fixation,1,50,0.276,1.0,NoAct
1630811077.02,stimulus,1,51,,0.0,NoAct
1630811077.759,fixation,1,51,0.239,0.0,NoAct
1630811079.02,stimulus,1,52,,0.0,NoAct
1630811079.613,fixation,1,52,0.093,1.0,NoAct
1630811081.02,stimulus,1,53,,0.0,NoAct
1630811081.832,fixation,1,53,0.312,1.0,NoAct
1630811083.02,stimulus,1,54,,0.0,NoAct
1630811083.803,fixation,1,54,0.283,1.0,NoAct
1630811085.02,stimulus,1,55,,0.0,NoAct
1630811085.804,fixation,1,55,0.284,1.0,NoAct
1630811087.02,stimulus,1,56,,0.0,NoAct
1630811087.777,fixation,1,56,0.257,1.0,NoAct
1630811089.02,stimulus,1,57,,0.0,NoAct
1630811089.602,fixation,1,57,0.082,1.0,NoAct
1630811091.02,stimulus,1,58,,0.0,NoAct
1630811091.61,fixation,1,58,0.09,1.0,NoAct
1630811093.02,stimulus,1,59,,0.0,NoAct
1630811093.744,fixation,1,59,0.224,1.0,NoAct
1630811095.02,stimulus,1,60,,0.0,NoAct
1630811095.819,fixation,1,60,0.299,1.0,NoAct
1630811097.02,stimulus,1,61,,0.0,NoAct
1630811097.921,fixation,1,61,0.401,1.0,NoAct
1630811099.02,stimulus,1,62,,0.0,NoAct
1630811099.898,fixation,1,62,0.378,1.0,NoAct
1630811101.02,stimulus,1,63,,0.0,NoAct
1630811102.133,fixation,1,63,0.613,1.0,NoAct
1630811103.02,stimulus,1,64,,0.0,NoAct
1630811103.854,fixation,1,64,0.334,1.0,NoAct
1630811105.02,stimulus,1,65,,0.0,NoAct
1630811105.988,fixation,1,65,0.468,1.0,NoAct
1630811107.02,stimulus,1,66,,0.0,NoAct
1630811107.699,fixation,1,66,0.179,1.0,NoAct
1630811109.02,stimulus,1,67,,0.0,NoAct
1630811109.912,fixation,1,67,0.392,1.0,NoAct
1630811111.02,stimulus,1,68,,0.0,NoAct
1630811111.908,fixation,1,68,0.388,1.0,NoAct
1630811113.02,stimulus,1,69,,0.0,NoAct
1630811113.996,fixation,1,69,0.476,1.0,NoAct
1630811115.02,stimulus,1,70,,0.0,NoAct
1630811116.835,fixation,1,70,1.315,1.0,NoAct
1630811117.02,stimulus,1,71,,0.0,NoAct
1630811118.757,fixation,1,71,1.237,1.0,NoAct
1630811119.02,stimulus,1,72,,0.0,NoAct
1630811120.881,fixation,1,72,1.361,1.0,NoAct
1630811121.02,stimulus,1,73,,0.0,NoAct
1630811122.102,fixation,1,73,0.582,1.0,NoAct
1630811123.02,stimulus,1,74,,0.0,NoAct
1630811124.226,fixation,1,74,0.706,0.0,NoAct
1630811125.02,stimulus,1,75,,0.0,NoAct
1630811126.014,fixation,1,75,0.494,0.0,NoAct
1630811127.02,stimulus,1,76,,0.0,NoAct
1630811127.52,fixation,1,76,,0.0,NoAct
1630811129.02,stimulus,1,77,,0.0,NoAct
1630811130.196,fixation,1,77,0.676,0.0,NoAct
1630811131.02,stimulus,1,78,,0.0,NoAct
1630811132.306,fixation,1,78,0.786,0.0,NoAct
1630811133.101,stimulus,1,79,0.081,1.0,NoAct
1630811133.52,fixation,1,79,,0.0,NoAct
1630811135.02,stimulus,1,80,,0.0,NoAct
1630811135.52,fixation,1,80,,0.0,NoAct
1630811137.02,stimulus,1,81,,0.0,NoAct
1630811138.042,fixation,1,81,0.522,1.0,NoAct
1630811139.02,stimulus,1,82,,0.0,NoAct
1630811140.282,fixation,1,82,0.762,0.0,NoAct
1630811141.02,stimulus,1,83,,0.0,NoAct
1630811142.465,fixation,1,83,0.945,1.0,NoAct
1630811143.02,stimulus,1,84,,0.0,NoAct
1630811144.519,fixation,1,84,0.999,1.0,NoAct
1630811145.02,stimulus,1,85,,0.0,NoAct
1630811145.52,fixation,1,85,,0.0,NoAct
1630811147.155,stimulus,1,86,0.135,1.0,NoAct
1630811147.52,fixation,1,86,,0.0,NoAct
1630811149.02,stimulus,1,87,,0.0,NoAct
1630811149.891,fixation,1,87,0.371,1.0,NoAct
1630811151.02,stimulus,1,88,,0.0,NoAct
1630811152.4259999,fixation,1,88,0.906,1.0,NoAct
1630811153.02,stimulus,1,89,,0.0,NoAct
1630811153.793,fixation,1,89,0.273,1.0,NoAct
1630811155.345,stimulus,1,90,0.325,1.0,NoAct
1630811155.52,fixation,1,90,,0.0,NoAct
1630811157.02,stimulus,1,91,,0.0,NoAct
1630811158.82,fixation,1,91,1.3,1.0,NoAct
1630811159.02,stimulus,1,92,,0.0,NoAct
1630811160.961,fixation,1,92,1.441,1.0,NoAct
1630811161.02,stimulus,1,93,,0.0,NoAct
1630811162.595,fixation,1,93,1.075,0.0,NoAct
1630811163.02,stimulus,1,94,,0.0,NoAct
1630811164.363,fixation,1,94,0.843,1.0,NoAct
1630811165.02,stimulus,1,95,,0.0,NoAct
1630811166.435,fixation,1,95,0.915,1.0,NoAct
1630811167.02,stimulus,1,96,,0.0,NoAct
1630811169.004,fixation,1,96,1.484,1.0,NoAct
1630811169.02,stimulus,1,97,,0.0,NoAct
1630811170.822,fixation,1,97,1.302,1.0,NoAct
1630811171.02,stimulus,1,98,,0.0,NoAct
1630811171.52,fixation,1,98,,0.0,NoAct
1630811173.02,stimulus,1,99,,0.0,NoAct
1630811174.972,fixation,1,99,1.452,1.0,NoAct
1630811175.02,stimulus,1,100,,0.0,NoAct
1630811175.52,fixation,1,100,,0.0,NoAct
1630811177.477,stimulus,1,101,0.457,1.0,NoAct
1630811177.52,fixation,1,101,,0.0,NoAct
1630811179.02,stimulus,1,102,,0.0,NoAct
1630811179.924,fixation,1,102,0.404,0.0,NoAct
1630811181.02,stimulus,1,103,,0.0,NoAct
1630811182.114,fixation,1,103,0.594,1.0,NoAct
1630811183.02,stimulus,1,104,,0.0,NoAct
1630811184.144,fixation,1,104,0.624,0.0,NoAct
1630811185.02,stimulus,1,105,,0.0,NoAct
1630811186.168,fixation,1,105,0.648,1.0,NoAct
1630811187.02,stimulus,1,106,,0.0,NoAct
1630811188.364,fixation,1,106,0.844,1.0,NoAct
1630811189.02,stimulus,1,107,,0.0,NoAct
1630811189.52,fixation,1,107,,0.0,NoAct
1630811191.409,stimulus,1,108,0.389,0.0,NoAct
1630811191.52,fixation,1,108,,0.0,NoAct
1630811193.02,stimulus,1,109,,0.0,NoAct
1630811193.703,fixation,1,109,0.183,1.0,NoAct
1630811195.02,stimulus,1,110,,0.0,NoAct
1630811196.398,fixation,1,110,0.878,1.0,NoAct
1630811197.02,stimulus,1,111,,0.0,NoAct
1630811197.921,fixation,1,111,0.401,1.0,NoAct
1630811199.02,stimulus,1,112,,0.0,NoAct
1630811199.819,fixation,1,112,0.299,1.0,NoAct
1630811201.02,stimulus,1,113,,0.0,NoAct
1630811201.918,fixation,1,113,0.398,1.0,NoAct
1630811203.02,stimulus,1,114,,0.0,NoAct
1630811203.734,fixation,1,114,0.214,1.0,NoAct
1630811205.02,stimulus,1,115,,0.0,NoAct
1630811205.723,fixation,1,115,0.203,1.0,NoAct
1630811207.428,stimulus,1,116,0.408,1.0,NoAct
1630811207.52,fixation,1,116,,0.0,NoAct
1630811209.02,stimulus,1,117,,0.0,NoAct
1630811209.652,fixation,1,117,0.132,1.0,NoAct
1630811211.02,stimulus,1,118,,0.0,NoAct
1630811211.542,fixation,1,118,0.022,1.0,NoAct
1630811213.02,stimulus,1,119,,0.0,NoAct
1630811213.634,fixation,1,119,0.114,1.0,NoAct
1630811215.02,stimulus,1,120,,0.0,NoAct
1630811215.656,fixation,1,120,0.136,1.0,NoAct
1630811217.509,stimulus,1,121,0.489,1.0,NoAct
1630811217.52,fixation,1,121,,0.0,NoAct
1630811219.02,stimulus,1,122,,0.0,NoAct
1630811219.52,fixation,1,122,,0.0,NoAct
1630811221.02,stimulus,1,123,,0.0,NoAct
1630811221.6069999,fixation,1,123,0.087,1.0,NoAct
1630811223.02,stimulus,1,124,,0.0,NoAct
1630811223.565,fixation,1,124,0.045,1.0,NoAct
1630811225.517,stimulus,1,125,0.497,0.0,NoAct
1630811225.52,fixation,1,125,,0.0,NoAct
1630811227.02,stimulus,1,126,,0.0,NoAct
1630811227.59,fixation,1,126,0.07,1.0,NoAct
1630811229.504,stimulus,1,127,0.484,1.0,NoAct
1630811229.52,fixation,1,127,,0.0,NoAct
1630811231.389,stimulus,1,128,0.369,0.0,NoAct
1630811231.65,fixation,1,128,0.13,1.0,NoAct
1630811233.02,stimulus,1,129,,0.0,NoAct
1630811233.636,fixation,1,129,0.116,1.0,NoAct
1630811235.445,stimulus,1,130,0.425,1.0,NoAct
1630811235.52,fixation,1,130,,0.0,NoAct
1630811237.02,stimulus,1,131,,0.0,NoAct
1630811237.559,fixation,1,131,0.039,1.0,NoAct
1630811239.4919999,stimulus,1,132,0.472,1.0,NoAct
1630811239.52,fixation,1,132,,0.0,NoAct
1630811241.02,stimulus,1,133,,0.0,NoAct
1630811241.99,fixation,1,133,0.47,1.0,NoAct
1630811243.02,stimulus,1,134,,0.0,NoAct
1630811243.796,fixation,1,134,0.276,1.0,NoAct
1630811245.465,stimulus,1,135,0.445,1.0,NoAct
1630811245.52,fixation,1,135,,0.0,NoAct
1630811247.02,stimulus,1,136,,0.0,NoAct
1630811248.373,fixation,1,136,0.853,0.0,NoAct
1630811249.02,stimulus,1,137,,0.0,NoAct
1630811249.711,fixation,1,137,0.191,1.0,NoAct
1630811251.02,stimulus,1,138,,0.0,NoAct
1630811251.968,fixation,1,138,0.448,1.0,NoAct
1630811253.02,stimulus,1,139,,0.0,NoAct
1630811253.856,fixation,1,139,0.336,0.0,NoAct
1630811255.02,stimulus,1,140,,0.0,NoAct
1630811256.06,fixation,1,140,0.54,0.0,NoAct
1630811257.02,stimulus,1,141,,0.0,NoAct
1630811258.1299999,fixation,1,141,0.61,1.0,NoAct
1630811259.02,stimulus,1,142,,0.0,NoAct
1630811260.329,fixation,1,142,0.809,1.0,NoAct
1630811261.02,stimulus,1,143,,0.0,NoAct
1630811262.138,fixation,1,143,0.618,1.0,NoAct
1630811263.02,stimulus,1,144,,0.0,NoAct
1630811264.006,fixation,1,144,0.486,1.0,NoAct
1630811265.02,stimulus,1,145,,0.0,NoAct
1630811266.6759999,fixation,1,145,1.156,0.0,NoAct
1630811267.02,stimulus,1,146,,0.0,NoAct
1630811268.48,fixation,1,146,0.96,0.0,NoAct
1630811269.02,stimulus,1,147,,0.0,NoAct
1630811269.935,fixation,1,147,0.415,0.0,NoAct
1630811271.02,stimulus,1,148,,0.0,NoAct
1630811272.443,fixation,1,148,0.923,1.0,NoAct
1630811273.02,stimulus,1,149,,0.0,NoAct
1630811274.8669999,fixation,1,149,1.347,1.0,NoAct
1630811275.02,stimulus,1,150,,0.0,NoAct
1630811275.52,fixation,1,150,,0.0,NoAct
1630811277.076,stimulus,1,151,0.056,1.0,NoAct
1630811277.52,fixation,1,151,,0.0,NoAct
1630811279.02,stimulus,1,152,,0.0,NoAct
1630811279.52,fixation,1,152,,0.0,NoAct
1630811281.02,stimulus,1,153,,0.0,NoAct
1630811281.52,fixation,1,153,,0.0,NoAct
1630811283.02,stimulus,1,154,,0.0,NoAct
1630811283.618,fixation,1,154,0.098,1.0,NoAct
1630811285.02,stimulus,1,155,,0.0,NoAct
1630811286.182,fixation,1,155,0.662,1.0,NoAct
1630811287.02,stimulus,1,156,,0.0,NoAct
1630811287.8,fixation,1,156,0.28,1.0,NoAct
1630811289.02,stimulus,1,157,,0.0,NoAct
1630811289.52,fixation,1,157,,0.0,NoAct
1630811291.02,stimulus,1,158,,0.0,NoAct
1630811291.609,fixation,1,158,0.089,1.0,NoAct
1630811293.453,stimulus,1,159,0.433,1.0,NoAct
1630811293.52,fixation,1,159,,0.0,NoAct
1630811295.02,stimulus,1,160,,0.0,NoAct
1630811295.546,fixation,1,160,0.026,1.0,NoAct
1630811297.466,stimulus,1,161,0.446,1.0,NoAct
1630811297.52,fixation,1,161,,0.0,NoAct
1630811299.02,stimulus,1,162,,0.0,NoAct
1630811299.52,fixation,1,162,,0.0,NoAct
1630811301.404,stimulus,1,163,0.384,1.0,NoAct
1630811301.52,fixation,1,163,,0.0,NoAct
1630811303.495,stimulus,1,164,0.475,1.0,NoAct
1630811303.52,fixation,1,164,,0.0,NoAct
1630811305.369,stimulus,1,165,0.349,1.0,NoAct
1630811305.52,fixation,1,165,,0.0,NoAct
1630811307.02,stimulus,1,166,,0.0,NoAct
1630811307.522,fixation,1,166,0.002,1.0,NoAct
1630811309.506,stimulus,1,167,0.486,1.0,NoAct
1630811309.52,fixation,1,167,,0.0,NoAct
1630811311.421,stimulus,1,168,0.401,1.0,NoAct
1630811311.52,fixation,1,168,,0.0,NoAct
1630811313.472,stimulus,1,169,0.452,1.0,NoAct
1630811313.52,fixation,1,169,,0.0,NoAct
1630811315.02,stimulus,1,170,,0.0,NoAct
1630811315.534,fixation,1,170,0.014,1.0,NoAct
1630811317.51,stimulus,1,171,0.49,1.0,NoAct
1630811317.52,fixation,1,171,,0.0,NoAct
1630811319.02,stimulus,1,172,,0.0,NoAct
1630811319.592,fixation,1,172,0.072,1.0,NoAct
1630811321.504,stimulus,1,173,0.484,1.0,NoAct
1630811321.52,fixation,1,173,,0.0,NoAct
1630811323.02,stimulus,1,174,,0.0,NoAct
1630811323.757,fixation,1,174,0.237,1.0,NoAct
1630811325.02,stimulus,1,175,,0.0,NoAct
1630811325.644,fixation,1,175,0.124,0.0,NoAct
1630811327.02,stimulus,1,176,,0.0,NoAct
1630811328.185,fixation,1,176,0.665,1.0,NoAct
1630811329.02,stimulus,1,177,,0.0,NoAct
1630811329.852,fixation,1,177,0.332,1.0,NoAct
1630811331.02,stimulus,1,178,,0.0,NoAct
1630811331.642,fixation,1,178,0.122,1.0,NoAct
1630811333.49,stimulus,1,179,0.47,1.0,NoAct
1630811333.52,fixation,1,179,,0.0,NoAct
1630811335.452,stimulus,1,180,0.432,1.0,NoAct
1630811335.52,fixation,1,180,,0.0,NoAct
1630811337.449,stimulus,1,181,0.429,1.0,NoAct
1630811337.52,fixation,1,181,,0.0,NoAct
1630811339.406,stimulus,1,182,0.386,1.0,NoAct
1630811339.52,fixation,1,182,,0.0,NoAct
1630811341.43,stimulus,1,183,0.41,1.0,NoAct
1630811341.52,fixation,1,183,,0.0,NoAct
1630811343.456,stimulus,1,184,0.436,1.0,NoAct
1630811343.52,fixation,1,184,,0.0,NoAct
1630811345.457,stimulus,1,185,0.437,1.0,NoAct
1630811345.52,fixation,1,185,,0.0,NoAct
1630811347.478,stimulus,1,186,0.458,1.0,NoAct
1630811347.52,fixation,1,186,,0.0,NoAct
1630811349.493,stimulus,1,187,0.473,1.0,NoAct
1630811349.52,fixation,1,187,,0.0,NoAct
1630811351.483,stimulus,1,188,0.463,1.0,NoAct
1630811351.52,fixation,1,188,,0.0,NoAct
1630811353.02,stimulus,1,189,,0.0,NoAct
1630811353.581,fixation,1,189,0.061,1.0,NoAct
1630811355.388,stimulus,1,190,0.368,1.0,NoAct
1630811355.52,fixation,1,190,,0.0,NoAct
1630811357.02,stimulus,1,191,,0.0,NoAct
1630811357.62,fixation,1,191,0.1,1.0,NoAct
1630811359.02,stimulus,1,192,,0.0,NoAct
1630811359.606,fixation,1,192,0.086,1.0,NoAct
1630811361.02,stimulus,1,193,,0.0,NoAct
1630811361.52,fixation,1,193,,0.0,NoAct
1630811363.02,stimulus,1,194,,0.0,NoAct
1630811363.5609999,fixation,1,194,0.041,1.0,NoAct
1630811365.02,stimulus,1,195,,0.0,NoAct
1630811365.5939999,fixation,1,195,0.074,1.0,NoAct
1630811367.475,stimulus,1,196,0.455,1.0,NoAct
1630811367.52,fixation,1,196,,0.0,NoAct
1630811369.365,stimulus,1,197,0.345,1.0,NoAct
1630811369.52,fixation,1,197,,0.0,NoAct
1630811371.485,stimulus,1,198,0.465,1.0,NoAct
1630811371.52,fixation,1,198,,0.0,NoAct
1630811373.02,stimulus,1,199,,0.0,NoAct
1630811374.08,fixation,1,199,0.56,1.0,NoAct
1630811375.358,stimulus,1,200,0.338,1.0,NoAct
1630811375.52,fixation,1,200,,0.0,NoAct
1630811377.02,stimulus,1,201,,0.0,NoAct
1630811378.441,fixation,1,201,0.921,1.0,NoAct
1630811379.02,stimulus,1,202,,0.0,NoAct
1630811380.092,fixation,1,202,0.572,1.0,NoAct
1630811381.02,stimulus,1,203,,0.0,NoAct
1630811382.427,fixation,1,203,0.907,1.0,NoAct
1630811383.02,stimulus,1,204,,0.0,NoAct
1630811384.69,fixation,1,204,1.17,1.0,NoAct
1630811385.02,stimulus,1,205,,0.0,NoAct
1630811386.533,fixation,1,205,1.013,1.0,NoAct
1630811387.02,stimulus,1,206,,0.0,NoAct
1630811388.591,fixation,1,206,1.071,1.0,NoAct
1630811389.02,stimulus,1,207,,0.0,NoAct
1630811389.52,fixation,1,207,,0.0,NoAct
1630811391.204,stimulus,1,208,0.184,0.0,NoAct
1630811391.52,fixation,1,208,,0.0,NoAct
1630811393.02,stimulus,1,209,,0.0,NoAct
1630811393.824,fixation,1,209,0.304,1.0,NoAct
1630811395.02,stimulus,1,210,,0.0,NoAct
1630811396.197,fixation,1,210,0.677,1.0,NoAct
1630811397.02,stimulus,1,211,,0.0,NoAct
1630811398.1859999,fixation,1,211,0.666,1.0,NoAct
1630811399.02,stimulus,1,212,,0.0,NoAct
1630811400.203,fixation,1,212,0.683,1.0,NoAct
1630811401.02,stimulus,1,213,,0.0,NoAct
1630811402.398,fixation,1,213,0.878,1.0,NoAct
1630811403.02,stimulus,1,214,,0.0,NoAct
1630811404.576,fixation,1,214,1.056,1.0,NoAct
1630811405.02,stimulus,1,215,,0.0,NoAct
1630811406.222,fixation,1,215,0.702,0.0,NoAct
1630811407.02,stimulus,1,216,,0.0,NoAct
1630811408.118,fixation,1,216,0.598,1.0,NoAct
1630811409.02,stimulus,1,217,,0.0,NoAct
1630811410.283,fixation,1,217,0.763,0.0,NoAct
1630811411.02,stimulus,1,218,,0.0,NoAct
1630811412.338,fixation,1,218,0.818,1.0,NoAct
1630811413.02,stimulus,1,219,,0.0,NoAct
1630811413.77,fixation,1,219,0.25,1.0,NoAct
1630811415.02,stimulus,1,220,,0.0,NoAct
1630811416.031,fixation,1,220,0.511,1.0,NoAct
1630811417.02,stimulus,1,221,,,NoAct
1630811417.52,fixation,1,221,,,NoAct
1630811419.02,stimulus,1,222,,0.0,NoAct
1630811419.905,fixation,1,222,0.385,1.0,NoAct
1630811421.02,stimulus,1,223,,0.0,NoAct
1630811421.677,fixation,1,223,0.157,1.0,NoAct
1630811423.458,stimulus,1,224,0.438,1.0,NoAct
1630811423.52,fixation,1,224,,0.0,NoAct
1630811425.02,stimulus,1,225,,0.0,NoAct
1630811426.241,fixation,1,225,0.721,1.0,NoAct
1630811427.02,stimulus,1,226,,0.0,NoAct
1630811428.559,fixation,1,226,1.039,1.0,NoAct
1630811429.02,stimulus,1,227,,0.0,NoAct
1630811430.42,fixation,1,227,0.9,1.0,NoAct
1630811431.02,stimulus,1,228,,0.0,NoAct
1630811432.768,fixation,1,228,1.248,1.0,NoAct
1630811433.02,stimulus,1,229,,0.0,NoAct
1630811434.565,fixation,1,229,1.045,1.0,NoAct
1630811435.02,stimulus,1,230,,0.0,NoAct
1630811436.713,fixation,1,230,1.193,1.0,NoAct
1630811437.02,stimulus,1,231,,0.0,NoAct
1630811437.52,fixation,1,231,,0.0,NoAct
1630811439.092,stimulus,1,232,0.072,1.0,NoAct
1630811439.52,fixation,1,232,,0.0,NoAct
1630811441.02,stimulus,1,233,,0.0,NoAct
1630811441.802,fixation,1,233,0.282,0.0,NoAct
1630811443.02,stimulus,1,234,,0.0,NoAct
1630811444.1069999,fixation,1,234,0.587,1.0,NoAct
1630811445.02,stimulus,1,235,,0.0,NoAct
1630811445.786,fixation,1,235,0.266,0.0,NoAct
1630811447.02,stimulus,1,236,,0.0,NoAct
1630811447.933,fixation,1,236,0.413,0.0,NoAct
1630811449.02,stimulus,1,237,,0.0,NoAct
1630811449.67,fixation,1,237,0.15,1.0,NoAct
1630811451.02,stimulus,1,238,,0.0,NoAct
1630811451.682,fixation,1,238,0.162,1.0,NoAct
1630811453.02,stimulus,1,239,,0.0,NoAct
1630811454.466,fixation,1,239,0.946,1.0,NoAct
1630811455.02,stimulus,1,240,,0.0,NoAct
1630811456.21,fixation,1,240,0.69,0.0,NoAct
1630811457.02,stimulus,1,241,,0.0,NoAct
1630811458.178,fixation,1,241,0.658,0.0,NoAct
1630811459.02,stimulus,1,242,,0.0,NoAct
1630811460.452,fixation,1,242,0.932,1.0,NoAct
1630811461.02,stimulus,1,243,,0.0,NoAct
1630811462.674,fixation,1,243,1.154,1.0,NoAct
1630811463.02,stimulus,1,244,,0.0,NoAct
1630811463.9259999,fixation,1,244,0.406,1.0,NoAct
1630811465.02,stimulus,1,245,,0.0,NoAct
1630811465.568,fixation,1,245,0.048,1.0,NoAct
1630811467.02,stimulus,1,246,,0.0,NoAct
1630811467.659,fixation,1,246,0.139,1.0,NoAct
1630811469.483,stimulus,1,247,0.463,1.0,NoAct
1630811469.52,fixation,1,247,,0.0,NoAct
1630811471.5,stimulus,1,248,0.48,1.0,NoAct
1630811471.52,fixation,1,248,,0.0,NoAct
1630811473.517,stimulus,1,249,0.497,1.0,NoAct
1630811473.52,fixation,1,249,,0.0,NoAct
1630811475.497,stimulus,1,250,0.477,0.0,NoAct
1630811475.52,fixation,1,250,,0.0,NoAct
1630811477.02,stimulus,1,251,,0.0,NoAct
1630811477.575,fixation,1,251,0.055,1.0,NoAct
1630811479.513,stimulus,1,252,0.493,1.0,NoAct
1630811479.52,fixation,1,252,,0.0,NoAct
1630811481.445,stimulus,1,253,0.425,0.0,NoAct
1630811481.52,fixation,1,253,,0.0,NoAct
1630811483.516,stimulus,1,254,0.496,1.0,NoAct
1630811483.52,fixation,1,254,,0.0,NoAct
1630811485.02,stimulus,1,255,,0.0,NoAct
1630811485.639,fixation,1,255,0.119,1.0,NoAct
1630811487.02,stimulus,1,256,,0.0,NoAct
1630811487.627,fixation,1,256,0.107,1.0,NoAct
1630811489.463,stimulus,1,257,0.443,1.0,NoAct
1630811489.52,fixation,1,257,,0.0,NoAct
1630811491.02,stimulus,1,258,,0.0,NoAct
1630811491.537,fixation,1,258,0.017,1.0,NoAct
1630811493.02,stimulus,1,259,,0.0,NoAct
1630811493.759,fixation,1,259,0.239,1.0,NoAct
1630811495.02,stimulus,1,260,,0.0,NoAct
1630811495.549,fixation,1,260,0.029,1.0,NoAct
1630811497.47,stimulus,1,261,0.45,1.0,NoAct
1630811497.52,fixation,1,261,,0.0,NoAct
1630811499.02,stimulus,1,262,,0.0,NoAct
1630811499.6299999,fixation,1,262,0.11,1.0,NoAct
1630811501.02,stimulus,1,263,,0.0,NoAct
1630811501.749,fixation,1,263,0.229,1.0,NoAct
1630811503.02,stimulus,1,264,,0.0,NoAct
1630811503.6069999,fixation,1,264,0.087,1.0,NoAct
1630811505.02,stimulus,1,265,,0.0,NoAct
1630811505.541,fixation,1,265,0.021,1.0,NoAct
1630811507.02,stimulus,1,266,,0.0,NoAct
1630811508.388,fixation,1,266,0.868,1.0,NoAct
1630811509.02,stimulus,1,267,,0.0,NoAct
1630811509.817,fixation,1,267,0.297,1.0,NoAct
1630811511.02,stimulus,1,268,,0.0,NoAct
1630811511.761,fixation,1,268,0.241,1.0,NoAct
1630811513.397,stimulus,1,269,0.377,1.0,NoAct
1630811513.52,fixation,1,269,,0.0,NoAct
1630811515.454,stimulus,1,270,0.434,1.0,NoAct
1630811515.52,fixation,1,270,,0.0,NoAct
1630811517.458,stimulus,1,271,0.438,1.0,NoAct
1630811517.52,fixation,1,271,,0.0,NoAct
1630811519.406,stimulus,1,272,0.386,1.0,NoAct
1630811519.52,fixation,1,272,,0.0,NoAct
1630811521.44,stimulus,1,273,0.42,1.0,NoAct
1630811521.52,fixation,1,273,,0.0,NoAct
1630811523.02,stimulus,1,274,,0.0,NoAct
1630811523.52,fixation,1,274,,0.0,NoAct
1630811525.435,stimulus,1,275,0.415,1.0,NoAct
1630811525.52,fixation,1,275,,0.0,NoAct
1630811527.02,stimulus,1,276,,0.0,NoAct
1630811527.52,fixation,1,276,,0.0,NoAct
1630811529.02,stimulus,1,277,,0.0,NoAct
1630811529.541,fixation,1,277,0.021,1.0,NoAct
1630811531.439,stimulus,1,278,0.419,1.0,NoAct
1630811531.52,fixation,1,278,,0.0,NoAct
1630811533.02,stimulus,1,279,,0.0,NoAct
1630811533.6169999,fixation,1,279,0.097,0.0,NoAct
1630811535.02,stimulus,1,280,,0.0,NoAct
1630811535.572,fixation,1,280,0.052,1.0,NoAct
1630811537.466,stimulus,1,281,0.446,1.0,NoAct
1630811537.52,fixation,1,281,,0.0,NoAct
1630811539.02,stimulus,1,282,,0.0,NoAct
1630811539.5279999,fixation,1,282,0.008,1.0,NoAct
1630811541.02,stimulus,1,283,,0.0,NoAct
1630811541.549,fixation,1,283,0.029,1.0,NoAct
1630811543.472,stimulus,1,284,0.452,1.0,NoAct
1630811543.52,fixation,1,284,,0.0,NoAct
1630811545.435,stimulus,1,285,0.415,1.0,NoAct
1630811545.52,fixation,1,285,,0.0,NoAct
1630811547.375,stimulus,1,286,0.355,0.0,NoAct
1630811547.52,fixation,1,286,,0.0,NoAct
1630811549.484,stimulus,1,287,0.464,1.0,NoAct
1630811549.52,fixation,1,287,,0.0,NoAct
1630811551.02,stimulus,1,288,,0.0,NoAct
1630811552.171,fixation,1,288,0.651,1.0,NoAct
1630811553.484,stimulus,1,289,0.464,1.0,NoAct
1630811553.52,fixation,1,289,,0.0,NoAct
1630811555.347,stimulus,1,290,0.327,1.0,NoAct
1630811555.52,fixation,1,290,,0.0,NoAct
1630811557.02,stimulus,1,291,,0.0,NoAct
1630811557.621,fixation,1,291,0.101,1.0,NoAct
1630811559.02,stimulus,1,292,,0.0,NoAct
1630811559.878,fixation,1,292,0.358,1.0,NoAct
1630811561.02,stimulus,1,293,,0.0,NoAct
1630811562.275,fixation,1,293,0.755,1.0,NoAct
1630811563.02,stimulus,1,294,,0.0,NoAct
1630811564.578,fixation,1,294,1.058,0.0,NoAct
1630811565.02,stimulus,1,295,,0.0,NoAct
1630811565.52,fixation,1,295,,0.0,NoAct
1630811567.485,stimulus,1,296,0.465,0.0,NoAct
1630811567.52,fixation,1,296,,0.0,NoAct
1630811569.02,stimulus,1,297,,0.0,NoAct
1630811569.52,fixation,1,297,,0.0,NoAct
1630811571.02,stimulus,1,298,,0.0,NoAct
1630811572.282,fixation,1,298,0.762,1.0,NoAct
1630811573.02,stimulus,1,299,,0.0,NoAct
1630811574.2189999,fixation,1,299,0.699,1.0,NoAct
1630811575.02,stimulus,1,300,,0.0,NoAct
1630811575.965,fixation,1,300,0.445,1.0,NoAct
1630811577.02,stimulus,1,301,,0.0,NoAct
1630811577.524,fixation,1,301,0.004,1.0,NoAct
1630811579.02,stimulus,1,302,,0.0,NoAct
1630811580.1,fixation,1,302,0.58,1.0,NoAct
1630811581.02,stimulus,1,303,,0.0,NoAct
1630811581.842,fixation,1,303,0.322,1.0,NoAct
1630811583.02,stimulus,1,304,,0.0,NoAct
1630811583.928,fixation,1,304,0.408,1.0,NoAct
1630811585.02,stimulus,1,305,,0.0,NoAct
1630811586.197,fixation,1,305,0.677,0.0,NoAct
1630811587.02,stimulus,1,306,,0.0,NoAct
1630811588.141,fixation,1,306,0.621,1.0,NoAct
1630811589.02,stimulus,1,307,,0.0,NoAct
1630811590.055,fixation,1,307,0.535,1.0,NoAct
1630811591.02,stimulus,1,308,,0.0,NoAct
1630811592.074,fixation,1,308,0.554,1.0,NoAct
1630811593.02,stimulus,1,309,,0.0,NoAct
1630811593.996,fixation,1,309,0.476,1.0,NoAct
1630811595.02,stimulus,1,310,,0.0,NoAct
1630811596.0149999,fixation,1,310,0.495,1.0,NoAct
1630811597.429,stimulus,1,311,0.409,1.0,NoAct
1630811597.52,fixation,1,311,,0.0,NoAct
1630811599.395,stimulus,1,312,0.375,1.0,NoAct
1630811599.52,fixation,1,312,,0.0,NoAct
1630811601.02,stimulus,1,313,,0.0,NoAct
1630811601.646,fixation,1,313,0.126,1.0,NoAct
1630811603.02,stimulus,1,314,,0.0,NoAct
1630811604.09,fixation,1,314,0.57,1.0,NoAct
1630811605.02,stimulus,1,315,,0.0,NoAct
1630811606.147,fixation,1,315,0.627,1.0,NoAct
1630811607.02,stimulus,1,316,,0.0,NoAct
1630811608.537,fixation,1,316,1.017,1.0,NoAct
1630811609.02,stimulus,1,317,,0.0,NoAct
1630811610.4919999,fixation,1,317,0.972,1.0,NoAct
1630811611.02,stimulus,1,318,,0.0,NoAct
1630811612.783,fixation,1,318,1.263,1.0,NoAct
1630811613.02,stimulus,1,319,,0.0,NoAct
1630811614.518,fixation,1,319,0.998,0.0,NoAct
1630811615.02,stimulus,1,320,,0.0,NoAct
1630811616.147,fixation,1,320,0.627,0.0,NoAct
1630811617.02,stimulus,1,321,,0.0,NoAct
1630811618.852,fixation,1,321,1.332,1.0,NoAct
1630811619.02,stimulus,1,322,,0.0,NoAct
1630811620.597,fixation,1,322,1.077,1.0,NoAct
1630811621.02,stimulus,1,323,,0.0,NoAct
1630811622.603,fixation,1,323,1.083,1.0,NoAct
1630811623.02,stimulus,1,324,,0.0,NoAct
1630811623.52,fixation,1,324,,0.0,NoAct
1630811625.031,stimulus,1,325,0.011,1.0,NoAct
1630811625.52,fixation,1,325,,0.0,NoAct
1630811627.4129999,stimulus,1,326,0.393,1.0,NoAct
1630811627.52,fixation,1,326,,0.0,NoAct
1630811629.02,stimulus,1,327,,0.0,NoAct
1630811629.792,fixation,1,327,0.272,1.0,NoAct
1630811631.02,stimulus,1,328,,0.0,NoAct
1630811631.946,fixation,1,328,0.426,1.0,NoAct
1630811633.02,stimulus,1,329,,0.0,NoAct
1630811633.881,fixation,1,329,0.361,1.0,NoAct
1630811635.02,stimulus,1,330,,0.0,NoAct
1630811636.136,fixation,1,330,0.616,1.0,NoAct
1630811637.02,stimulus,1,331,,0.0,NoAct
1630811638.0149999,fixation,1,331,0.495,1.0,NoAct
1630811639.02,stimulus,1,332,,0.0,NoAct
1630811640.123,fixation,1,332,0.603,1.0,NoAct
1630811641.02,stimulus,1,333,,0.0,NoAct
1630811641.637,fixation,1,333,0.117,1.0,NoAct
1630811643.02,stimulus,1,334,,0.0,NoAct
1630811643.524,fixation,1,334,0.004,1.0,NoAct
1630811645.02,stimulus,1,335,,0.0,NoAct
1630811645.7089999,fixation,1,335,0.189,0.0,NoAct
1630811647.02,stimulus,1,336,,0.0,NoAct
1630811647.642,fixation,1,336,0.122,1.0,NoAct
1630811649.02,stimulus,1,337,,0.0,NoAct
1630811649.547,fixation,1,337,0.027,1.0,NoAct
1630811651.02,stimulus,1,338,,0.0,NoAct
1630811651.78,fixation,1,338,0.26,1.0,NoAct
1630811653.401,stimulus,1,339,0.381,0.0,NoAct
1630811653.52,fixation,1,339,,0.0,NoAct
1630811655.453,stimulus,1,340,0.433,1.0,NoAct
1630811655.52,fixation,1,340,,0.0,NoAct
1630811657.318,stimulus,1,341,0.298,1.0,NoAct
1630811657.52,fixation,1,341,,0.0,NoAct
1630811659.02,stimulus,1,342,,0.0,NoAct
1630811659.537,fixation,1,342,0.017,1.0,NoAct
1630811661.398,stimulus,1,343,0.378,1.0,NoAct
1630811661.52,fixation,1,343,,0.0,NoAct
1630811663.412,stimulus,1,344,0.392,1.0,NoAct
1630811663.52,fixation,1,344,,0.0,NoAct
1630811665.02,stimulus,1,345,,0.0,NoAct
1630811665.72,fixation,1,345,0.2,1.0,NoAct
1630811667.429,stimulus,1,346,0.409,1.0,NoAct
1630811667.52,fixation,1,346,,0.0,NoAct
1630811669.419,stimulus,1,347,0.399,1.0,NoAct
1630811669.52,fixation,1,347,,0.0,NoAct
1630811671.369,stimulus,1,348,0.349,0.0,NoAct
1630811671.52,fixation,1,348,,0.0,NoAct
1630811673.02,stimulus,1,349,,0.0,NoAct
1630811673.523,fixation,1,349,0.003,1.0,NoAct
1630811675.437,stimulus,1,350,0.417,1.0,NoAct
1630811675.52,fixation,1,350,,0.0,NoAct
1630811677.463,stimulus,1,351,0.443,1.0,NoAct
1630811677.52,fixation,1,351,,0.0,NoAct
1630811679.462,stimulus,1,352,0.442,1.0,NoAct
1630811679.52,fixation,1,352,,0.0,NoAct
1630811681.294,stimulus,1,353,0.274,1.0,NoAct
1630811681.52,fixation,1,353,,0.0,NoAct
1630811683.02,stimulus,1,354,,0.0,NoAct
1630811683.5939999,fixation,1,354,0.074,1.0,NoAct
1630811685.336,stimulus,1,355,0.316,1.0,NoAct
1630811685.52,fixation,1,355,,0.0,NoAct
1630811687.457,stimulus,1,356,0.437,1.0,NoAct
1630811687.52,fixation,1,356,,0.0,NoAct
1630811689.02,stimulus,1,357,,0.0,NoAct
1630811689.819,fixation,1,357,0.299,1.0,NoAct
1630811691.02,stimulus,1,358,,0.0,NoAct
1630811692.481,fixation,1,358,0.961,0.0,NoAct
1630811693.02,stimulus,1,359,,0.0,NoAct
1630811694.123,fixation,1,359,0.603,1.0,NoAct
1630811695.02,stimulus,1,360,,0.0,NoAct
1630811695.908,fixation,1,360,0.388,1.0,NoAct
1630811697.02,stimulus,1,361,,0.0,NoAct
1630811698.341,fixation,1,361,0.821,1.0,NoAct
1630811699.02,stimulus,1,362,,0.0,NoAct
1630811700.549,fixation,1,362,1.029,1.0,NoAct
1630811701.02,stimulus,1,363,,0.0,NoAct
1630811702.23,fixation,1,363,0.71,1.0,NoAct
1630811703.02,stimulus,1,364,,0.0,NoAct
1630811704.024,fixation,1,364,0.504,0.0,NoAct
1630811705.02,stimulus,1,365,,0.0,NoAct
1630811705.961,fixation,1,365,0.441,1.0,NoAct
1630811707.02,stimulus,1,366,,0.0,NoAct
1630811707.862,fixation,1,366,0.342,1.0,NoAct
1630811709.02,stimulus,1,367,,0.0,NoAct
1630811709.701,fixation,1,367,0.181,1.0,NoAct
1630811711.02,stimulus,1,368,,0.0,NoAct
1630811712.378,fixation,1,368,0.858,1.0,NoAct
1630811713.02,stimulus,1,369,,0.0,NoAct
1630811714.434,fixation,1,369,0.914,1.0,NoAct
1630811715.02,stimulus,1,370,,0.0,NoAct
1630811716.2189999,fixation,1,370,0.699,1.0,NoAct
1630811717.02,stimulus,1,371,,0.0,NoAct
1630811718.407,fixation,1,371,0.887,1.0,NoAct
1630811719.02,stimulus,1,372,,0.0,NoAct
1630811720.253,fixation,1,372,0.733,1.0,NoAct
1630811721.02,stimulus,1,373,,0.0,NoAct
1630811721.52,fixation,1,373,,0.0,NoAct
1630811723.097,stimulus,1,374,0.077,0.0,NoAct
1630811723.52,fixation,1,374,,0.0,NoAct
1630811725.02,stimulus,1,375,,0.0,NoAct
1630811726.613,fixation,1,375,1.093,1.0,NoAct
1630811727.02,stimulus,1,376,,0.0,NoAct
1630811727.856,fixation,1,376,0.336,1.0,NoAct
1630811729.509,stimulus,1,377,0.489,1.0,NoAct
1630811729.52,fixation,1,377,,0.0,NoAct
1630811731.4029999,stimulus,1,378,0.383,1.0,NoAct
1630811731.52,fixation,1,378,,0.0,NoAct
1630811733.441,stimulus,1,379,0.421,1.0,NoAct
1630811733.52,fixation,1,379,,0.0,NoAct
1630811735.451,stimulus,1,380,0.431,1.0,NoAct
1630811735.52,fixation,1,380,,0.0,NoAct
1630811737.449,stimulus,1,381,0.429,1.0,NoAct
1630811737.52,fixation,1,381,,0.0,NoAct
1630811739.312,stimulus,1,382,0.292,1.0,NoAct
1630811739.52,fixation,1,382,,0.0,NoAct
1630811741.4589999,stimulus,1,383,0.439,1.0,NoAct
1630811741.52,fixation,1,383,,0.0,NoAct
1630811743.417,stimulus,1,384,0.397,1.0,NoAct
1630811743.52,fixation,1,384,,0.0,NoAct
1630811745.423,stimulus,1,385,0.403,1.0,NoAct
1630811745.52,fixation,1,385,,0.0,NoAct
1630811747.475,stimulus,1,386,0.455,1.0,NoAct
1630811747.52,fixation,1,386,,0.0,NoAct
1630811749.423,stimulus,1,387,0.403,1.0,NoAct
1630811749.52,fixation,1,387,,0.0,NoAct
1630811751.378,stimulus,1,388,0.358,1.0,NoAct
1630811751.52,fixation,1,388,,0.0,NoAct
1630811753.435,stimulus,1,389,0.415,1.0,NoAct
1630811753.52,fixation,1,389,,0.0,NoAct
1630811755.386,stimulus,1,390,0.366,1.0,NoAct
1630811755.52,fixation,1,390,,0.0,NoAct
1630811757.385,stimulus,1,391,0.365,1.0,NoAct
1630811757.52,fixation,1,391,,0.0,NoAct
1630811759.441,stimulus,1,392,0.421,1.0,NoAct
1630811759.52,fixation,1,392,,0.0,NoAct
1630811761.405,stimulus,1,393,0.385,1.0,NoAct
1630811761.52,fixation,1,393,,0.0,NoAct
1630811763.408,stimulus,1,394,0.388,1.0,NoAct
1630811763.52,fixation,1,394,,0.0,NoAct
1630811765.417,stimulus,1,395,0.397,1.0,NoAct
1630811765.52,fixation,1,395,,0.0,NoAct
1630811767.448,stimulus,1,396,0.428,0.0,NoAct
1630811767.52,fixation,1,396,,0.0,NoAct
1630811769.02,stimulus,1,397,,0.0,NoAct
1630811769.524,fixation,1,397,0.004,1.0,NoAct
1630811771.02,stimulus,1,398,,,PerfumeSession
1630811771.52,fixation,1,398,,,PerfumeSession
1630811773.02,stimulus,1,399,,,PerfumeSession
1630811773.52,fixation,1,399,,,PerfumeSession
1630811775.02,stimulus,1,400,,,PerfumeSession
1630811775.52,fixation,1,400,,,PerfumeSession
1630811777.02,stimulus,1,401,,,PerfumeSession
1630811777.52,fixation,1,401,,,PerfumeSession
1630811779.02,stimulus,1,402,,,PerfumeSession
1630811779.52,fixation,1,402,,,PerfumeSession
1630811781.02,stimulus,1,403,,,PerfumeSession
1630811781.52,fixation,1,403,,,PerfumeSession
1630811783.02,stimulus,1,404,,,PerfumeSession
1630811783.52,fixation,1,404,,,PerfumeSession
1630811785.02,stimulus,1,405,,,PerfumeSession
1630811785.52,fixation,1,405,,,PerfumeSession
1630811787.02,stimulus,1,406,,,PerfumeSession
1630811787.52,fixation,1,406,,,PerfumeSession
1630811789.02,stimulus,1,407,,,PerfumeSession
1630811789.52,fixation,1,407,,,PerfumeSession
1630811791.02,stimulus,1,408,,,PerfumeSession
1630811791.52,fixation,1,408,,,PerfumeSession
1630811793.02,stimulus,1,409,,,PerfumeSession
1630811793.52,fixation,1,409,,,PerfumeSession
1630811795.02,stimulus,1,410,,,PerfumeSession
1630811795.52,fixation,1,410,,,PerfumeSession
1630811797.02,stimulus,1,411,,,PerfumeSession
1630811797.52,fixation,1,411,,,PerfumeSession
1630811799.02,stimulus,1,412,,,PerfumeSession
1630811799.52,fixation,1,412,,,PerfumeSession
1630811801.02,stimulus,1,413,,,PerfumeSession
1630811801.52,fixation,1,413,,,PerfumeSession
1630811803.02,stimulus,1,414,,,PerfumeSession
1630811803.52,fixation,1,414,,,PerfumeSession
1630811805.02,stimulus,1,415,,,PerfumeSession
1630811805.52,fixation,1,415,,,PerfumeSession
1630811807.02,stimulus,1,416,,,PerfumeSession
1630811807.52,fixation,1,416,,,PerfumeSession
1630811809.02,stimulus,1,417,,,PerfumeSession
1630811809.52,fixation,1,417,,,PerfumeSession
1630811811.02,stimulus,1,418,,,PerfumeSession
1630811811.52,fixation,1,418,,,PerfumeSession
1630811813.02,stimulus,1,419,,,PerfumeSession
1630811813.52,fixation,1,419,,,PerfumeSession
1630811815.02,stimulus,1,420,,,PerfumeSession
1630811815.52,fixation,1,420,,,PerfumeSession
1630811817.02,stimulus,1,421,,,PerfumeSession
1630811817.52,fixation,1,421,,,PerfumeSession
1630811819.02,stimulus,1,422,,,PerfumeSession
1630811819.52,fixation,1,422,,,PerfumeSession
1630811821.02,stimulus,1,423,,,PerfumeSession
1630811821.52,fixation,1,423,,,PerfumeSession
1630811823.02,stimulus,1,424,,,PerfumeSession
1630811823.52,fixation,1,424,,,PerfumeSession
1630811825.02,stimulus,1,425,,,PerfumeSession
1630811825.52,fixation,1,425,,,PerfumeSession
1630811827.02,stimulus,1,426,,,PerfumeSession
1630811827.52,fixation,1,426,,,PerfumeSession
1630811829.02,stimulus,1,427,,,PerfumeSession
1630811829.52,fixation,1,427,,,PerfumeSession
1630811831.02,stimulus,1,428,,,PerfumeSession
1630811831.52,fixation,1,428,,,PerfumeSession
1630811833.02,stimulus,1,429,,,PerfumeSession
1630811833.52,fixation,1,429,,,PerfumeSession
1630811835.02,stimulus,1,430,,,PerfumeSession
1630811835.52,fixation,1,430,,,PerfumeSession
1630811837.02,stimulus,1,431,,,PerfumeSession
1630811837.52,fixation,1,431,,,PerfumeSession
1630811839.02,stimulus,1,432,,,PerfumeSession
1630811839.52,fixation,1,432,,,PerfumeSession
1630811841.02,stimulus,1,433,,,PerfumeSession
1630811841.52,fixation,1,433,,,PerfumeSession
1630811843.02,stimulus,1,434,,,PerfumeSession
1630811843.52,fixation,1,434,,,PerfumeSession
1630811845.02,stimulus,1,435,,,PerfumeSession
1630811845.52,fixation,1,435,,,PerfumeSession
1630811847.02,stimulus,1,436,,,PerfumeSession
1630811847.52,fixation,1,436,,,PerfumeSession
1630811849.02,stimulus,1,437,,,PerfumeSession
1630811849.52,fixation,1,437,,,PerfumeSession
1630811851.02,stimulus,1,438,,,PerfumeSession
1630811851.52,fixation,1,438,,,PerfumeSession
1630811853.02,stimulus,1,439,,,PerfumeSession
1630811853.52,fixation,1,439,,,PerfumeSession
1630811855.02,stimulus,1,440,,,PerfumeSession
1630811855.52,fixation,1,440,,,PerfumeSession
1630811857.02,stimulus,1,441,,,PerfumeSession
1630811857.52,fixation,1,441,,,PerfumeSession
1630811859.02,stimulus,1,442,,,PerfumeSession
1630811859.52,fixation,1,442,,,PerfumeSession
1630811861.02,stimulus,1,443,,,PerfumeSession
1630811861.52,fixation,1,443,,,PerfumeSession
1630811863.02,stimulus,1,444,,,PerfumeSession
1630811863.52,fixation,1,444,,,PerfumeSession
1630811865.02,stimulus,1,445,,,PerfumeSession
1630811865.52,fixation,1,445,,,PerfumeSession
1630811867.02,stimulus,1,446,,,PerfumeSession
1630811867.52,fixation,1,446,,,PerfumeSession
1630811869.02,stimulus,1,447,,,PerfumeSession
1630811869.52,fixation,1,447,,,PerfumeSession
1630811871.02,stimulus,1,448,,,PerfumeSession
1630811871.52,fixation,1,448,,,PerfumeSession
1630811873.02,stimulus,1,449,,,PerfumeSession
1630811873.52,fixation,1,449,,,PerfumeSession
1630811875.02,stimulus,1,450,,,PerfumeSession
1630811875.52,fixation,1,450,,,PerfumeSession
1630811877.02,stimulus,1,451,,,PerfumeSession
1630811877.52,fixation,1,451,,,PerfumeSession
1630811879.02,stimulus,1,452,,,PerfumeSession
1630811879.52,fixation,1,452,,,PerfumeSession
1630811881.02,stimulus,1,453,,,PerfumeSession
1630811881.52,fixation,1,453,,,PerfumeSession
1630811883.02,stimulus,1,454,,,PerfumeSession
1630811883.52,fixation,1,454,,,PerfumeSession
1630811885.02,stimulus,1,455,,,PerfumeSession
1630811885.52,fixation,1,455,,,PerfumeSession
1630811887.02,stimulus,1,456,,,PerfumeSession
1630811887.52,fixation,1,456,,,PerfumeSession
1630811889.02,stimulus,1,457,,,PerfumeSession
1630811889.52,fixation,1,457,,,PerfumeSession
1630811891.02,stimulus,1,458,,,PerfumeSession
1630811891.52,fixation,1,458,,,PerfumeSession
1630811893.02,stimulus,1,459,,,PerfumeSession
1630811893.52,fixation,1,459,,,PerfumeSession
1630811895.02,stimulus,1,460,,,PerfumeSession
1630811895.52,fixation,1,460,,,PerfumeSession
1630811897.02,stimulus,1,461,,,PerfumeSession
1630811897.52,fixation,1,461,,,PerfumeSession
1630811899.02,stimulus,1,462,,,PerfumeSession
1630811899.52,fixation,1,462,,,PerfumeSession
1630811901.02,stimulus,1,463,,,PerfumeSession
1630811901.52,fixation,1,463,,,PerfumeSession
1630811903.02,stimulus,1,464,,,PerfumeSession
1630811903.52,fixation,1,464,,,PerfumeSession
1630811905.02,stimulus,1,465,,,PerfumeSession
1630811905.52,fixation,1,465,,,PerfumeSession
1630811907.02,stimulus,1,466,,,PerfumeSession
1630811907.52,fixation,1,466,,,PerfumeSession
1630811909.02,stimulus,1,467,,,PerfumeSession
1630811909.52,fixation,1,467,,,PerfumeSession
1630811911.02,stimulus,1,468,,,PerfumeSession
1630811911.52,fixation,1,468,,,PerfumeSession
1630811913.02,stimulus,1,469,,,PerfumeSession
1630811913.52,fixation,1,469,,,PerfumeSession
1630811915.02,stimulus,1,470,,,PerfumeSession
1630811915.52,fixation,1,470,,,PerfumeSession
1630811917.02,stimulus,1,471,,,PerfumeSession
1630811917.52,fixation,1,471,,,PerfumeSession
1630811919.02,stimulus,1,472,,,PerfumeSession
1630811919.52,fixation,1,472,,,PerfumeSession
1630811921.02,stimulus,1,473,,,PerfumeSession
1630811921.52,fixation,1,473,,,PerfumeSession
1630811923.02,stimulus,1,474,,,PerfumeSession
1630811923.52,fixation,1,474,,,PerfumeSession
1630811925.02,stimulus,1,475,,,PerfumeSession
1630811925.52,fixation,1,475,,,PerfumeSession
1630811927.02,stimulus,1,476,,,PerfumeSession
1630811927.52,fixation,1,476,,,PerfumeSession
1630811929.02,stimulus,1,477,,,PerfumeSession
1630811929.52,fixation,1,477,,,PerfumeSession
1630811931.02,stimulus,1,478,,,PerfumeSession
1630811931.52,fixation,1,478,,,PerfumeSession
1630811933.02,stimulus,1,479,,,PerfumeSession
1630811933.52,fixation,1,479,,,PerfumeSession
1630811935.02,stimulus,1,480,,,PerfumeSession
1630811935.52,fixation,1,480,,,PerfumeSession
1630811937.02,stimulus,1,481,,,PerfumeSession
1630811937.52,fixation,1,481,,,PerfumeSession
1630811939.02,stimulus,1,482,,,PerfumeSession
1630811939.52,fixation,1,482,,,PerfumeSession
1630811941.02,stimulus,1,483,,,PerfumeSession
1630811941.52,fixation,1,483,,,PerfumeSession
1630811943.02,stimulus,1,484,,,PerfumeSession
1630811943.52,fixation,1,484,,,PerfumeSession
1630811943.69,stimulus,2,1,,,PracticeSession
1630811944.19,fixation,2,1,,,PracticeSession
1630811945.02,stimulus,1,485,,,PerfumeSession
1630811945.52,fixation,1,485,,,PerfumeSession
1630811945.69,stimulus,2,2,,,PracticeSession
1630811946.19,fixation,2,2,,,PracticeSession
1630811947.02,stimulus,1,486,,,PerfumeSession
1630811947.52,fixation,1,486,,,PerfumeSession
1630811947.69,stimulus,2,3,,,PracticeSession
1630811948.19,fixation,2,3,,,PracticeSession
1630811949.02,stimulus,1,487,,,PerfumeSession
1630811949.52,fixation,1,487,,,PerfumeSession
1630811949.69,stimulus,2,4,,,PracticeSession
1630811950.19,fixation,2,4,,,PracticeSession
1630811951.02,stimulus,1,488,,,PerfumeSession
1630811951.52,fixation,1,488,,,PerfumeSession
1630811951.69,stimulus,2,5,,,PracticeSession
1630811952.19,fixation,2,5,,,PracticeSession
1630811953.02,stimulus,1,489,,,PerfumeSession
1630811953.52,fixation,1,489,,,PerfumeSession
1630811953.69,stimulus,2,6,,,PracticeSession
1630811954.19,fixation,2,6,,,PracticeSession
1630811955.02,stimulus,1,490,,,PerfumeSession
1630811955.52,fixation,1,490,,,PerfumeSession
1630811955.69,stimulus,2,7,,,PracticeSession
1630811956.19,fixation,2,7,,,PracticeSession
1630811957.02,stimulus,1,491,,,PerfumeSession
1630811957.52,fixation,1,491,,,PerfumeSession
1630811957.69,stimulus,2,8,,,PracticeSession
1630811958.19,fixation,2,8,,,PracticeSession
1630811959.02,stimulus,1,492,,,PerfumeSession
1630811959.52,fixation,1,492,,,PerfumeSession
1630811959.69,stimulus,2,9,,,PracticeSession
1630811960.19,fixation,2,9,,,PracticeSession
1630811961.02,stimulus,1,493,,,PerfumeSession
1630811961.52,fixation,1,493,,,PerfumeSession
1630811961.69,stimulus,2,10,,,PracticeSession
1630811962.19,fixation,2,10,,,PracticeSession
1630811963.02,stimulus,1,494,,,PerfumeSession
1630811963.52,fixation,1,494,,,PerfumeSession
1630811963.69,stimulus,2,11,,,PracticeSession
1630811964.19,fixation,2,11,,,PracticeSession
1630811965.02,stimulus,1,495,,,PerfumeSession
1630811965.52,fixation,1,495,,,PerfumeSession
1630811965.69,stimulus,2,12,,,PracticeSession
1630811966.19,fixation,2,12,,,PracticeSession
1630811967.02,stimulus,1,496,,,PerfumeSession
1630811967.52,fixation,1,496,,,PerfumeSession
1630811967.69,stimulus,2,13,,,PracticeSession
1630811968.19,fixation,2,13,,,PracticeSession
1630811969.02,stimulus,1,497,,,PerfumeSession
1630811969.52,fixation,1,497,,,PerfumeSession
1630811969.69,stimulus,2,14,,,PracticeSession
1630811970.19,fixation,2,14,,,PracticeSession
1630811971.02,stimulus,1,498,,,PerfumeSession
1630811971.52,fixation,1,498,,,PerfumeSession
1630811971.69,stimulus,2,15,,,PracticeSession
1630811972.19,fixation,2,15,,,PracticeSession
1630811973.02,stimulus,1,499,,,PerfumeSession
1630811973.52,fixation,1,499,,,PerfumeSession
1630811973.69,stimulus,2,16,,,PracticeSession
1630811974.19,fixation,2,16,,,PracticeSession
1630811975.02,stimulus,1,500,,,PerfumeSession
1630811975.52,fixation,1,500,,,PerfumeSession
1630811975.69,stimulus,2,17,,,PracticeSession
1630811976.19,fixation,2,17,,,PracticeSession
1630811977.02,stimulus,1,501,,,PerfumeSession
1630811977.52,fixation,1,501,,,PerfumeSession
1630811977.69,stimulus,2,18,,,PracticeSession
1630811978.19,fixation,2,18,,,PracticeSession
1630811979.02,stimulus,1,502,,,PerfumeSession
1630811979.52,fixation,1,502,,,PerfumeSession
1630811979.69,stimulus,2,19,,,PracticeSession
1630811980.19,fixation,2,19,,,PracticeSession
1630811981.02,stimulus,1,503,,,PerfumeSession
1630811981.52,fixation,1,503,,,PerfumeSession
1630811981.69,stimulus,2,20,,,PracticeSession
1630811982.19,fixation,2,20,,,PracticeSession
1630811983.02,stimulus,1,504,,,PerfumeSession
1630811983.52,fixation,1,504,,,PerfumeSession
1630811983.69,stimulus,2,21,,,PracticeSession
1630811984.19,fixation,2,21,,,PracticeSession
1630811985.02,stimulus,1,505,,,PerfumeSession
1630811985.52,fixation,1,505,,,PerfumeSession
1630811985.69,stimulus,2,22,,,PracticeSession
1630811986.19,fixation,2,22,,,PracticeSession
1630811987.02,stimulus,1,506,,,PerfumeSession
1630811987.52,fixation,1,506,,,PerfumeSession
1630811987.69,stimulus,2,23,,,PracticeSession
1630811988.19,fixation,2,23,,,PracticeSession
1630811989.02,stimulus,1,507,,,PerfumeSession
1630811989.52,fixation,1,507,,,PerfumeSession
1630811989.69,stimulus,2,24,,,PracticeSession
1630811990.19,fixation,2,24,,,PracticeSession
1630811991.02,stimulus,1,508,,,PerfumeSession
1630811991.52,fixation,1,508,,,PerfumeSession
1630811991.69,stimulus,2,25,,,PracticeSession
1630811992.19,fixation,2,25,,,PracticeSession
1630811993.02,stimulus,1,509,,,PerfumeSession
1630811993.52,fixation,1,509,,,PerfumeSession
1630811993.69,stimulus,2,26,,,PracticeSession
1630811994.19,fixation,2,26,,,PracticeSession
1630811995.02,stimulus,1,510,,,PerfumeSession
1630811995.52,fixation,1,510,,,PerfumeSession
1630811995.69,stimulus,2,27,,,PracticeSession
1630811996.19,fixation,2,27,,,PracticeSession
1630811997.02,stimulus,1,511,,,PerfumeSession
1630811997.52,fixation,1,511,,,PerfumeSession
1630811997.69,stimulus,2,28,,,PracticeSession
1630811998.19,fixation,2,28,,,PracticeSession
1630811999.02,stimulus,1,512,,,PerfumeSession
1630811999.52,fixation,1,512,,,PerfumeSession
1630811999.69,stimulus,2,29,,,PracticeSession
1630812000.19,fixation,2,29,,,PracticeSession
1630812001.02,stimulus,1,513,,,PerfumeSession
1630812001.52,fixation,1,513,,,PerfumeSession
1630812001.69,stimulus,2,30,,,PracticeSession
1630812002.19,fixation,2,30,,,PracticeSession
1630812003.02,stimulus,1,514,,,PerfumeSession
1630812003.52,fixation,1,514,,,PerfumeSession
1630812003.69,stimulus,2,31,,,PracticeSession
1630812004.19,fixation,2,31,,,PracticeSession
1630812005.02,stimulus,1,515,,,PerfumeSession
1630812005.52,fixation,1,515,,,PerfumeSession
1630812005.69,stimulus,2,32,,,PracticeSession
1630812006.19,fixation,2,32,,,PracticeSession
1630812007.02,stimulus,1,516,,,PerfumeSession
1630812007.52,fixation,1,516,,,PerfumeSession
1630812007.69,stimulus,2,33,,,PracticeSession
1630812008.19,fixation,2,33,,,PracticeSession
1630812009.02,stimulus,1,517,,,PerfumeSession
1630812009.52,fixation,1,517,,,PerfumeSession
1630812009.69,stimulus,2,34,,,PracticeSession
1630812010.19,fixation,2,34,,,PracticeSession
1630812011.02,stimulus,1,518,,,PerfumeSession
1630812011.52,fixation,1,518,,,PerfumeSession
1630812011.69,stimulus,2,35,,,PracticeSession
1630812012.19,fixation,2,35,,,PracticeSession
1630812013.02,stimulus,1,519,,,PerfumeSession
1630812013.52,fixation,1,519,,,PerfumeSession
1630812013.69,stimulus,2,36,,,PracticeSession
1630812014.19,fixation,2,36,,,PracticeSession
1630812015.02,stimulus,1,520,,,PerfumeSession
1630812015.52,fixation,1,520,,,PerfumeSession
1630812015.69,stimulus,2,37,,,PracticeSession
1630812016.19,fixation,2,37,,,PracticeSession
1630812017.02,stimulus,1,521,,,PerfumeSession
1630812017.52,fixation,1,521,,,PerfumeSession
1630812017.69,stimulus,2,38,,,PracticeSession
1630812018.19,fixation,2,38,,,PracticeSession
1630812019.02,stimulus,1,522,,,PerfumeSession
1630812019.52,fixation,1,522,,,PerfumeSession
1630812019.69,stimulus,2,39,,,PracticeSession
1630812020.19,fixation,2,39,,,PracticeSession
1630812021.02,stimulus,1,523,,,PerfumeSession
1630812021.52,fixation,1,523,,,PerfumeSession
1630812021.69,stimulus,2,40,,,PracticeSession
1630812022.19,fixation,2,40,,,PracticeSession
1630812023.02,stimulus,1,524,,,PerfumeSession
1630812023.52,fixation,1,524,,,PerfumeSession
1630812023.69,stimulus,2,41,,,PracticeSession
1630812024.19,fixation,2,41,,,PracticeSession
1630812025.02,stimulus,1,525,,,PerfumeSession
1630812025.52,fixation,1,525,,,PerfumeSession
1630812025.69,stimulus,2,42,,,PracticeSession
1630812026.19,fixation,2,42,,,PracticeSession
1630812027.02,stimulus,1,526,,,PerfumeSession
1630812027.52,fixation,1,526,,,PerfumeSession
1630812027.69,stimulus,2,43,,,PracticeSession
1630812028.19,fixation,2,43,,,PracticeSession
1630812029.02,stimulus,1,527,,,PerfumeSession
1630812029.52,fixation,1,527,,,PerfumeSession
1630812029.69,stimulus,2,44,,,PracticeSession
1630812030.19,fixation,2,44,,,PracticeSession
1630812031.02,stimulus,1,528,,,PerfumeSession
1630812031.52,fixation,1,528,,,PerfumeSession
1630812031.69,stimulus,2,45,,,NoAct
1630812032.19,fixation,2,45,,,NoAct
1630812033.02,stimulus,1,529,,,PerfumeSession
1630812033.52,fixation,1,529,,,PerfumeSession
1630812033.69,stimulus,2,46,,,NoAct
1630812034.19,fixation,2,46,,,NoAct
1630812035.02,stimulus,1,530,,,PerfumeSession
1630812035.52,fixation,1,530,,,PerfumeSession
1630812035.69,stimulus,2,47,,,NoAct
1630812036.19,fixation,2,47,,,NoAct
1630812037.02,stimulus,1,531,,,PerfumeSession
1630812037.52,fixation,1,531,,,PerfumeSession
1630812037.69,stimulus,2,48,,,NoAct
1630812038.19,fixation,2,48,,,NoAct
1630812039.02,stimulus,1,532,,,PerfumeSession
1630812039.52,fixation,1,532,,,PerfumeSession
1630812039.69,stimulus,2,49,,,NoAct
1630812040.19,fixation,2,49,,,NoAct
1630812041.02,stimulus,1,533,,,PerfumeSession
1630812041.52,fixation,1,533,,,PerfumeSession
1630812041.69,stimulus,2,50,,,NoAct
1630812042.19,fixation,2,50,,,NoAct
1630812043.02,stimulus,1,534,,,PerfumeSession
1630812043.52,fixation,1,534,,,PerfumeSession
1630812043.69,stimulus,2,51,,,NoAct
1630812044.19,fixation,2,51,,,NoAct
1630812045.02,stimulus,1,535,,,PerfumeSession
1630812045.52,fixation,1,535,,,PerfumeSession
1630812045.69,stimulus,2,52,,,NoAct
1630812046.19,fixation,2,52,,,NoAct
1630812047.02,stimulus,1,536,,,PerfumeSession
1630812047.52,fixation,1,536,,,PerfumeSession
1630812047.69,stimulus,2,53,,,NoAct
1630812048.19,fixation,2,53,,,NoAct
1630812049.02,stimulus,1,537,,,PerfumeSession
1630812049.52,fixation,1,537,,,PerfumeSession
1630812049.69,stimulus,2,54,,,NoAct
1630812050.19,fixation,2,54,,,NoAct
1630812051.02,stimulus,1,538,,,PerfumeSession
1630812051.52,fixation,1,538,,,PerfumeSession
1630812051.69,stimulus,2,55,,,NoAct
1630812052.19,fixation,2,55,,,NoAct
1630812053.02,stimulus,1,539,,,PerfumeSession
1630812053.52,fixation,1,539,,,PerfumeSession
1630812053.69,stimulus,2,56,,,NoAct
1630812054.19,fixation,2,56,,,NoAct
1630812055.02,stimulus,1,540,,,PerfumeSession
1630812055.52,fixation,1,540,,,PerfumeSession
1630812055.69,stimulus,2,57,,,NoAct
1630812056.19,fixation,2,57,,,NoAct
1630812057.02,stimulus,1,541,,,PerfumeSession
1630812057.52,fixation,1,541,,,PerfumeSession
1630812057.69,stimulus,2,58,,,NoAct
1630812058.19,fixation,2,58,,,NoAct
1630812059.02,stimulus,1,542,,,PerfumeSession
1630812059.52,fixation,1,542,,,PerfumeSession
1630812059.69,stimulus,2,59,,,NoAct
1630812060.19,fixation,2,59,,,NoAct
1630812061.02,stimulus,1,543,,,PerfumeSession
1630812061.52,fixation,1,543,,,PerfumeSession
1630812061.69,stimulus,2,60,,,NoAct
1630812062.19,fixation,2,60,,,NoAct
1630812063.02,stimulus,1,544,,,PerfumeSession
1630812063.52,fixation,1,544,,,PerfumeSession
1630812063.69,stimulus,2,61,,,NoAct
1630812064.19,fixation,2,61,,,NoAct
1630812065.02,stimulus,1,545,,,PerfumeSession
1630812065.52,fixation,1,545,,,PerfumeSession
1630812065.69,stimulus,2,62,,,NoAct
1630812066.19,fixation,2,62,,,NoAct
1630812067.02,stimulus,1,546,,,PerfumeSession
1630812067.52,fixation,1,546,,,PerfumeSession
1630812067.69,stimulus,2,63,,,NoAct
1630812068.19,fixation,2,63,,,NoAct
1630812069.02,stimulus,1,547,,,PerfumeSession
1630812069.52,fixation,1,547,,,PerfumeSession
1630812069.69,stimulus,2,64,,,NoAct
1630812070.19,fixation,2,64,,,NoAct
1630812071.02,stimulus,1,548,,,PerfumeSession
1630812071.52,fixation,1,548,,,PerfumeSession
1630812071.69,stimulus,2,65,,,NoAct
1630812072.19,fixation,2,65,,,NoAct
1630812073.02,stimulus,1,549,,,PerfumeSession
1630812073.52,fixation,1,549,,,PerfumeSession
1630812073.69,stimulus,2,66,,,NoAct
1630812074.19,fixation,2,66,,,NoAct
1630812075.02,stimulus,1,550,,,PerfumeSession
1630812075.52,fixation,1,550,,,PerfumeSession
1630812075.69,stimulus,2,67,,,NoAct
1630812076.19,fixation,2,67,,,NoAct
1630812077.02,stimulus,1,551,,,PerfumeSession
1630812077.52,fixation,1,551,,,PerfumeSession
1630812077.69,stimulus,2,68,,,NoAct
1630812078.19,fixation,2,68,,,NoAct
1630812079.02,stimulus,1,552,,,PerfumeSession
1630812079.52,fixation,1,552,,,PerfumeSession
1630812079.69,stimulus,2,69,,,NoAct
1630812080.19,fixation,2,69,,,NoAct
1630812081.02,stimulus,1,553,,,PerfumeSession
1630812081.52,fixation,1,553,,,PerfumeSession
1630812081.69,stimulus,2,70,,,NoAct
1630812082.19,fixation,2,70,,,NoAct
1630812083.02,stimulus,1,554,,,PerfumeSession
1630812083.52,fixation,1,554,,,PerfumeSession
1630812083.69,stimulus,2,71,,,NoAct
1630812084.19,fixation,2,71,,,NoAct
1630812085.02,stimulus,1,555,,,PerfumeSession
1630812085.52,fixation,1,555,,,PerfumeSession
1630812085.69,stimulus,2,72,,,NoAct
1630812086.19,fixation,2,72,,,NoAct
1630812087.02,stimulus,1,556,,,PerfumeSession
1630812087.52,fixation,1,556,,,PerfumeSession
1630812087.69,stimulus,2,73,,,NoAct
1630812088.19,fixation,2,73,,,NoAct
1630812089.02,stimulus,1,557,,,PerfumeSession
1630812089.52,fixation,1,557,,,PerfumeSession
1630812089.69,stimulus,2,74,,,NoAct
1630812090.19,fixation,2,74,,,NoAct
1630812091.02,stimulus,1,558,,,PerfumeSession
1630812091.52,fixation,1,558,,,PerfumeSession
1630812091.69,stimulus,2,75,,,NoAct
1630812092.19,fixation,2,75,,,NoAct
1630812093.02,stimulus,1,559,,,PerfumeSession
1630812093.52,fixation,1,559,,,PerfumeSession
1630812093.69,stimulus,2,76,,,NoAct
1630812094.19,fixation,2,76,,,NoAct
1630812095.02,stimulus,1,560,,,PerfumeSession
1630812095.52,fixation,1,560,,,PerfumeSession
1630812095.69,stimulus,2,77,,,NoAct
1630812096.19,fixation,2,77,,,NoAct
1630812097.02,stimulus,1,561,,,PerfumeSession
1630812097.52,fixation,1,561,,,PerfumeSession
1630812097.69,stimulus,2,78,,,NoAct
1630812098.19,fixation,2,78,,,NoAct
1630812099.02,stimulus,1,562,,,PerfumeSession
1630812099.52,fixation,1,562,,,PerfumeSession
1630812099.69,stimulus,2,79,,,NoAct
1630812100.19,fixation,2,79,,,NoAct
1630812101.02,stimulus,1,563,,,PerfumeSession
1630812101.52,fixation,1,563,,,PerfumeSession
1630812101.69,stimulus,2,80,,,NoAct
1630812102.19,fixation,2,80,,,NoAct
1630812103.02,stimulus,1,564,,,PerfumeSession
1630812103.52,fixation,1,564,,,PerfumeSession
1630812103.69,stimulus,2,81,,,NoAct
1630812104.19,fixation,2,81,,,NoAct
1630812105.02,stimulus,1,565,,,PerfumeSession
1630812105.52,fixation,1,565,,,PerfumeSession
1630812105.69,stimulus,2,82,,,NoAct
1630812106.19,fixation,2,82,,,NoAct
1630812107.02,stimulus,1,566,,,PerfumeSession
1630812107.52,fixation,1,566,,,PerfumeSession
1630812107.69,stimulus,2,83,,,NoAct
1630812108.19,fixation,2,83,,,NoAct
1630812109.02,stimulus,1,567,,,PerfumeSession
1630812109.52,fixation,1,567,,,PerfumeSession
1630812109.69,stimulus,2,84,,,NoAct
1630812110.19,fixation,2,84,,,NoAct
1630812111.02,stimulus,1,568,,,PerfumeSession
1630812111.52,fixation,1,568,,,PerfumeSession
1630812111.69,stimulus,2,85,,,NoAct
1630812112.19,fixation,2,85,,,NoAct
1630812113.02,stimulus,1,569,,,PerfumeSession
1630812113.52,fixation,1,569,,,PerfumeSession
1630812113.69,stimulus,2,86,,,NoAct
1630812114.19,fixation,2,86,,,NoAct
1630812115.02,stimulus,1,570,,,PerfumeSession
1630812115.52,fixation,1,570,,,PerfumeSession
1630812115.69,stimulus,2,87,,,NoAct
1630812116.19,fixation,2,87,,,NoAct
1630812117.02,stimulus,1,571,,,PerfumeSession
1630812117.52,fixation,1,571,,,PerfumeSession
1630812117.69,stimulus,2,88,,,NoAct
1630812118.19,fixation,2,88,,,NoAct
1630812119.02,stimulus,1,572,,,PerfumeSession
1630812119.52,fixation,1,572,,,PerfumeSession
1630812119.69,stimulus,2,89,,,NoAct
1630812120.19,fixation,2,89,,,NoAct
1630812121.02,stimulus,1,573,,,PerfumeSession
1630812121.52,fixation,1,573,,,PerfumeSession
1630812121.69,stimulus,2,90,,,NoAct
1630812122.19,fixation,2,90,,,NoAct
1630812123.02,stimulus,1,574,,,PerfumeSession
1630812123.52,fixation,1,574,,,PerfumeSession
1630812123.69,stimulus,2,91,,,NoAct
1630812124.19,fixation,2,91,,,NoAct
1630812125.02,stimulus,1,575,,,PerfumeSession
1630812125.52,fixation,1,575,,,PerfumeSession
1630812125.69,stimulus,2,92,,,NoAct
1630812126.19,fixation,2,92,,,NoAct
1630812127.02,stimulus,1,576,,,PerfumeSession
1630812127.52,fixation,1,576,,,PerfumeSession
1630812127.69,stimulus,2,93,,,NoAct
1630812128.19,fixation,2,93,,,NoAct
1630812129.02,stimulus,1,577,,,PerfumeSession
1630812129.52,fixation,1,577,,,PerfumeSession
1630812129.69,stimulus,2,94,,,NoAct
1630812130.19,fixation,2,94,,,NoAct
1630812131.02,stimulus,1,578,,,PerfumeSession
1630812131.52,fixation,1,578,,,PerfumeSession
1630812131.69,stimulus,2,95,,,NoAct
1630812132.19,fixation,2,95,,,NoAct
1630812133.02,stimulus,1,579,,,PerfumeSession
1630812133.52,fixation,1,579,,,PerfumeSession
1630812133.69,stimulus,2,96,,,NoAct
1630812134.19,fixation,2,96,,,NoAct
1630812135.02,stimulus,1,580,,,PerfumeSession
1630812135.52,fixation,1,580,,,PerfumeSession
1630812135.69,stimulus,2,97,,,NoAct
1630812136.19,fixation,2,97,,,NoAct
1630812137.02,stimulus,1,581,,,PerfumeSession
1630812137.52,fixation,1,581,,,PerfumeSession
1630812137.69,stimulus,2,98,,,NoAct
1630812138.19,fixation,2,98,,,NoAct
1630812139.02,stimulus,1,582,,,PerfumeSession
1630812139.52,fixation,1,582,,,PerfumeSession
1630812139.69,stimulus,2,99,,,NoAct
1630812140.19,fixation,2,99,,,NoAct
1630812141.02,stimulus,1,583,,,PerfumeSession
1630812141.52,fixation,1,583,,,PerfumeSession
1630812141.69,stimulus,2,100,,,NoAct
1630812142.19,fixation,2,100,,,NoAct
1630812143.02,stimulus,1,584,,,PerfumeSession
1630812143.52,fixation,1,584,,,PerfumeSession
1630812143.69,stimulus,2,101,,,NoAct
1630812144.19,fixation,2,101,,,NoAct
1630812145.02,stimulus,1,585,,,PerfumeSession
1630812145.52,fixation,1,585,,,PerfumeSession
1630812145.69,stimulus,2,102,,,NoAct
1630812146.19,fixation,2,102,,,NoAct
1630812147.02,stimulus,1,586,,,PerfumeSession
1630812147.52,fixation,1,586,,,PerfumeSession
1630812147.69,stimulus,2,103,,,NoAct
1630812148.19,fixation,2,103,,,NoAct
1630812149.02,stimulus,1,587,,,PerfumeSession
1630812149.52,fixation,1,587,,,PerfumeSession
1630812149.69,stimulus,2,104,,,NoAct
1630812150.19,fixation,2,104,,,NoAct
1630812151.02,stimulus,1,588,,,PerfumeSession
1630812151.52,fixation,1,588,,,PerfumeSession
1630812151.69,stimulus,2,105,,,NoAct
1630812152.19,fixation,2,105,,,NoAct
1630812153.02,stimulus,1,589,,,PerfumeSession
1630812153.52,fixation,1,589,,,PerfumeSession
1630812153.69,stimulus,2,106,,,NoAct
1630812154.19,fixation,2,106,,,NoAct
1630812155.02,stimulus,1,590,,,PerfumeSession
1630812155.52,fixation,1,590,,,PerfumeSession
1630812155.69,stimulus,2,107,,,NoAct
1630812156.19,fixation,2,107,,,NoAct
1630812157.02,stimulus,1,591,,,PerfumeSession
1630812157.52,fixation,1,591,,,PerfumeSession
1630812157.69,stimulus,2,108,,,NoAct
1630812158.19,fixation,2,108,,,NoAct
1630812159.02,stimulus,1,592,,,PerfumeSession
1630812159.52,fixation,1,592,,,PerfumeSession
1630812159.69,stimulus,2,109,,,NoAct
1630812160.19,fixation,2,109,,,NoAct
1630812161.02,stimulus,1,593,,,PerfumeSession
1630812161.52,fixation,1,593,,,PerfumeSession
1630812161.69,stimulus,2,110,,,NoAct
1630812162.19,fixation,2,110,,,NoAct
1630812163.02,stimulus,1,594,,,PerfumeSession
1630812163.52,fixation,1,594,,,PerfumeSession
1630812163.69,stimulus,2,111,,,NoAct
1630812164.19,fixation,2,111,,,NoAct
1630812165.02,stimulus,1,595,,,PerfumeSession
1630812165.52,fixation,1,595,,,PerfumeSession
1630812165.69,stimulus,2,112,,,NoAct
1630812166.19,fixation,2,112,,,NoAct
1630812167.02,stimulus,1,596,,,PerfumeSession
1630812167.52,fixation,1,596,,,PerfumeSession
1630812167.69,stimulus,2,113,,,NoAct
1630812168.19,fixation,2,113,,,NoAct
1630812169.02,stimulus,1,597,,,PerfumeSession
1630812169.52,fixation,1,597,,,PerfumeSession
1630812169.69,stimulus,2,114,,,NoAct
1630812170.19,fixation,2,114,,,NoAct
1630812171.02,stimulus,1,598,,,PerfumeSession
1630812171.52,fixation,1,598,,,PerfumeSession
1630812171.69,stimulus,2,115,,,NoAct
1630812172.19,fixation,2,115,,,NoAct
1630812173.02,stimulus,1,599,,,PerfumeSession
1630812173.52,fixation,1,599,,,PerfumeSession
1630812173.69,stimulus,2,116,,,NoAct
1630812174.19,fixation,2,116,,,NoAct
1630812175.02,stimulus,1,600,,,PerfumeSession
1630812175.52,fixation,1,600,,,PerfumeSession
1630812175.69,stimulus,2,117,,,NoAct
1630812176.19,fixation,2,117,,,NoAct
1630812177.02,stimulus,1,601,,,PerfumeSession
1630812177.52,fixation,1,601,,,PerfumeSession
1630812177.69,stimulus,2,118,,,NoAct
1630812178.19,fixation,2,118,,,NoAct
1630812179.02,stimulus,1,602,,,PerfumeSession
1630812179.52,fixation,1,602,,,PerfumeSession
1630812179.69,stimulus,2,119,,,NoAct
1630812180.19,fixation,2,119,,,NoAct
1630812181.02,stimulus,1,603,,,PerfumeSession
1630812181.52,fixation,1,603,,,PerfumeSession
1630812181.69,stimulus,2,120,,,NoAct
1630812182.19,fixation,2,120,,,NoAct
1630812183.02,stimulus,1,604,,,PerfumeSession
1630812183.52,fixation,1,604,,,PerfumeSession
1630812183.69,stimulus,2,121,,,NoAct
1630812184.19,fixation,2,121,,,NoAct
1630812185.02,stimulus,1,605,,,PerfumeSession
1630812185.52,fixation,1,605,,,PerfumeSession
1630812185.69,stimulus,2,122,,,NoAct
1630812186.19,fixation,2,122,,,NoAct
1630812187.02,stimulus,1,606,,,PerfumeSession
1630812187.52,fixation,1,606,,,PerfumeSession
1630812187.69,stimulus,2,123,,,NoAct
1630812188.19,fixation,2,123,,,NoAct
1630812189.02,stimulus,1,607,,,PerfumeSession
1630812189.52,fixation,1,607,,,PerfumeSession
1630812189.69,stimulus,2,124,,,NoAct
1630812190.19,fixation,2,124,,,NoAct
1630812191.02,stimulus,1,608,,,PerfumeSession
1630812191.52,fixation,1,608,,,PerfumeSession
1630812191.69,stimulus,2,125,,,NoAct
1630812192.19,fixation,2,125,,,NoAct
1630812193.02,stimulus,1,609,,,PerfumeSession
1630812193.52,fixation,1,609,,,PerfumeSession
1630812193.69,stimulus,2,126,,,NoAct
1630812194.19,fixation,2,126,,,NoAct
1630812195.02,stimulus,1,610,,,PerfumeSession
1630812195.52,fixation,1,610,,,PerfumeSession
1630812195.69,stimulus,2,127,,,NoAct
1630812196.19,fixation,2,127,,,NoAct
1630812197.02,stimulus,1,611,,,PerfumeSession
1630812197.52,fixation,1,611,,,PerfumeSession
1630812197.69,stimulus,2,128,,,NoAct
1630812198.19,fixation,2,128,,,NoAct
1630812199.02,stimulus,1,612,,,PerfumeSession
1630812199.52,fixation,1,612,,,PerfumeSession
1630812199.69,stimulus,2,129,,,NoAct
1630812200.19,fixation,2,129,,,NoAct
1630812201.02,stimulus,1,613,,,PerfumeSession
1630812201.52,fixation,1,613,,,PerfumeSession
1630812201.69,stimulus,2,130,,,NoAct
1630812202.19,fixation,2,130,,,NoAct
1630812203.02,stimulus,1,614,,,PerfumeSession
1630812203.52,fixation,1,614,,,PerfumeSession
1630812203.69,stimulus,2,131,,,NoAct
1630812204.19,fixation,2,131,,,NoAct
1630812205.02,stimulus,1,615,,,PerfumeSession
1630812205.52,fixation,1,615,,,PerfumeSession
1630812205.69,stimulus,2,132,,,NoAct
1630812206.19,fixation,2,132,,,NoAct
1630812207.02,stimulus,1,616,,,PerfumeSession
1630812207.52,fixation,1,616,,,PerfumeSession
1630812207.69,stimulus,2,133,,,NoAct
1630812208.19,fixation,2,133,,,NoAct
1630812209.02,stimulus,1,617,,,PerfumeSession
1630812209.52,fixation,1,617,,,PerfumeSession
1630812209.69,stimulus,2,134,,,NoAct
1630812210.19,fixation,2,134,,,NoAct
1630812211.02,stimulus,1,618,,,PerfumeSession
1630812211.52,fixation,1,618,,,PerfumeSession
1630812211.69,stimulus,2,135,,,NoAct
1630812212.19,fixation,2,135,,,NoAct
1630812213.02,stimulus,1,619,,,PerfumeSession
1630812213.52,fixation,1,619,,,PerfumeSession
1630812213.69,stimulus,2,136,,,NoAct
1630812214.19,fixation,2,136,,,NoAct
1630812215.02,stimulus,1,620,,,PerfumeSession
1630812215.52,fixation,1,620,,,PerfumeSession
1630812215.69,stimulus,2,137,,,NoAct
1630812216.19,fixation,2,137,,,NoAct
1630812217.02,stimulus,1,621,,,PerfumeSession
1630812217.52,fixation,1,621,,,PerfumeSession
1630812217.69,stimulus,2,138,,,NoAct
1630812218.19,fixation,2,138,,,NoAct
1630812219.02,stimulus,1,622,,,PerfumeSession
1630812219.52,fixation,1,622,,,PerfumeSession
1630812219.69,stimulus,2,139,,,NoAct
1630812220.19,fixation,2,139,,,NoAct
1630812221.02,stimulus,1,623,,,PerfumeSession
1630812221.52,fixation,1,623,,,PerfumeSession
1630812221.69,stimulus,2,140,,,NoAct
1630812222.19,fixation,2,140,,,NoAct
1630812223.02,stimulus,1,624,,,PerfumeSession
1630812223.52,fixation,1,624,,,PerfumeSession
1630812223.69,stimulus,2,141,,,NoAct
1630812224.19,fixation,2,141,,,NoAct
1630812225.02,stimulus,1,625,,,PerfumeSession
1630812225.52,fixation,1,625,,,PerfumeSession
1630812225.69,stimulus,2,142,,,NoAct
1630812226.19,fixation,2,142,,,NoAct
1630812227.02,stimulus,1,626,,,PerfumeSession
1630812227.52,fixation,1,626,,,PerfumeSession
1630812227.69,stimulus,2,143,,,NoAct
1630812228.19,fixation,2,143,,,NoAct
1630812229.02,stimulus,1,627,,,PerfumeSession
1630812229.52,fixation,1,627,,,PerfumeSession
1630812229.69,stimulus,2,144,,,NoAct
1630812230.19,fixation,2,144,,,NoAct
1630812231.02,stimulus,1,628,,,PerfumeSession
1630812231.52,fixation,1,628,,,PerfumeSession
1630812231.69,stimulus,2,145,,,NoAct
1630812232.19,fixation,2,145,,,NoAct
1630812233.02,stimulus,1,629,,,PerfumeSession
1630812233.52,fixation,1,629,,,PerfumeSession
1630812233.69,stimulus,2,146,,,NoAct
1630812234.19,fixation,2,146,,,NoAct
1630812235.02,stimulus,1,630,,,PerfumeSession
1630812235.52,fixation,1,630,,,PerfumeSession
1630812235.69,stimulus,2,147,,,NoAct
1630812236.19,fixation,2,147,,,NoAct
1630812237.02,stimulus,1,631,,,PerfumeSession
1630812237.52,fixation,1,631,,,PerfumeSession
1630812237.69,stimulus,2,148,,,NoAct
1630812238.19,fixation,2,148,,,NoAct
1630812239.02,stimulus,1,632,,,PerfumeSession
1630812239.52,fixation,1,632,,,PerfumeSession
1630812239.69,stimulus,2,149,,,NoAct
1630812240.19,fixation,2,149,,,NoAct
1630812241.02,stimulus,1,633,,,PerfumeSession
1630812241.52,fixation,1,633,,,PerfumeSession
1630812241.69,stimulus,2,150,,,NoAct
1630812242.19,fixation,2,150,,,NoAct
1630812243.02,stimulus,1,634,,,PerfumeSession
1630812243.52,fixation,1,634,,,PerfumeSession
1630812243.69,stimulus,2,151,,,NoAct
1630812244.19,fixation,2,151,,,NoAct
1630812245.02,stimulus,1,635,,,PerfumeSession
1630812245.52,fixation,1,635,,,PerfumeSession
1630812245.69,stimulus,2,152,,,NoAct
1630812246.19,fixation,2,152,,,NoAct
1630812247.02,stimulus,1,636,,,PerfumeSession
1630812247.52,fixation,1,636,,,PerfumeSession
1630812247.69,stimulus,2,153,,,NoAct
1630812248.19,fixation,2,153,,,NoAct
1630812249.02,stimulus,1,637,,,PerfumeSession
1630812249.52,fixation,1,637,,,PerfumeSession
1630812249.69,stimulus,2,154,,,NoAct
1630812250.19,fixation,2,154,,,NoAct
1630812251.02,stimulus,1,638,,,PerfumeSession
1630812251.52,fixation,1,638,,,PerfumeSession
1630812251.69,stimulus,2,155,,,NoAct
1630812252.19,fixation,2,155,,,NoAct
1630812253.02,stimulus,1,639,,,PerfumeSession
1630812253.52,fixation,1,639,,,PerfumeSession
1630812253.69,stimulus,2,156,,,NoAct
1630812254.19,fixation,2,156,,,NoAct
1630812255.02,stimulus,1,640,,,PerfumeSession
1630812255.52,fixation,1,640,,,PerfumeSession
1630812255.69,stimulus,2,157,,,NoAct
1630812256.19,fixation,2,157,,,NoAct
1630812257.02,stimulus,1,641,,,PerfumeSession
1630812257.52,fixation,1,641,,,PerfumeSession
1630812257.69,stimulus,2,158,,,NoAct
1630812258.19,fixation,2,158,,,NoAct
1630812259.02,stimulus,1,642,,,PerfumeSession
1630812259.52,fixation,1,642,,,PerfumeSession
1630812259.69,stimulus,2,159,,,NoAct
1630812260.19,fixation,2,159,,,NoAct
1630812261.02,stimulus,1,643,,,PerfumeSession
1630812261.52,fixation,1,643,,,PerfumeSession
1630812261.69,stimulus,2,160,,,NoAct
1630812262.19,fixation,2,160,,,NoAct
1630812263.02,stimulus,1,644,,,PerfumeSession
1630812263.52,fixation,1,644,,,PerfumeSession
1630812263.69,stimulus,2,161,,,NoAct
1630812264.19,fixation,2,161,,,NoAct
1630812265.02,stimulus,1,645,,,PerfumeSession
1630812265.52,fixation,1,645,,,PerfumeSession
1630812265.69,stimulus,2,162,,,NoAct
1630812266.19,fixation,2,162,,,NoAct
1630812267.02,stimulus,1,646,,,PerfumeSession
1630812267.52,fixation,1,646,,,PerfumeSession
1630812267.69,stimulus,2,163,,,NoAct
1630812268.19,fixation,2,163,,,NoAct
1630812269.02,stimulus,1,647,,,PerfumeSession
1630812269.52,fixation,1,647,,,PerfumeSession
1630812269.69,stimulus,2,164,,,NoAct
1630812270.19,fixation,2,164,,,NoAct
1630812271.02,stimulus,1,648,,,PerfumeSession
1630812271.52,fixation,1,648,,,PerfumeSession
1630812271.69,stimulus,2,165,,,NoAct
1630812272.19,fixation,2,165,,,NoAct
1630812273.02,stimulus,1,649,,,PerfumeSession
1630812273.52,fixation,1,649,,,PerfumeSession
1630812273.69,stimulus,2,166,,,NoAct
1630812274.19,fixation,2,166,,,NoAct
1630812275.02,stimulus,1,650,,,PerfumeSession
1630812275.52,fixation,1,650,,,PerfumeSession
1630812275.69,stimulus,2,167,,,NoAct
1630812276.19,fixation,2,167,,,NoAct
1630812277.02,stimulus,1,651,,,PerfumeSession
1630812277.52,fixation,1,651,,,PerfumeSession
1630812277.69,stimulus,2,168,,,NoAct
1630812278.19,fixation,2,168,,,NoAct
1630812279.02,stimulus,1,652,,,PerfumeSession
1630812279.52,fixation,1,652,,,PerfumeSession
1630812279.69,stimulus,2,169,,,NoAct
1630812280.19,fixation,2,169,,,NoAct
1630812281.02,stimulus,1,653,,,PerfumeSession
1630812281.52,fixation,1,653,,,PerfumeSession
1630812281.69,stimulus,2,170,,,NoAct
1630812282.19,fixation,2,170,,,NoAct
1630812283.02,stimulus,1,654,,,PerfumeSession
1630812283.52,fixation,1,654,,,PerfumeSession
1630812283.69,stimulus,2,171,,,NoAct
1630812284.19,fixation,2,171,,,NoAct
1630812285.02,stimulus,1,655,,,PerfumeSession
1630812285.52,fixation,1,655,,,PerfumeSession
1630812285.69,stimulus,2,172,,,NoAct
1630812286.19,fixation,2,172,,,NoAct
1630812287.02,stimulus,1,656,,,PerfumeSession
1630812287.52,fixation,1,656,,,PerfumeSession
1630812287.69,stimulus,2,173,,,NoAct
1630812288.19,fixation,2,173,,,NoAct
1630812289.02,stimulus,1,657,,,PerfumeSession
1630812289.52,fixation,1,657,,,PerfumeSession
1630812289.69,stimulus,2,174,,,NoAct
1630812290.19,fixation,2,174,,,NoAct
1630812291.02,stimulus,1,658,,,PerfumeSession
1630812291.52,fixation,1,658,,,PerfumeSession
1630812291.69,stimulus,2,175,,,NoAct
1630812292.19,fixation,2,175,,,NoAct
1630812293.02,stimulus,1,659,,,PerfumeSession
1630812293.52,fixation,1,659,,,PerfumeSession
1630812293.69,stimulus,2,176,,,NoAct
1630812294.19,fixation,2,176,,,NoAct
1630812295.02,stimulus,1,660,,,PerfumeSession
1630812295.52,fixation,1,660,,,PerfumeSession
1630812295.69,stimulus,2,177,,,NoAct
1630812296.19,fixation,2,177,,,NoAct
1630812297.02,stimulus,1,661,,,PerfumeSession
1630812297.52,fixation,1,661,,,PerfumeSession
1630812297.69,stimulus,2,178,,,NoAct
1630812298.19,fixation,2,178,,,NoAct
1630812299.02,stimulus,1,662,,,PerfumeSession
1630812299.52,fixation,1,662,,,PerfumeSession
1630812299.69,stimulus,2,179,,,NoAct
1630812300.19,fixation,2,179,,,NoAct
1630812301.02,stimulus,1,663,,,PerfumeSession
1630812301.52,fixation,1,663,,,PerfumeSession
1630812301.69,stimulus,2,180,,,NoAct
1630812302.19,fixation,2,180,,,NoAct
1630812303.02,stimulus,1,664,,,PerfumeSession
1630812303.52,fixation,1,664,,,PerfumeSession
1630812303.69,stimulus,2,181,,,NoAct
1630812304.19,fixation,2,181,,,NoAct
1630812305.02,stimulus,1,665,,,PerfumeSession
1630812305.52,fixation,1,665,,,PerfumeSession
1630812305.69,stimulus,2,182,,,NoAct
1630812306.19,fixation,2,182,,,NoAct
1630812307.02,stimulus,1,666,,,PerfumeSession
1630812307.52,fixation,1,666,,,PerfumeSession
1630812307.69,stimulus,2,183,,,NoAct
1630812308.19,fixation,2,183,,,NoAct
1630812309.02,stimulus,1,667,,,PerfumeSession
1630812309.52,fixation,1,667,,,PerfumeSession
1630812309.69,stimulus,2,184,,,NoAct
1630812310.19,fixation,2,184,,,NoAct
1630812311.02,stimulus,1,668,,,PerfumeSession
1630812311.52,fixation,1,668,,,PerfumeSession
1630812311.69,stimulus,2,185,,,NoAct
1630812312.19,fixation,2,185,,,NoAct
1630812313.02,stimulus,1,669,,,PerfumeSession
1630812313.52,fixation,1,669,,,PerfumeSession
1630812313.69,stimulus,2,186,,,NoAct
1630812314.19,fixation,2,186,,,NoAct
1630812315.02,stimulus,1,670,,,PerfumeSession
1630812315.52,fixation,1,670,,,PerfumeSession
1630812315.69,stimulus,2,187,,,NoAct
1630812316.19,fixation,2,187,,,NoAct
1630812317.02,stimulus,1,671,,,PerfumeSession
1630812317.52,fixation,1,671,,,PerfumeSession
1630812317.69,stimulus,2,188,,,NoAct
1630812318.19,fixation,2,188,,,NoAct
1630812319.02,stimulus,1,672,,,PerfumeSession
1630812319.52,fixation,1,672,,,PerfumeSession
1630812319.69,stimulus,2,189,,,NoAct
1630812320.19,fixation,2,189,,,NoAct
1630812321.02,stimulus,1,673,,,PerfumeSession
1630812321.52,fixation,1,673,,,PerfumeSession
1630812321.69,stimulus,2,190,,,NoAct
1630812322.19,fixation,2,190,,,NoAct
1630812323.02,stimulus,1,674,,,PerfumeSession
1630812323.52,fixation,1,674,,,PerfumeSession
1630812323.69,stimulus,2,191,,,NoAct
1630812324.19,fixation,2,191,,,NoAct
1630812325.02,stimulus,1,675,,,PerfumeSession
1630812325.52,fixation,1,675,,,PerfumeSession
1630812325.69,stimulus,2,192,,,NoAct
1630812326.19,fixation,2,192,,,NoAct
1630812326.72,stimulus,3,1,,,PracticeSession
1630812327.02,stimulus,1,676,,,PerfumeSession
1630812327.22,fixation,3,1,,,PracticeSession
1630812327.52,fixation,1,676,,,PerfumeSession
1630812327.69,stimulus,2,193,,,NoAct
1630812328.19,fixation,2,193,,,NoAct
1630812328.72,stimulus,3,2,,,PracticeSession
1630812329.02,stimulus,1,677,,,PerfumeSession
1630812329.22,fixation,3,2,,,PracticeSession
1630812329.52,fixation,1,677,,,PerfumeSession
1630812329.69,stimulus,2,194,,,NoAct
1630812330.19,fixation,2,194,,,NoAct
1630812330.72,stimulus,3,3,,,PracticeSession
1630812331.02,stimulus,1,678,,,PerfumeSession
1630812331.22,fixation,3,3,,,PracticeSession
1630812331.52,fixation,1,678,,,PerfumeSession
1630812331.69,stimulus,2,195,,,NoAct
1630812332.19,fixation,2,195,,,NoAct
1630812332.72,stimulus,3,4,,,PracticeSession
1630812333.02,stimulus,1,679,,,PerfumeSession
1630812333.22,fixation,3,4,,,PracticeSession
1630812333.52,fixation,1,679,,,PerfumeSession
1630812333.69,stimulus,2,196,,,NoAct
1630812334.19,fixation,2,196,,,NoAct
1630812334.72,stimulus,3,5,,,PracticeSession
1630812335.02,stimulus,1,680,,,PerfumeSession
1630812335.22,fixation,3,5,,,PracticeSession
1630812335.52,fixation,1,680,,,PerfumeSession
1630812335.69,stimulus,2,197,,,NoAct
1630812336.19,fixation,2,197,,,NoAct
1630812336.72,stimulus,3,6,,,PracticeSession
1630812337.02,stimulus,1,681,,,PerfumeSession
1630812337.22,fixation,3,6,,,PracticeSession
1630812337.52,fixation,1,681,,,PerfumeSession
1630812337.69,stimulus,2,198,,,NoAct
1630812338.19,fixation,2,198,,,NoAct
1630812338.72,stimulus,3,7,,,PracticeSession
1630812339.02,stimulus,1,682,,,PerfumeSession
1630812339.22,fixation,3,7,,,PracticeSession
1630812339.52,fixation,1,682,,,PerfumeSession
1630812339.69,stimulus,2,199,,,NoAct
1630812340.19,fixation,2,199,,,NoAct
1630812340.72,stimulus,3,8,,,PracticeSession
1630812341.02,stimulus,1,683,,,PerfumeSession
1630812341.22,fixation,3,8,,,PracticeSession
1630812341.52,fixation,1,683,,,PerfumeSession
1630812341.69,stimulus,2,200,,,NoAct
1630812342.19,fixation,2,200,,,NoAct
1630812342.72,stimulus,3,9,,,PracticeSession
1630812343.02,stimulus,1,684,,,PerfumeSession
1630812343.22,fixation,3,9,,,PracticeSession
1630812343.52,fixation,1,684,,,PerfumeSession
1630812343.69,stimulus,2,201,,,NoAct
1630812344.19,fixation,2,201,,,NoAct
1630812344.72,stimulus,3,10,,,PracticeSession
1630812345.02,stimulus,1,685,,,PerfumeSession
1630812345.22,fixation,3,10,,,PracticeSession
1630812345.52,fixation,1,685,,,PerfumeSession
1630812345.69,stimulus,2,202,,,NoAct
1630812346.19,fixation,2,202,,,NoAct
1630812346.72,stimulus,3,11,,,PracticeSession
1630812347.02,stimulus,1,686,,,PerfumeSession
1630812347.22,fixation,3,11,,,PracticeSession
1630812347.52,fixation,1,686,,,PerfumeSession
1630812347.69,stimulus,2,203,,,NoAct
1630812348.19,fixation,2,203,,,NoAct
1630812348.72,stimulus,3,12,,,PracticeSession
1630812349.02,stimulus,1,687,,,PerfumeSession
1630812349.22,fixation,3,12,,,PracticeSession
1630812349.52,fixation,1,687,,,PerfumeSession
1630812349.69,stimulus,2,204,,,NoAct
1630812350.19,fixation,2,204,,,NoAct
1630812350.72,stimulus,3,13,,,PracticeSession
1630812351.02,stimulus,1,688,,,PerfumeSession
1630812351.22,fixation,3,13,,,PracticeSession
1630812351.52,fixation,1,688,,,PerfumeSession
1630812351.69,stimulus,2,205,,,NoAct
1630812352.19,fixation,2,205,,,NoAct
1630812352.72,stimulus,3,14,,,PracticeSession
1630812353.02,stimulus,1,689,,,PerfumeSession
1630812353.22,fixation,3,14,,,PracticeSession
1630812353.52,fixation,1,689,,,PerfumeSession
1630812353.69,stimulus,2,206,,,NoAct
1630812354.19,fixation,2,206,,,NoAct
1630812354.72,stimulus,3,15,,,PracticeSession
1630812355.02,stimulus,1,690,,,PerfumeSession
1630812355.22,fixation,3,15,,,PracticeSession
1630812355.52,fixation,1,690,,,PerfumeSession
1630812355.69,stimulus,2,207,,,NoAct
1630812356.19,fixation,2,207,,,NoAct
1630812356.72,stimulus,3,16,,,PracticeSession
1630812357.02,stimulus,1,691,,,PerfumeSession
1630812357.22,fixation,3,16,,,PracticeSession
1630812357.52,fixation,1,691,,,PerfumeSession
1630812357.69,stimulus,2,208,,,NoAct
1630812358.19,fixation,2,208,,,NoAct
1630812358.72,stimulus,3,17,,,PracticeSession
1630812359.02,stimulus,1,692,,,PerfumeSession
1630812359.22,fixation,3,17,,,PracticeSession
1630812359.52,fixation,1,692,,,PerfumeSession
1630812359.69,stimulus,2,209,,,NoAct
1630812360.19,fixation,2,209,,,NoAct
1630812360.72,stimulus,3,18,,,PracticeSession
1630812361.02,stimulus,1,693,,,PerfumeSession
1630812361.22,fixation,3,18,,,PracticeSession
1630812361.52,fixation,1,693,,,PerfumeSession
1630812361.69,stimulus,2,210,,,NoAct
1630812362.19,fixation,2,210,,,NoAct
1630812362.72,stimulus,3,19,,,PracticeSession
1630812363.02,stimulus,1,694,,,PerfumeSession
1630812363.22,fixation,3,19,,,PracticeSession
1630812363.52,fixation,1,694,,,PerfumeSession
1630812363.69,stimulus,2,211,,,NoAct
1630812364.19,fixation,2,211,,,NoAct
1630812364.72,stimulus,3,20,,,PracticeSession
1630812365.02,stimulus,1,695,,,PerfumeSession
1630812365.22,fixation,3,20,,,PracticeSession
1630812365.52,fixation,1,695,,,PerfumeSession
1630812365.69,stimulus,2,212,,,NoAct
1630812366.19,fixation,2,212,,,NoAct
1630812366.72,stimulus,3,21,,,PracticeSession
1630812367.02,stimulus,1,696,,,PerfumeSession
1630812367.22,fixation,3,21,,,PracticeSession
1630812367.52,fixation,1,696,,,PerfumeSession
1630812367.69,stimulus,2,213,,,NoAct
1630812368.19,fixation,2,213,,,NoAct
1630812368.72,stimulus,3,22,,,PracticeSession
1630812369.02,stimulus,1,697,,,PerfumeSession
1630812369.22,fixation,3,22,,,PracticeSession
1630812369.52,fixation,1,697,,,PerfumeSession
1630812369.69,stimulus,2,214,,,NoAct
1630812370.19,fixation,2,214,,,NoAct
1630812370.72,stimulus,3,23,,,PracticeSession
1630812371.02,stimulus,1,698,,,PerfumeSession
1630812371.22,fixation,3,23,,,PracticeSession
1630812371.52,fixation,1,698,,,PerfumeSession
1630812371.69,stimulus,2,215,,,NoAct
1630812372.19,fixation,2,215,,,NoAct
1630812372.72,stimulus,3,24,,,PracticeSession
1630812373.02,stimulus,1,699,,,PerfumeSession
1630812373.22,fixation,3,24,,,PracticeSession
1630812373.52,fixation,1,699,,,PerfumeSession
1630812373.69,stimulus,2,216,,,NoAct
1630812374.19,fixation,2,216,,,NoAct
1630812374.72,stimulus,3,25,,,PracticeSession
1630812375.02,stimulus,1,700,,,PerfumeSession
1630812375.22,fixation,3,25,,,PracticeSession
1630812375.52,fixation,1,700,,,PerfumeSession
1630812375.69,stimulus,2,217,,,NoAct
1630812376.19,fixation,2,217,,,NoAct
1630812376.72,stimulus,3,26,,,PracticeSession
1630812377.02,stimulus,1,701,,,PerfumeSession
1630812377.22,fixation,3,26,,,PracticeSession
1630812377.52,fixation,1,701,,,PerfumeSession
1630812377.69,stimulus,2,218,,,NoAct
1630812378.19,fixation,2,218,,,NoAct
1630812378.72,stimulus,3,27,,,PracticeSession
1630812379.02,stimulus,1,702,,,PerfumeSession
1630812379.22,fixation,3,27,,,PracticeSession
1630812379.52,fixation,1,702,,,PerfumeSession
1630812379.69,stimulus,2,219,,,NoAct
1630812380.19,fixation,2,219,,,NoAct
1630812380.72,stimulus,3,28,,,PracticeSession
1630812381.02,stimulus,1,703,,,PerfumeSession
1630812381.22,fixation,3,28,,,PracticeSession
1630812381.52,fixation,1,703,,,PerfumeSession
1630812381.69,stimulus,2,220,,,NoAct
1630812382.19,fixation,2,220,,,NoAct
1630812382.72,stimulus,3,29,,,PracticeSession
1630812383.02,stimulus,1,704,,,PerfumeSession
1630812383.22,fixation,3,29,,,PracticeSession
1630812383.52,fixation,1,704,,,PerfumeSession
1630812383.69,stimulus,2,221,,,NoAct
1630812384.19,fixation,2,221,,,NoAct
1630812384.72,stimulus,3,30,,,PracticeSession
1630812385.02,stimulus,1,705,,,PerfumeSession
1630812385.22,fixation,3,30,,,PracticeSession
1630812385.52,fixation,1,705,,,PerfumeSession
1630812385.69,stimulus,2,222,,,NoAct
1630812386.19,fixation,2,222,,,NoAct
1630812386.72,stimulus,3,31,,,PracticeSession
1630812387.02,stimulus,1,706,,,PerfumeSession
1630812387.22,fixation,3,31,,,PracticeSession
1630812387.52,fixation,1,706,,,PerfumeSession
1630812387.69,stimulus,2,223,,,NoAct
1630812388.19,fixation,2,223,,,NoAct
1630812388.72,stimulus,3,32,,,PracticeSession
1630812389.02,stimulus,1,707,,,PerfumeSession
1630812389.22,fixation,3,32,,,PracticeSession
1630812389.52,fixation,1,707,,,PerfumeSession
1630812389.69,stimulus,2,224,,,NoAct
1630812390.19,fixation,2,224,,,NoAct
1630812390.72,stimulus,3,33,,,PracticeSession
1630812391.02,stimulus,1,708,,,PerfumeSession
1630812391.22,fixation,3,33,,,PracticeSession
1630812391.52,fixation,1,708,,,PerfumeSession
1630812391.69,stimulus,2,225,,,NoAct
1630812392.19,fixation,2,225,,,NoAct
1630812392.72,stimulus,3,34,,,PracticeSession
1630812393.02,stimulus,1,709,,,PerfumeSession
1630812393.22,fixation,3,34,,,PracticeSession
1630812393.52,fixation,1,709,,,PerfumeSession
1630812393.69,stimulus,2,226,,,NoAct
1630812394.19,fixation,2,226,,,NoAct
1630812394.72,stimulus,3,35,,,PracticeSession
1630812395.02,stimulus,1,710,,,PerfumeSession
1630812395.22,fixation,3,35,,,PracticeSession
1630812395.52,fixation,1,710,,,PerfumeSession
1630812395.69,stimulus,2,227,,,NoAct
1630812396.19,fixation,2,227,,,NoAct
1630812396.72,stimulus,3,36,,,PracticeSession
1630812397.02,stimulus,1,711,,,PerfumeSession
1630812397.22,fixation,3,36,,,PracticeSession
1630812397.52,fixation,1,711,,,PerfumeSession
1630812397.69,stimulus,2,228,,,NoAct
1630812398.19,fixation,2,228,,,NoAct
1630812398.72,stimulus,3,37,,,PracticeSession
1630812399.02,stimulus,1,712,,,PerfumeSession
1630812399.22,fixation,3,37,,,PracticeSession
1630812399.52,fixation,1,712,,,PerfumeSession
1630812399.69,stimulus,2,229,,,NoAct
1630812400.19,fixation,2,229,,,NoAct
1630812400.72,stimulus,3,38,,,PracticeSession
1630812401.02,stimulus,1,713,,,PerfumeSession
1630812401.22,fixation,3,38,,,PracticeSession
1630812401.52,fixation,1,713,,,PerfumeSession
1630812401.69,stimulus,2,230,,,NoAct
1630812402.19,fixation,2,230,,,NoAct
1630812402.72,stimulus,3,39,,,PracticeSession
1630812403.02,stimulus,1,714,,,PerfumeSession
1630812403.22,fixation,3,39,,,PracticeSession
1630812403.52,fixation,1,714,,,PerfumeSession
1630812403.69,stimulus,2,231,,,NoAct
1630812404.19,fixation,2,231,,,NoAct
1630812404.72,stimulus,3,40,,,PracticeSession
1630812405.02,stimulus,1,715,,,PerfumeSession
1630812405.22,fixation,3,40,,,PracticeSession
1630812405.52,fixation,1,715,,,PerfumeSession
1630812405.69,stimulus,2,232,,,NoAct
1630812406.19,fixation,2,232,,,NoAct
1630812406.72,stimulus,3,41,,,PracticeSession
1630812407.02,stimulus,1,716,,,PerfumeSession
1630812407.22,fixation,3,41,,,PracticeSession
1630812407.52,fixation,1,716,,,PerfumeSession
1630812407.69,stimulus,2,233,,,NoAct
1630812408.19,fixation,2,233,,,NoAct
1630812408.72,stimulus,3,42,,,PracticeSession
1630812409.02,stimulus,1,717,,,PerfumeSession
1630812409.22,fixation,3,42,,,PracticeSession
1630812409.52,fixation,1,717,,,PerfumeSession
1630812409.69,stimulus,2,234,,,NoAct
1630812410.19,fixation,2,234,,,NoAct
1630812410.72,stimulus,3,43,,,PracticeSession
1630812411.02,stimulus,1,718,,,PerfumeSession
1630812411.22,fixation,3,43,,,PracticeSession
1630812411.52,fixation,1,718,,,PerfumeSession
1630812411.69,stimulus,2,235,,,NoAct
1630812412.19,fixation,2,235,,,NoAct
1630812412.72,stimulus,3,44,,,PracticeSession
1630812413.02,stimulus,1,719,,,PerfumeSession
1630812413.22,fixation,3,44,,,PracticeSession
1630812413.52,fixation,1,719,,,PerfumeSession
1630812413.69,stimulus,2,236,,,NoAct
1630812414.19,fixation,2,236,,,NoAct
1630812414.72,stimulus,3,45,,,NoAct
1630812415.02,stimulus,1,720,,,PerfumeSession
1630812415.22,fixation,3,45,,,NoAct
1630812415.52,fixation,1,720,,,PerfumeSession
1630812415.69,stimulus,2,237,,,NoAct
1630812416.19,fixation,2,237,,,NoAct
1630812416.72,stimulus,3,46,,,NoAct
1630812417.02,stimulus,1,721,,,PerfumeSession
1630812417.22,fixation,3,46,,,NoAct
1630812417.52,fixation,1,721,,,PerfumeSession
1630812417.69,stimulus,2,238,,,NoAct
1630812418.19,fixation,2,238,,,NoAct
1630812418.72,stimulus,3,47,,,NoAct
1630812419.02,stimulus,1,722,,,PerfumeSession
1630812419.22,fixation,3,47,,,NoAct
1630812419.52,fixation,1,722,,,PerfumeSession
1630812419.69,stimulus,2,239,,,NoAct
1630812420.19,fixation,2,239,,,NoAct
1630812420.72,stimulus,3,48,,,NoAct
1630812421.02,stimulus,1,723,,,PerfumeSession
1630812421.22,fixation,3,48,,,NoAct
1630812421.52,fixation,1,723,,,PerfumeSession
1630812421.69,stimulus,2,240,,,NoAct
1630812422.19,fixation,2,240,,,NoAct
1630812422.72,stimulus,3,49,,,NoAct
1630812423.02,stimulus,1,724,,,PerfumeSession
1630812423.22,fixation,3,49,,,NoAct
1630812423.52,fixation,1,724,,,PerfumeSession
1630812423.69,stimulus,2,241,,,NoAct
1630812424.19,fixation,2,241,,,NoAct
1630812424.72,stimulus,3,50,,,NoAct
1630812425.02,stimulus,1,725,,,PerfumeSession
1630812425.22,fixation,3,50,,,NoAct
1630812425.52,fixation,1,725,,,PerfumeSession
1630812425.69,stimulus,2,242,,,NoAct
1630812426.19,fixation,2,242,,,NoAct
1630812426.72,stimulus,3,51,,,NoAct
1630812427.02,stimulus,1,726,,,PerfumeSession
1630812427.22,fixation,3,51,,,NoAct
1630812427.52,fixation,1,726,,,PerfumeSession
1630812427.69,stimulus,2,243,,,NoAct
1630812428.19,fixation,2,243,,,NoAct
1630812428.72,stimulus,3,52,,,NoAct
1630812429.02,stimulus,1,727,,,PerfumeSession
1630812429.22,fixation,3,52,,,NoAct
1630812429.52,fixation,1,727,,,PerfumeSession
1630812429.69,stimulus,2,244,,,NoAct
1630812430.19,fixation,2,244,,,NoAct
1630812430.72,stimulus,3,53,,,NoAct
1630812431.02,stimulus,1,728,,,PerfumeSession
1630812431.22,fixation,3,53,,,NoAct
1630812431.52,fixation,1,728,,,PerfumeSession
1630812431.69,stimulus,2,245,,,NoAct
1630812432.19,fixation,2,245,,,NoAct
1630812432.72,stimulus,3,54,,,NoAct
1630812433.02,stimulus,1,729,,,PerfumeSession
1630812433.22,fixation,3,54,,,NoAct
1630812433.52,fixation,1,729,,,PerfumeSession
1630812433.69,stimulus,2,246,,,NoAct
1630812434.19,fixation,2,246,,,NoAct
1630812434.72,stimulus,3,55,,,NoAct
1630812435.02,stimulus,1,730,,,PerfumeSession
1630812435.22,fixation,3,55,,,NoAct
1630812435.52,fixation,1,730,,,PerfumeSession
1630812435.69,stimulus,2,247,,,NoAct
1630812436.19,fixation,2,247,,,NoAct
1630812436.72,stimulus,3,56,,,NoAct
1630812437.02,stimulus,1,731,,,PerfumeSession
1630812437.22,fixation,3,56,,,NoAct
1630812437.52,fixation,1,731,,,PerfumeSession
1630812437.69,stimulus,2,248,,,NoAct
1630812438.19,fixation,2,248,,,NoAct
1630812438.72,stimulus,3,57,,,NoAct
1630812439.02,stimulus,1,732,,,PerfumeSession
1630812439.22,fixation,3,57,,,NoAct
1630812439.52,fixation,1,732,,,PerfumeSession
1630812439.69,stimulus,2,249,,,NoAct
1630812440.19,fixation,2,249,,,NoAct
1630812440.72,stimulus,3,58,,,NoAct
1630812441.02,stimulus,1,733,,,PerfumeSession
1630812441.22,fixation,3,58,,,NoAct
1630812441.52,fixation,1,733,,,PerfumeSession
1630812441.69,stimulus,2,250,,,NoAct
1630812442.19,fixation,2,250,,,NoAct
1630812442.72,stimulus,3,59,,,NoAct
1630812443.02,stimulus,1,734,,,PerfumeSession
1630812443.22,fixation,3,59,,,NoAct
1630812443.52,fixation,1,734,,,PerfumeSession
1630812443.69,stimulus,2,251,,,NoAct
1630812444.19,fixation,2,251,,,NoAct
1630812444.72,stimulus,3,60,,,NoAct
1630812445.02,stimulus,1,735,,,PerfumeSession
1630812445.22,fixation,3,60,,,NoAct
1630812445.52,fixation,1,735,,,PerfumeSession
1630812445.69,stimulus,2,252,,,NoAct
1630812446.19,fixation,2,252,,,NoAct
1630812446.72,stimulus,3,61,,,NoAct
1630812447.02,stimulus,1,736,,,PerfumeSession
1630812447.22,fixation,3,61,,,NoAct
1630812447.52,fixation,1,736,,,PerfumeSession
1630812447.69,stimulus,2,253,,,NoAct
1630812448.19,fixation,2,253,,,NoAct
1630812448.72,stimulus,3,62,,,NoAct
1630812449.02,stimulus,1,737,,,PerfumeSession
1630812449.22,fixation,3,62,,,NoAct
1630812449.52,fixation,1,737,,,PerfumeSession
1630812449.69,stimulus,2,254,,,NoAct
1630812450.19,fixation,2,254,,,NoAct
1630812450.72,stimulus,3,63,,,NoAct
1630812451.02,stimulus,1,738,,,PerfumeSession
1630812451.22,fixation,3,63,,,NoAct
1630812451.52,fixation,1,738,,,PerfumeSession
1630812451.69,stimulus,2,255,,,NoAct
1630812452.19,fixation,2,255,,,NoAct
1630812452.72,stimulus,3,64,,,NoAct
1630812453.02,stimulus,1,739,,,PerfumeSession
1630812453.22,fixation,3,64,,,NoAct
1630812453.52,fixation,1,739,,,PerfumeSession
1630812453.69,stimulus,2,256,,,NoAct
1630812454.19,fixation,2,256,,,NoAct
1630812454.72,stimulus,3,65,,,NoAct
1630812455.02,stimulus,1,740,,,PerfumeSession
1630812455.22,fixation,3,65,,,NoAct
1630812455.52,fixation,1,740,,,PerfumeSession
1630812455.69,stimulus,2,257,,,NoAct
1630812456.19,fixation,2,257,,,NoAct
1630812456.72,stimulus,3,66,,,NoAct
1630812457.02,stimulus,1,741,,,PerfumeSession
1630812457.22,fixation,3,66,,,NoAct
1630812457.52,fixation,1,741,,,PerfumeSession
1630812457.69,stimulus,2,258,,,NoAct
1630812458.19,fixation,2,258,,,NoAct
1630812458.72,stimulus,3,67,,,NoAct
1630812459.02,stimulus,1,742,,,PerfumeSession
1630812459.22,fixation,3,67,,,NoAct
1630812459.52,fixation,1,742,,,PerfumeSession
1630812459.69,stimulus,2,259,,,NoAct
1630812460.19,fixation,2,259,,,NoAct
1630812460.72,stimulus,3,68,,,NoAct
1630812461.02,stimulus,1,743,,,PerfumeSession
1630812461.22,fixation,3,68,,,NoAct
1630812461.52,fixation,1,743,,,PerfumeSession
1630812461.69,stimulus,2,260,,,NoAct
1630812462.19,fixation,2,260,,,NoAct
1630812462.72,stimulus,3,69,,,NoAct
1630812463.02,stimulus,1,744,,,PerfumeSession
1630812463.22,fixation,3,69,,,NoAct
1630812463.52,fixation,1,744,,,PerfumeSession
1630812463.69,stimulus,2,261,,,NoAct
1630812464.19,fixation,2,261,,,NoAct
1630812464.72,stimulus,3,70,,,NoAct
1630812465.02,stimulus,1,745,,,PerfumeSession
1630812465.22,fixation,3,70,,,NoAct
1630812465.52,fixation,1,745,,,PerfumeSession
1630812465.69,stimulus,2,262,,,NoAct
1630812466.19,fixation,2,262,,,NoAct
1630812466.72,stimulus,3,71,,,NoAct
1630812467.02,stimulus,1,746,,,PerfumeSession
1630812467.22,fixation,3,71,,,NoAct
1630812467.52,fixation,1,746,,,PerfumeSession
1630812467.69,stimulus,2,263,,,NoAct
1630812468.19,fixation,2,263,,,NoAct
1630812468.72,stimulus,3,72,,,NoAct
1630812469.02,stimulus,1,747,,,PerfumeSession
1630812469.22,fixation,3,72,,,NoAct
1630812469.52,fixation,1,747,,,PerfumeSession
1630812469.69,stimulus,2,264,,,NoAct
1630812470.19,fixation,2,264,,,NoAct
1630812470.72,stimulus,3,73,,,NoAct
1630812471.02,stimulus,1,748,,,PerfumeSession
1630812471.22,fixation,3,73,,,NoAct
1630812471.52,fixation,1,748,,,PerfumeSession
1630812471.69,stimulus,2,265,,,NoAct
1630812472.19,fixation,2,265,,,NoAct
1630812472.72,stimulus,3,74,,,NoAct
1630812473.02,stimulus,1,749,,,PerfumeSession
1630812473.22,fixation,3,74,,,NoAct
1630812473.52,fixation,1,749,,,PerfumeSession
1630812473.69,stimulus,2,266,,,NoAct
1630812474.19,fixation,2,266,,,NoAct
1630812474.72,stimulus,3,75,,,NoAct
1630812475.02,stimulus,1,750,,,PerfumeSession
1630812475.22,fixation,3,75,,,NoAct
1630812475.52,fixation,1,750,,,PerfumeSession
1630812475.69,stimulus,2,267,,,NoAct
1630812476.19,fixation,2,267,,,NoAct
1630812476.72,stimulus,3,76,,,NoAct
1630812477.02,stimulus,1,751,,,CoffeeSession
1630812477.22,fixation,3,76,,,NoAct
1630812477.52,fixation,1,751,,,CoffeeSession
1630812477.69,stimulus,2,268,,,NoAct
1630812478.19,fixation,2,268,,,NoAct
1630812478.72,stimulus,3,77,,,NoAct
1630812479.02,stimulus,1,752,,,CoffeeSession
1630812479.22,fixation,3,77,,,NoAct
1630812479.52,fixation,1,752,,,CoffeeSession
1630812479.69,stimulus,2,269,,,NoAct
1630812480.19,fixation,2,269,,,NoAct
1630812480.72,stimulus,3,78,,,NoAct
1630812481.02,stimulus,1,753,,,CoffeeSession
1630812481.22,fixation,3,78,,,NoAct
1630812481.52,fixation,1,753,,,CoffeeSession
1630812481.69,stimulus,2,270,,,NoAct
1630812482.19,fixation,2,270,,,NoAct
1630812482.72,stimulus,3,79,,,NoAct
1630812483.02,stimulus,1,754,,,CoffeeSession
1630812483.22,fixation,3,79,,,NoAct
1630812483.52,fixation,1,754,,,CoffeeSession
1630812483.69,stimulus,2,271,,,NoAct
1630812484.19,fixation,2,271,,,NoAct
1630812484.72,stimulus,3,80,,,NoAct
1630812485.02,stimulus,1,755,,,CoffeeSession
1630812485.22,fixation,3,80,,,NoAct
1630812485.52,fixation,1,755,,,CoffeeSession
1630812485.69,stimulus,2,272,,,NoAct
1630812486.19,fixation,2,272,,,NoAct
1630812486.72,stimulus,3,81,,,NoAct
1630812487.02,stimulus,1,756,,,CoffeeSession
1630812487.22,fixation,3,81,,,NoAct
1630812487.52,fixation,1,756,,,CoffeeSession
1630812487.69,stimulus,2,273,,,NoAct
1630812488.19,fixation,2,273,,,NoAct
1630812488.72,stimulus,3,82,,,NoAct
1630812489.02,stimulus,1,757,,,CoffeeSession
1630812489.22,fixation,3,82,,,NoAct
1630812489.52,fixation,1,757,,,CoffeeSession
1630812489.69,stimulus,2,274,,,NoAct
1630812490.19,fixation,2,274,,,NoAct
1630812490.72,stimulus,3,83,,,NoAct
1630812491.02,stimulus,1,758,,,CoffeeSession
1630812491.22,fixation,3,83,,,NoAct
1630812491.52,fixation,1,758,,,CoffeeSession
1630812491.69,stimulus,2,275,,,NoAct
1630812492.19,fixation,2,275,,,NoAct
1630812492.72,stimulus,3,84,,,NoAct
1630812493.02,stimulus,1,759,,,CoffeeSession
1630812493.22,fixation,3,84,,,NoAct
1630812493.52,fixation,1,759,,,CoffeeSession
1630812493.69,stimulus,2,276,,,NoAct
1630812494.19,fixation,2,276,,,NoAct
1630812494.72,stimulus,3,85,,,NoAct
1630812495.02,stimulus,1,760,,,CoffeeSession
1630812495.22,fixation,3,85,,,NoAct
1630812495.52,fixation,1,760,,,CoffeeSession
1630812495.69,stimulus,2,277,,,NoAct
1630812496.19,fixation,2,277,,,NoAct
1630812496.72,stimulus,3,86,,,NoAct
1630812497.02,stimulus,1,761,,,CoffeeSession
1630812497.22,fixation,3,86,,,NoAct
1630812497.52,fixation,1,761,,,CoffeeSession
1630812497.69,stimulus,2,278,,,NoAct
1630812498.19,fixation,2,278,,,NoAct
1630812498.72,stimulus,3,87,,,NoAct
1630812499.02,stimulus,1,762,,,CoffeeSession
1630812499.22,fixation,3,87,,,NoAct
1630812499.52,fixation,1,762,,,CoffeeSession
1630812499.69,stimulus,2,279,,,NoAct
1630812500.19,fixation,2,279,,,NoAct
1630812500.72,stimulus,3,88,,,NoAct
1630812501.02,stimulus,1,763,,,CoffeeSession
1630812501.22,fixation,3,88,,,NoAct
1630812501.52,fixation,1,763,,,CoffeeSession
1630812501.69,stimulus,2,280,,,NoAct
1630812502.19,fixation,2,280,,,NoAct
1630812502.72,stimulus,3,89,,,NoAct
1630812503.02,stimulus,1,764,,,CoffeeSession
1630812503.22,fixation,3,89,,,NoAct
1630812503.52,fixation,1,764,,,CoffeeSession
1630812503.69,stimulus,2,281,,,NoAct
1630812504.19,fixation,2,281,,,NoAct
1630812504.72,stimulus,3,90,,,NoAct
1630812505.02,stimulus,1,765,,,CoffeeSession
1630812505.22,fixation,3,90,,,NoAct
1630812505.52,fixation,1,765,,,CoffeeSession
1630812505.69,stimulus,2,282,,,NoAct
1630812506.19,fixation,2,282,,,NoAct
1630812506.72,stimulus,3,91,,,NoAct
1630812507.02,stimulus,1,766,,,CoffeeSession
1630812507.22,fixation,3,91,,,NoAct
1630812507.52,fixation,1,766,,,CoffeeSession
1630812507.69,stimulus,2,283,,,NoAct
1630812508.19,fixation,2,283,,,NoAct
1630812508.72,stimulus,3,92,,,NoAct
1630812509.02,stimulus,1,767,,,CoffeeSession
1630812509.22,fixation,3,92,,,NoAct
1630812509.52,fixation,1,767,,,CoffeeSession
1630812509.69,stimulus,2,284,,,NoAct
1630812510.19,fixation,2,284,,,NoAct
1630812510.72,stimulus,3,93,,,NoAct
1630812511.02,stimulus,1,768,,,CoffeeSession
1630812511.22,fixation,3,93,,,NoAct
1630812511.52,fixation,1,768,,,CoffeeSession
1630812511.69,stimulus,2,285,,,NoAct
1630812512.19,fixation,2,285,,,NoAct
1630812512.72,stimulus,3,94,,,NoAct
1630812513.02,stimulus,1,769,,,CoffeeSession
1630812513.22,fixation,3,94,,,NoAct
1630812513.52,fixation,1,769,,,CoffeeSession
1630812513.69,stimulus,2,286,,,NoAct
1630812514.19,fixation,2,286,,,NoAct
1630812514.72,stimulus,3,95,,,NoAct
1630812515.02,stimulus,1,770,,,CoffeeSession
1630812515.22,fixation,3,95,,,NoAct
1630812515.52,fixation,1,770,,,CoffeeSession
1630812515.69,stimulus,2,287,,,NoAct
1630812516.19,fixation,2,287,,,NoAct
1630812516.72,stimulus,3,96,,,NoAct
1630812517.02,stimulus,1,771,,,CoffeeSession
1630812517.22,fixation,3,96,,,NoAct
1630812517.52,fixation,1,771,,,CoffeeSession
1630812517.69,stimulus,2,288,,,NoAct
1630812518.19,fixation,2,288,,,NoAct
1630812518.72,stimulus,3,97,,,NoAct
1630812519.02,stimulus,1,772,,,CoffeeSession
1630812519.22,fixation,3,97,,,NoAct
1630812519.52,fixation,1,772,,,CoffeeSession
1630812519.69,stimulus,2,289,,,NoAct
1630812520.19,fixation,2,289,,,NoAct
1630812520.72,stimulus,3,98,,,NoAct
1630812521.02,stimulus,1,773,,,CoffeeSession
1630812521.22,fixation,3,98,,,NoAct
1630812521.52,fixation,1,773,,,CoffeeSession
1630812521.69,stimulus,2,290,,,NoAct
1630812522.19,fixation,2,290,,,NoAct
1630812522.72,stimulus,3,99,,,NoAct
1630812523.02,stimulus,1,774,,,CoffeeSession
1630812523.22,fixation,3,99,,,NoAct
1630812523.52,fixation,1,774,,,CoffeeSession
1630812523.69,stimulus,2,291,,,NoAct
1630812524.19,fixation,2,291,,,NoAct
1630812524.72,stimulus,3,100,,,NoAct
1630812525.02,stimulus,1,775,,,CoffeeSession
1630812525.22,fixation,3,100,,,NoAct
1630812525.52,fixation,1,775,,,CoffeeSession
1630812525.69,stimulus,2,292,,,NoAct
1630812526.19,fixation,2,292,,,NoAct
1630812526.72,stimulus,3,101,,,NoAct
1630812527.02,stimulus,1,776,,,CoffeeSession
1630812527.22,fixation,3,101,,,NoAct
1630812527.52,fixation,1,776,,,CoffeeSession
1630812527.69,stimulus,2,293,,,NoAct
1630812528.19,fixation,2,293,,,NoAct
1630812528.72,stimulus,3,102,,,NoAct
1630812529.02,stimulus,1,777,,,CoffeeSession
1630812529.22,fixation,3,102,,,NoAct
1630812529.52,fixation,1,777,,,CoffeeSession
1630812529.69,stimulus,2,294,,,NoAct
1630812530.19,fixation,2,294,,,NoAct
1630812530.72,stimulus,3,103,,,NoAct
1630812531.02,stimulus,1,778,,,CoffeeSession
1630812531.22,fixation,3,103,,,NoAct
1630812531.52,fixation,1,778,,,CoffeeSession
1630812531.69,stimulus,2,295,,,NoAct
