event_time_s,trial_type,session_idx,trial_idx,RT_s,ACC,session_type
1624845556.0,stimulus,1,1,,,PracticeSession
1624845556.5,fixation,1,1,,,PracticeSession
1624845558.0,stimulus,1,2,,,PracticeSession
1624845558.5,fixation,1,2,,,PracticeSession
1624845560.0,stimulus,1,3,,,PracticeSession
1624845560.5,fixation,1,3,,,PracticeSession
1624845562.0,stimulus,1,4,,,PracticeSession
1624845562.5,fixation,1,4,,,PracticeSession
1624845564.0,stimulus,1,5,,,PracticeSession
1624845564.5,fixation,1,5,,,PracticeSession
1624845566.0,stimulus,1,6,,,PracticeSession
1624845566.5,fixation,1,6,,,PracticeSession
1624845568.0,stimulus,1,7,,,PracticeSession
1624845568.5,fixation,1,7,,,PracticeSession
1624845570.0,stimulus,1,8,,,PracticeSession
1624845570.5,fixation,1,8,,,PracticeSession
1624845572.0,stimulus,1,9,,,PracticeSession
1624845572.5,fixation,1,9,,,PracticeSession
1624845574.0,stimulus,1,10,,,PracticeSession
1624845574.5,fixation,1,10,,,PracticeSession
1624845576.0,stimulus,1,11,,,PracticeSession
1624845576.5,fixation,1,11,,,PracticeSession
1624845578.0,stimulus,1,12,,,PracticeSession
1624845578.5,fixation,1,12,,,PracticeSession
1624845580.0,stimulus,1,13,,,PracticeSession
1624845580.5,fixation,1,13,,,PracticeSession
1624845582.0,stimulus,1,14,,,PracticeSession
1624845582.5,fixation,1,14,,,PracticeSession
1624845584.0,stimulus,1,15,,,PracticeSession
1624845584.5,fixation,1,15,,,PracticeSession
1624845586.0,stimulus,1,16,,,PracticeSession
1624845586.5,fixation,1,16,,,PracticeSession
1624845588.0,stimulus,1,17,,,PracticeSession
1624845588.5,fixation,1,17,,,PracticeSession
1624845590.0,stimulus,1,18,,,PracticeSession
1624845590.5,fixation,1,18,,,PracticeSession
1624845592.0,stimulus,1,19,,,PracticeSession
1624845592.5,fixation,1,19,,,PracticeSession
1624845594.0,stimulus,1,20,,,PracticeSession
1624845594.5,fixation,1,20,,,PracticeSession
1624845596.0,stimulus,1,21,,,PracticeSession
1624845596.5,fixation,1,21,,,PracticeSession
1624845598.0,stimulus,1,22,,,PracticeSession
1624845598.5,fixation,1,22,,,PracticeSession
1624845600.0,stimulus,1,23,,,PracticeSession
1624845600.5,fixation,1,23,,,PracticeSession
1624845602.0,stimulus,1,24,,,PracticeSession
1624845602.5,fixation,1,24,,,PracticeSession
1624845604.0,stimulus,1,25,,,PracticeSession
1624845604.5,fixation,1,25,,,PracticeSession
1624845606.0,stimulus,1,26,,,PracticeSession
1624845606.5,fixation,1,26,,,PracticeSession
1624845608.0,stimulus,1,27,,,PracticeSession
1624845608.5,fixation,1,27,,,PracticeSession
1624845610.0,stimulus,1,28,,,PracticeSession
1624845610.5,fixation,1,28,,,PracticeSession
1624845612.0,stimulus,1,29,,,PracticeSession
1624845612.5,fixation,1,29,,,PracticeSession
1624845614.0,stimulus,1,30,,,PracticeSession
1624845614.5,fixation,1,30,,,PracticeSession
1624845616.0,stimulus,1,31,,,PracticeSession
1624845616.5,fixation,1,31,,,PracticeSession
1624845618.0,stimulus,1,32,,,PracticeSession
1624845618.5,fixation,1,32,,,PracticeSession
1624845620.0,stimulus,1,33,,,PracticeSession
1624845620.5,fixation,1,33,,,PracticeSession
1624845622.0,stimulus,1,34,,,PracticeSession
1624845622.5,fixation,1,34,,,PracticeSession
1624845624.0,stimulus,1,35,,,PracticeSession
1624845624.5,fixation,1,35,,,PracticeSession
1624845626.0,stimulus,1,36,,,PracticeSession
1624845626.5,fixation,1,36,,,PracticeSession
1624845628.0,stimulus,1,37,,,PracticeSession
1624845628.5,fixation,1,37,,,PracticeSession
1624845630.0,stimulus,1,38,,,PracticeSession
1624845630.5,fixation,1,38,,,PracticeSession
1624845632.0,stimulus,1,39,,,PracticeSession
1624845632.5,fixation,1,39,,,PracticeSession
1624845634.0,stimulus,1,40,,,PracticeSession
1624845634.5,fixation,1,40,,,PracticeSession
1624845636.0,stimulus,1,41,,,PracticeSession
1624845636.5,fixation,1,41,,,PracticeSession
1624845638.0,stimulus,1,42,,,PracticeSession
1624845638.5,fixation,1,42,,,PracticeSession
1624845640.0,stimulus,1,43,,,PracticeSession
1624845640.5,fixation,1,43,,,PracticeSession
1624845642.0,stimulus,1,44,,,PracticeSession
1624845642.5,fixation,1,44,,,PracticeSession
1624845644.0,stimulus,1,45,,0.0,NoAct
1624845644.5,fixation,1,45,,0.0,NoAct
1624845646.229,stimulus,1,46,0.229,1.0,NoAct
1624845646.5,fixation,1,46,,0.0,NoAct
1624845648.387,stimulus,1,47,0.387,1.0,NoAct
1624845648.5,fixation,1,47,,0.0,NoAct
1624845650.0,stimulus,1,48,,0.0,NoAct
1624845650.503,fixation,1,48,0.003,0.0,NoAct
1624845652.449,stimulus,1,49,0.449,1.0,NoAct
1624845652.67,fixation,1,49,0.17,0.0,NoAct
1624845654.0,stimulus,1,50,,0.0,NoAct
1624845654.596,fixation,1,50,0.096,1.0,NoAct
1624845656.0,stimulus,1,51,,0.0,NoAct
1624845656.588,fixation,1,51,0.088,1.0,NoAct
1624845658.405,stimulus,1,52,0.405,1.0,NoAct
1624845658.5,fixation,1,52,,0.0,NoAct
1624845660.0,stimulus,1,53,,0.0,NoAct
1624845660.526,fixation,1,53,0.026,1.0,NoAct
1624845662.0,stimulus,1,54,,0.0,NoAct
1624845662.522,fixation,1,54,0.022,1.0,NoAct
1624845664.0,stimulus,1,55,,0.0,NoAct
1624845664.669,fixation,1,55,0.169,1.0,NoAct
1624845666.0,stimulus,1,56,,0.0,NoAct
1624845666.566,fixation,1,56,0.066,1.0,NoAct
1624845668.0,stimulus,1,57,,0.0,NoAct
1624845668.984,fixation,1,57,0.484,1.0,NoAct
1624845670.498,stimulus,1,58,0.498,1.0,NoAct
1624845670.5,fixation,1,58,,0.0,NoAct
1624845672.404,stimulus,1,59,0.404,1.0,NoAct
1624845672.5,fixation,1,59,,0.0,NoAct
1624845674.442,stimulus,1,60,0.442,1.0,NoAct
1624845674.5,fixation,1,60,,0.0,NoAct
1624845676.0,stimulus,1,61,,0.0,NoAct
1624845676.919,fixation,1,61,0.419,1.0,NoAct
1624845678.0,stimulus,1,62,,0.0,NoAct
1624845678.883,fixation,1,62,0.383,1.0,NoAct
1624845680.0,stimulus,1,63,,0.0,NoAct
1624845680.638,fixation,1,63,0.138,1.0,NoAct
1624845682.473,stimulus,1,64,0.473,1.0,NoAct
1624845682.5,fixation,1,64,,0.0,NoAct
1624845684.461,stimulus,1,65,0.461,1.0,NoAct
1624845684.5,fixation,1,65,,0.0,NoAct
1624845686.477,stimulus,1,66,0.477,1.0,NoAct
1624845686.5,fixation,1,66,,0.0,NoAct
1624845688.0,stimulus,1,67,,0.0,NoAct
1624845688.5,fixation,1,67,,0.0,NoAct
1624845690.497,stimulus,1,68,0.497,1.0,NoAct
1624845690.5,fixation,1,68,,0.0,NoAct
1624845692.288,stimulus,1,69,0.288,1.0,NoAct
1624845692.5,fixation,1,69,,0.0,NoAct
1624845694.435,stimulus,1,70,0.435,0.0,NoAct
1624845694.5,fixation,1,70,,0.0,NoAct
1624845696.315,stimulus,1,71,0.315,1.0,NoAct
1624845696.5,fixation,1,71,,0.0,NoAct
1624845698.0,stimulus,1,72,,0.0,NoAct
1624845698.822,fixation,1,72,0.322,1.0,NoAct
1624845700.0,stimulus,1,73,,0.0,NoAct
1624845700.609,fixation,1,73,0.109,0.0,NoAct
1624845702.0,stimulus,1,74,,0.0,NoAct
1624845702.577,fixation,1,74,0.077,1.0,NoAct
1624845704.0,stimulus,1,75,,0.0,NoAct
1624845705.006,fixation,1,75,0.506,1.0,NoAct
1624845706.0,stimulus,1,76,,0.0,NoAct
1624845706.69,fixation,1,76,0.19,1.0,NoAct
1624845708.0,stimulus,1,77,,0.0,NoAct
1624845708.537,fixation,1,77,0.037,0.0,NoAct
1624845710.0,stimulus,1,78,,0.0,NoAct
1624845710.61,fixation,1,78,0.11,1.0,NoAct
1624845712.0,stimulus,1,79,,0.0,NoAct
1624845713.215,fixation,1,79,0.715,1.0,NoAct
1624845714.0,stimulus,1,80,,0.0,NoAct
1624845714.866,fixation,1,80,0.366,1.0,NoAct
1624845716.0,stimulus,1,81,,0.0,NoAct
1624845716.636,fixation,1,81,0.136,1.0,NoAct
1624845718.0,stimulus,1,82,,0.0,NoAct
1624845718.627,fixation,1,82,0.127,1.0,NoAct
1624845720.0,stimulus,1,83,,0.0,NoAct
1624845720.5,fixation,1,83,,0.0,NoAct
1624845722.0,stimulus,1,84,,0.0,NoAct
1624845722.987,fixation,1,84,0.487,0.0,NoAct
1624845724.0,stimulus,1,85,,0.0,NoAct
1624845724.589,fixation,1,85,0.089,1.0,NoAct
1624845726.0,stimulus,1,86,,0.0,NoAct
1624845726.502,fixation,1,86,0.002,1.0,NoAct
1624845728.0,stimulus,1,87,,0.0,NoAct
1624845728.732,fixation,1,87,0.232,1.0,NoAct
1624845730.0,stimulus,1,88,,0.0,NoAct
1624845730.94,fixation,1,88,0.44,1.0,NoAct
1624845732.0,stimulus,1,89,,0.0,NoAct
1624845733.104,fixation,1,89,0.604,1.0,NoAct
1624845734.0,stimulus,1,90,,0.0,NoAct
1624845734.536,fixation,1,90,0.036,1.0,NoAct
1624845736.402,stimulus,1,91,0.402,1.0,NoAct
1624845736.5,fixation,1,91,,0.0,NoAct
1624845738.0,stimulus,1,92,,0.0,NoAct
1624845738.542,fixation,1,92,0.042,1.0,NoAct
1624845740.0,stimulus,1,93,,0.0,NoAct
1624845740.997,fixation,1,93,0.497,0.0,NoAct
1624845742.0,stimulus,1,94,,0.0,NoAct
1624845743.205,fixation,1,94,0.705,1.0,NoAct
1624845744.0,stimulus,1,95,,0.0,NoAct
1624845745.447,fixation,1,95,0.947,1.0,NoAct
1624845746.0,stimulus,1,96,,0.0,NoAct
1624845746.855,fixation,1,96,0.355,1.0,NoAct
1624845748.0,stimulus,1,97,,0.0,NoAct
1624845749.061,fixation,1,97,0.561,1.0,NoAct
1624845750.0,stimulus,1,98,,0.0,NoAct
1624845750.961,fixation,1,98,0.461,1.0,NoAct
1624845752.0,stimulus,1,99,,0.0,NoAct
1624845752.692,fixation,1,99,0.192,1.0,NoAct
1624845754.0,stimulus,1,100,,0.0,NoAct
1624845754.727,fixation,1,100,0.227,1.0,NoAct
1624845756.0,stimulus,1,101,,0.0,NoAct
1624845756.63,fixation,1,101,0.13,1.0,NoAct
1624845758.0,stimulus,1,102,,0.0,NoAct
1624845758.707,fixation,1,102,0.207,1.0,NoAct
1624845760.0,stimulus,1,103,,0.0,NoAct
1624845760.54,fixation,1,103,0.04,1.0,NoAct
1624845762.0,stimulus,1,104,,0.0,NoAct
1624845762.635,fixation,1,104,0.135,1.0,NoAct
1624845764.0,stimulus,1,105,,0.0,NoAct
1624845764.648,fixation,1,105,0.148,1.0,NoAct
1624845766.0,stimulus,1,106,,0.0,NoAct
1624845766.782,fixation,1,106,0.282,1.0,NoAct
1624845768.0,stimulus,1,107,,0.0,NoAct
1624845768.623,fixation,1,107,0.123,1.0,NoAct
1624845770.485,stimulus,1,108,0.485,1.0,NoAct
1624845770.5,fixation,1,108,,0.0,NoAct
1624845772.0,stimulus,1,109,,0.0,NoAct
1624845772.545,fixation,1,109,0.045,0.0,NoAct
1624845774.0,stimulus,1,110,,0.0,NoAct
1624845774.614,fixation,1,110,0.114,1.0,NoAct
1624845776.0,stimulus,1,111,,0.0,NoAct
1624845776.5,fixation,1,111,,0.0,NoAct
1624845778.364,stimulus,1,112,0.364,1.0,NoAct
1624845778.5,fixation,1,112,,0.0,NoAct
1624845780.459,stimulus,1,113,0.459,1.0,NoAct
1624845780.5,fixation,1,113,,0.0,NoAct
1624845782.0,stimulus,1,114,,0.0,NoAct
1624845782.645,fixation,1,114,0.145,1.0,NoAct
1624845784.414,stimulus,1,115,0.414,1.0,NoAct
1624845784.5,fixation,1,115,,0.0,NoAct
1624845786.39,stimulus,1,116,0.39,1.0,NoAct
1624845786.5,fixation,1,116,,0.0,NoAct
1624845788.406,stimulus,1,117,0.406,1.0,NoAct
1624845788.5,fixation,1,117,,0.0,NoAct
1624845790.0,stimulus,1,118,,0.0,NoAct
1624845790.582,fixation,1,118,0.082,1.0,NoAct
1624845792.0,stimulus,1,119,,0.0,NoAct
1624845792.676,fixation,1,119,0.176,1.0,NoAct
1624845794.0,stimulus,1,120,,0.0,NoAct
1624845794.788,fixation,1,120,0.288,1.0,NoAct
1624845796.363,stimulus,1,121,0.363,1.0,NoAct
1624845796.5,fixation,1,121,,0.0,NoAct
1624845798.0,stimulus,1,122,,0.0,NoAct
1624845798.501,fixation,1,122,0.001,1.0,NoAct
1624845800.372,stimulus,1,123,0.372,0.0,NoAct
1624845800.5,fixation,1,123,,0.0,NoAct
1624845802.0,stimulus,1,124,,0.0,NoAct
1624845802.821,fixation,1,124,0.321,1.0,NoAct
1624845804.461,stimulus,1,125,0.461,1.0,NoAct
1624845804.5,fixation,1,125,,0.0,NoAct
1624845806.0,stimulus,1,126,,0.0,NoAct
1624845806.563,fixation,1,126,0.063,1.0,NoAct
1624845808.436,stimulus,1,127,0.436,1.0,NoAct
1624845808.5,fixation,1,127,,0.0,NoAct
1624845810.325,stimulus,1,128,0.325,1.0,NoAct
1624845810.5,fixation,1,128,,0.0,NoAct
1624845812.495,stimulus,1,129,0.495,1.0,NoAct
1624845812.5,fixation,1,129,,0.0,NoAct
1624845814.347,stimulus,1,130,0.347,1.0,NoAct
1624845814.5,fixation,1,130,,0.0,NoAct
1624845816.493,stimulus,1,131,0.493,1.0,NoAct
1624845816.5,fixation,1,131,,0.0,NoAct
1624845818.434,stimulus,1,132,0.434,1.0,NoAct
1624845818.5,fixation,1,132,,0.0,NoAct
1624845820.0,stimulus,1,133,,0.0,NoAct
1624845820.5,fixation,1,133,,0.0,NoAct
1624845822.0,stimulus,1,134,,0.0,NoAct
1624845822.5,fixation,1,134,,1.0,NoAct
1624845824.494,stimulus,1,135,0.494,1.0,NoAct
1624845824.5,fixation,1,135,,0.0,NoAct
1624845826.0,stimulus,1,136,,0.0,NoAct
1624845826.726,fixation,1,136,0.226,1.0,NoAct
1624845828.0,stimulus,1,137,,0.0,NoAct
1624845828.613,fixation,1,137,0.113,1.0,NoAct
1624845830.0,stimulus,1,138,,0.0,NoAct
1624845831.014,fixation,1,138,0.514,1.0,NoAct
1624845832.0,stimulus,1,139,,0.0,NoAct
1624845832.803,fixation,1,139,0.303,1.0,NoAct
1624845834.0,stimulus,1,140,,0.0,NoAct
1624845834.619,fixation,1,140,0.119,1.0,NoAct
1624845836.0,stimulus,1,141,,0.0,NoAct
1624845836.52,fixation,1,141,0.02,0.0,NoAct
1624845838.0,stimulus,1,142,,0.0,NoAct
1624845838.554,fixation,1,142,0.054,1.0,NoAct
1624845840.0,stimulus,1,143,,0.0,NoAct
1624845840.707,fixation,1,143,0.207,1.0,NoAct
1624845842.0,stimulus,1,144,,0.0,NoAct
1624845842.67,fixation,1,144,0.17,1.0,NoAct
1624845844.0,stimulus,1,145,,0.0,NoAct
1624845844.718,fixation,1,145,0.218,0.0,NoAct
1624845846.431,stimulus,1,146,0.431,0.0,NoAct
1624845846.5,fixation,1,146,,0.0,NoAct
1624845848.0,stimulus,1,147,,0.0,NoAct
1624845848.5,fixation,1,147,,0.0,NoAct
1624845850.457,stimulus,1,148,0.457,0.0,NoAct
1624845850.5,fixation,1,148,,0.0,NoAct
1624845852.0,stimulus,1,149,,0.0,NoAct
1624845852.59,fixation,1,149,0.09,1.0,NoAct
1624845854.0,stimulus,1,150,,0.0,NoAct
1624845855.247,fixation,1,150,0.747,0.0,NoAct
1624845856.0,stimulus,1,151,,0.0,NoAct
1624845857.922,fixation,1,151,1.422,0.0,NoAct
1624845858.0,stimulus,1,152,,0.0,NoAct
1624845858.5,fixation,1,152,,0.0,NoAct
1624845860.231,stimulus,1,153,0.231,0.0,NoAct
1624845860.5,fixation,1,153,,0.0,NoAct
1624845862.455,stimulus,1,154,0.455,1.0,NoAct
1624845862.5,fixation,1,154,,0.0,NoAct
1624845864.0,stimulus,1,155,,0.0,NoAct
1624845864.5,fixation,1,155,,0.0,NoAct
1624845866.394,stimulus,1,156,0.394,1.0,NoAct
1624845866.5,fixation,1,156,,0.0,NoAct
1624845868.0,stimulus,1,157,,0.0,NoAct
1624845868.521,fixation,1,157,0.021,1.0,NoAct
1624845870.0,stimulus,1,158,,0.0,NoAct
1624845870.716,fixation,1,158,0.216,1.0,NoAct
1624845872.0,stimulus,1,159,,0.0,NoAct
1624845872.5,fixation,1,159,,0.0,NoAct
1624845874.0,stimulus,1,160,,0.0,NoAct
1624845874.953,fixation,1,160,0.453,0.0,NoAct
1624845876.0,stimulus,1,161,,0.0,NoAct
1624845877.165,fixation,1,161,0.665,0.0,NoAct
1624845878.0,stimulus,1,162,,0.0,NoAct
1624845878.552,fixation,1,162,0.052,1.0,NoAct
1624845880.374,stimulus,1,163,0.374,1.0,NoAct
1624845880.5,fixation,1,163,,0.0,NoAct
1624845882.0,stimulus,1,164,,0.0,NoAct
1624845882.514,fixation,1,164,0.014,1.0,NoAct
1624845884.497,stimulus,1,165,0.497,0.0,NoAct
1624845884.5,fixation,1,165,,0.0,NoAct
1624845886.0,stimulus,1,166,,0.0,NoAct
1624845887.324,fixation,1,166,0.824,1.0,NoAct
1624845888.0,stimulus,1,167,,0.0,NoAct
1624845888.5,fixation,1,167,,0.0,NoAct
1624845890.276,stimulus,1,168,0.276,0.0,NoAct
1624845890.5,fixation,1,168,,0.0,NoAct
1624845892.439,stimulus,1,169,0.439,1.0,NoAct
1624845892.5,fixation,1,169,,0.0,NoAct
1624845894.391,stimulus,1,170,0.391,1.0,NoAct
1624845894.5,fixation,1,170,,0.0,NoAct
1624845896.463,stimulus,1,171,0.463,1.0,NoAct
1624845896.5,fixation,1,171,,0.0,NoAct
1624845898.38,stimulus,1,172,0.38,1.0,NoAct
1624845898.5,fixation,1,172,,0.0,NoAct
1624845900.0,stimulus,1,173,,0.0,NoAct
1624845900.538,fixation,1,173,0.038,1.0,NoAct
1624845902.392,stimulus,1,174,0.392,0.0,NoAct
1624845902.5,fixation,1,174,,0.0,NoAct
1624845904.0,stimulus,1,175,,0.0,NoAct
1624845904.546,fixation,1,175,0.046,0.0,NoAct
1624845906.0,stimulus,1,176,,0.0,NoAct
1624845906.923,fixation,1,176,0.423,1.0,NoAct
1624845908.0,stimulus,1,177,,0.0,NoAct
1624845909.071,fixation,1,177,0.571,1.0,NoAct
1624845910.488,stimulus,1,178,0.488,1.0,NoAct
1624845910.5,fixation,1,178,,0.0,NoAct
1624845912.499,stimulus,1,179,0.499,1.0,NoAct
1624845912.5,fixation,1,179,,0.0,NoAct
1624845914.457,stimulus,1,180,0.457,1.0,NoAct
1624845914.5,fixation,1,180,,0.0,NoAct
1624845916.0,stimulus,1,181,,0.0,NoAct
1624845916.528,fixation,1,181,0.028,1.0,NoAct
1624845918.387,stimulus,1,182,0.387,1.0,NoAct
1624845918.5,fixation,1,182,,0.0,NoAct
1624845920.443,stimulus,1,183,0.443,1.0,NoAct
1624845920.5,fixation,1,183,,0.0,NoAct
1624845922.455,stimulus,1,184,0.455,1.0,NoAct
1624845922.5,fixation,1,184,,0.0,NoAct
1624845924.0,stimulus,1,185,,0.0,NoAct
1624845924.5,fixation,1,185,,0.0,NoAct
1624845926.0,stimulus,1,186,,0.0,NoAct
1624845926.586,fixation,1,186,0.086,0.0,NoAct
1624845928.437,stimulus,1,187,0.437,1.0,NoAct
1624845928.5,fixation,1,187,,0.0,NoAct
1624845930.479,stimulus,1,188,0.479,1.0,NoAct
1624845930.5,fixation,1,188,,0.0,NoAct
1624845932.446,stimulus,1,189,0.446,1.0,NoAct
1624845932.5,fixation,1,189,,0.0,NoAct
1624845934.0,stimulus,1,190,,0.0,NoAct
1624845934.528,fixation,1,190,0.028,0.0,NoAct
1624845936.341,stimulus,1,191,0.341,1.0,NoAct
1624845936.5,fixation,1,191,,0.0,NoAct
1624845938.494,stimulus,1,192,0.494,1.0,NoAct
1624845938.5,fixation,1,192,,0.0,NoAct
1624845940.0,stimulus,1,193,,0.0,NoAct
1624845940.524,fixation,1,193,0.024,0.0,NoAct
1624845942.0,stimulus,1,194,,0.0,NoAct
1624845942.519,fixation,1,194,0.019,1.0,NoAct
1624845944.0,stimulus,1,195,,0.0,NoAct
1624845944.908,fixation,1,195,0.408,1.0,NoAct
1624845946.479,stimulus,1,196,0.479,1.0,NoAct
1624845946.5,fixation,1,196,,0.0,NoAct
1624845948.486,stimulus,1,197,0.486,1.0,NoAct
1624845948.5,fixation,1,197,,0.0,NoAct
1624845950.0,stimulus,1,198,,0.0,NoAct
1624845950.698,fixation,1,198,0.198,1.0,NoAct
1624845952.0,stimulus,1,199,,0.0,NoAct
1624845952.5,fixation,1,199,,0.0,NoAct
1624845954.0,stimulus,1,200,,0.0,NoAct
1624845954.534,fixation,1,200,0.034,1.0,NoAct
1624845956.391,stimulus,1,201,0.391,1.0,NoAct
1624845956.5,fixation,1,201,,0.0,NoAct
1624845958.0,stimulus,1,202,,0.0,NoAct
1624845958.507,fixation,1,202,0.007,1.0,NoAct
1624845960.368,stimulus,1,203,0.368,1.0,NoAct
1624845960.5,fixation,1,203,,0.0,NoAct
1624845962.38,stimulus,1,204,0.38,1.0,NoAct
1624845962.5,fixation,1,204,,0.0,NoAct
1624845964.0,stimulus,1,205,,0.0,NoAct
1624845965.138,fixation,1,205,0.638,1.0,NoAct
1624845966.0,stimulus,1,206,,0.0,NoAct
1624845967.254,fixation,1,206,0.754,1.0,NoAct
1624845968.0,stimulus,1,207,,0.0,NoAct
1624845968.783,fixation,1,207,0.283,0.0,NoAct
1624845970.0,stimulus,1,208,,0.0,NoAct
1624845970.987,fixation,1,208,0.487,1.0,NoAct
1624845972.0,stimulus,1,209,,0.0,NoAct
1624845972.806,fixation,1,209,0.306,1.0,NoAct
1624845974.0,stimulus,1,210,,0.0,NoAct
1624845974.992,fixation,1,210,0.492,1.0,NoAct
1624845976.0,stimulus,1,211,,0.0,NoAct
1624845977.308,fixation,1,211,0.808,1.0,NoAct
1624845978.0,stimulus,1,212,,0.0,NoAct
1624845978.651,fixation,1,212,0.151,1.0,NoAct
1624845980.48,stimulus,1,213,0.48,1.0,NoAct
1624845980.5,fixation,1,213,,0.0,NoAct
1624845982.0,stimulus,1,214,,0.0,NoAct
1624845982.647,fixation,1,214,0.147,1.0,NoAct
1624845984.0,stimulus,1,215,,0.0,NoAct
1624845984.776,fixation,1,215,0.276,1.0,NoAct
1624845986.0,stimulus,1,216,,0.0,NoAct
1624845987.008,fixation,1,216,0.508,1.0,NoAct
1624845988.0,stimulus,1,217,,0.0,NoAct
1624845989.945,fixation,1,217,1.445,1.0,NoAct
1624845990.0,stimulus,1,218,,0.0,NoAct
1624845991.314,fixation,1,218,0.814,1.0,NoAct
1624845992.0,stimulus,1,219,,0.0,NoAct
1624845992.725,fixation,1,219,0.225,1.0,NoAct
1624845994.0,stimulus,1,220,,0.0,NoAct
1624845994.78,fixation,1,220,0.28,1.0,NoAct
1624845996.0,stimulus,1,221,,,NoAct
1624845996.5,fixation,1,221,,,NoAct
1624845998.0,stimulus,1,222,,0.0,NoAct
1624845998.5,fixation,1,222,,0.0,NoAct
1624846000.0,stimulus,1,223,,0.0,NoAct
1624846000.692,fixation,1,223,0.192,1.0,NoAct
1624846002.422,stimulus,1,224,0.422,1.0,NoAct
1624846002.5,fixation,1,224,,0.0,NoAct
1624846004.421,stimulus,1,225,0.421,1.0,NoAct
1624846004.5,fixation,1,225,,0.0,NoAct
1624846006.0,stimulus,1,226,,0.0,NoAct
1624846006.923,fixation,1,226,0.423,1.0,NoAct
1624846008.0,stimulus,1,227,,0.0,NoAct
1624846009.317,fixation,1,227,0.817,1.0,NoAct
1624846010.0,stimulus,1,228,,0.0,NoAct
1624846010.811,fixation,1,228,0.311,1.0,NoAct
1624846012.0,stimulus,1,229,,0.0,NoAct
1624846012.53,fixation,1,229,0.03,1.0,NoAct
1624846014.478,stimulus,1,230,0.478,1.0,NoAct
1624846014.5,fixation,1,230,,0.0,NoAct
1624846016.0,stimulus,1,231,,0.0,NoAct
1624846016.662,fixation,1,231,0.162,0.0,NoAct
1624846018.405,stimulus,1,232,0.405,1.0,NoAct
1624846018.5,fixation,1,232,,0.0,NoAct
1624846020.0,stimulus,1,233,,0.0,NoAct
1624846020.894,fixation,1,233,0.394,1.0,NoAct
1624846022.0,stimulus,1,234,,0.0,NoAct
1624846022.536,fixation,1,234,0.036,0.0,NoAct
1624846024.0,stimulus,1,235,,0.0,NoAct
1624846025.447,fixation,1,235,0.947,1.0,NoAct
1624846026.0,stimulus,1,236,,0.0,NoAct
1624846026.841,fixation,1,236,0.341,1.0,NoAct
1624846028.0,stimulus,1,237,,0.0,NoAct
1624846028.508,fixation,1,237,0.008,1.0,NoAct
1624846030.0,stimulus,1,238,,0.0,NoAct
1624846030.691,fixation,1,238,0.191,1.0,NoAct
1624846032.0,stimulus,1,239,,0.0,NoAct
1624846032.578,fixation,1,239,0.078,0.0,NoAct
1624846034.497,stimulus,1,240,0.497,1.0,NoAct
1624846034.5,fixation,1,240,,0.0,NoAct
1624846036.0,stimulus,1,241,,0.0,NoAct
1624846036.602,fixation,1,241,0.102,1.0,NoAct
1624846038.479,stimulus,1,242,0.479,1.0,NoAct
1624846038.5,fixation,1,242,,0.0,NoAct
1624846040.0,stimulus,1,243,,0.0,NoAct
1624846040.954,fixation,1,243,0.454,1.0,NoAct
1624846042.0,stimulus,1,244,,0.0,NoAct
1624846042.5,fixation,1,244,,0.0,NoAct
1624846044.246,stimulus,1,245,0.246,0.0,NoAct
1624846044.5,fixation,1,245,,0.0,NoAct
1624846046.0,stimulus,1,246,,0.0,NoAct
1624846046.589,fixation,1,246,0.089,1.0,NoAct
1624846048.0,stimulus,1,247,,0.0,NoAct
1624846048.657,fixation,1,247,0.157,1.0,NoAct
1624846050.345,stimulus,1,248,0.345,1.0,NoAct
1624846050.5,fixation,1,248,,0.0,NoAct
1624846052.0,stimulus,1,249,,0.0,NoAct
1624846052.539,fixation,1,249,0.039,1.0,NoAct
1624846054.457,stimulus,1,250,0.457,1.0,NoAct
1624846054.5,fixation,1,250,,0.0,NoAct
1624846056.36,stimulus,1,251,0.36,0.0,NoAct
1624846056.5,fixation,1,251,,0.0,NoAct
1624846058.0,stimulus,1,252,,0.0,NoAct
1624846058.642,fixation,1,252,0.142,1.0,NoAct
1624846060.398,stimulus,1,253,0.398,1.0,NoAct
1624846060.5,fixation,1,253,,0.0,NoAct
1624846062.389,stimulus,1,254,0.389,1.0,NoAct
1624846062.5,fixation,1,254,,0.0,NoAct
1624846064.488,stimulus,1,255,0.488,1.0,NoAct
1624846064.5,fixation,1,255,,0.0,NoAct
1624846066.46,stimulus,1,256,0.46,1.0,NoAct
1624846066.5,fixation,1,256,,0.0,NoAct
1624846068.0,stimulus,1,257,,0.0,NoAct
1624846068.5,fixation,1,257,,0.0,NoAct
1624846070.0,stimulus,1,258,,0.0,NoAct
1624846070.587,fixation,1,258,0.087,1.0,NoAct
1624846072.0,stimulus,1,259,,0.0,NoAct
1624846072.643,fixation,1,259,0.143,0.0,NoAct
1624846074.0,stimulus,1,260,,0.0,NoAct
1624846074.575,fixation,1,260,0.075,1.0,NoAct
1624846076.454,stimulus,1,261,0.454,1.0,NoAct
1624846076.5,fixation,1,261,,0.0,NoAct
1624846078.485,stimulus,1,262,0.485,1.0,NoAct
1624846078.5,fixation,1,262,,0.0,NoAct
1624846080.0,stimulus,1,263,,0.0,NoAct
1624846080.523,fixation,1,263,0.023,1.0,NoAct
1624846082.0,stimulus,1,264,,0.0,NoAct
1624846082.51,fixation,1,264,0.01,0.0,NoAct
1624846084.0,stimulus,1,265,,0.0,NoAct
1624846084.96,fixation,1,265,0.46,1.0,NoAct
1624846086.0,stimulus,1,266,,0.0,NoAct
1624846086.944,fixation,1,266,0.444,1.0,NoAct
1624846088.0,stimulus,1,267,,0.0,NoAct
1624846088.715,fixation,1,267,0.215,1.0,NoAct
1624846090.0,stimulus,1,268,,0.0,NoAct
1624846090.546,fixation,1,268,0.046,1.0,NoAct
1624846092.0,stimulus,1,269,,0.0,NoAct
1624846092.704,fixation,1,269,0.204,0.0,NoAct
1624846094.478,stimulus,1,270,0.478,1.0,NoAct
1624846094.5,fixation,1,270,,0.0,NoAct
1624846096.447,stimulus,1,271,0.447,1.0,NoAct
1624846096.5,fixation,1,271,,0.0,NoAct
1624846098.0,stimulus,1,272,,0.0,NoAct
1624846098.783,fixation,1,272,0.283,1.0,NoAct
1624846100.461,stimulus,1,273,0.461,1.0,NoAct
1624846100.5,fixation,1,273,,0.0,NoAct
1624846102.0,stimulus,1,274,,0.0,NoAct
1624846102.69,fixation,1,274,0.19,1.0,NoAct
1624846104.0,stimulus,1,275,,0.0,NoAct
1624846104.52,fixation,1,275,0.02,1.0,NoAct
1624846106.372,stimulus,1,276,0.372,1.0,NoAct
1624846106.5,fixation,1,276,,0.0,NoAct
1624846108.496,stimulus,1,277,0.496,1.0,NoAct
1624846108.5,fixation,1,277,,0.0,NoAct
1624846110.405,stimulus,1,278,0.405,1.0,NoAct
1624846110.5,fixation,1,278,,0.0,NoAct
1624846112.0,stimulus,1,279,,0.0,NoAct
1624846112.817,fixation,1,279,0.317,1.0,NoAct
1624846114.0,stimulus,1,280,,0.0,NoAct
1624846114.5,fixation,1,280,,0.0,NoAct
1624846116.455,stimulus,1,281,0.455,1.0,NoAct
1624846116.5,fixation,1,281,,0.0,NoAct
1624846118.469,stimulus,1,282,0.469,1.0,NoAct
1624846118.5,fixation,1,282,,0.0,NoAct
1624846120.0,stimulus,1,283,,0.0,NoAct
1624846120.522,fixation,1,283,0.022,1.0,NoAct
1624846122.462,stimulus,1,284,0.462,1.0,NoAct
1624846122.5,fixation,1,284,,0.0,NoAct
1624846124.464,stimulus,1,285,0.464,1.0,NoAct
1624846124.5,fixation,1,285,,0.0,NoAct
1624846126.498,stimulus,1,286,0.498,1.0,NoAct
1624846126.5,fixation,1,286,,0.0,NoAct
1624846128.0,stimulus,1,287,,0.0,NoAct
1624846128.5,fixation,1,287,,0.0,NoAct
1624846130.0,stimulus,1,288,,0.0,NoAct
1624846130.5,fixation,1,288,,0.0,NoAct
1624846132.285,stimulus,1,289,0.285,1.0,NoAct
1624846132.5,fixation,1,289,,0.0,NoAct
1624846134.447,stimulus,1,290,0.447,1.0,NoAct
1624846134.5,fixation,1,290,,0.0,NoAct
1624846136.0,stimulus,1,291,,0.0,NoAct
1624846137.145,fixation,1,291,0.645,1.0,NoAct
1624846138.415,stimulus,1,292,0.415,1.0,NoAct
1624846138.5,fixation,1,292,,0.0,NoAct
1624846140.0,stimulus,1,293,,0.0,NoAct
1624846140.629,fixation,1,293,0.129,1.0,NoAct
1624846142.0,stimulus,1,294,,0.0,NoAct
1624846143.215,fixation,1,294,0.715,0.0,NoAct
1624846144.0,stimulus,1,295,,0.0,NoAct
1624846144.836,fixation,1,295,0.336,0.0,NoAct
1624846146.495,stimulus,1,296,0.495,1.0,NoAct
1624846146.5,fixation,1,296,,0.0,NoAct
1624846148.0,stimulus,1,297,,0.0,NoAct
1624846148.713,fixation,1,297,0.213,1.0,NoAct
1624846150.0,stimulus,1,298,,0.0,NoAct
1624846150.61,fixation,1,298,0.11,0.0,NoAct
1624846152.487,stimulus,1,299,0.487,1.0,NoAct
1624846152.5,fixation,1,299,,0.0,NoAct
1624846154.0,stimulus,1,300,,0.0,NoAct
1624846154.983,fixation,1,300,0.483,1.0,NoAct
1624846156.0,stimulus,1,301,,0.0,NoAct
1624846156.893,fixation,1,301,0.393,1.0,NoAct
1624846158.0,stimulus,1,302,,0.0,NoAct
1624846158.554,fixation,1,302,0.054,1.0,NoAct
1624846160.0,stimulus,1,303,,0.0,NoAct
1624846160.953,fixation,1,303,0.453,1.0,NoAct
1624846162.0,stimulus,1,304,,0.0,NoAct
1624846162.539,fixation,1,304,0.039,0.0,NoAct
1624846164.0,stimulus,1,305,,0.0,NoAct
1624846164.939,fixation,1,305,0.439,1.0,NoAct
1624846166.0,stimulus,1,306,,0.0,NoAct
1624846166.639,fixation,1,306,0.139,1.0,NoAct
1624846168.0,stimulus,1,307,,0.0,NoAct
1624846168.967,fixation,1,307,0.467,0.0,NoAct
1624846170.0,stimulus,1,308,,0.0,NoAct
1624846170.527,fixation,1,308,0.027,1.0,NoAct
1624846172.0,stimulus,1,309,,0.0,NoAct
1624846172.569,fixation,1,309,0.069,1.0,NoAct
1624846174.0,stimulus,1,310,,0.0,NoAct
1624846174.5,fixation,1,310,,0.0,NoAct
1624846176.0,stimulus,1,311,,0.0,NoAct
1624846176.5,fixation,1,311,,0.0,NoAct
1624846178.325,stimulus,1,312,0.325,1.0,NoAct
1624846178.5,fixation,1,312,,0.0,NoAct
1624846180.374,stimulus,1,313,0.374,0.0,NoAct
1624846180.5,fixation,1,313,,0.0,NoAct
1624846182.483,stimulus,1,314,0.483,1.0,NoAct
1624846182.5,fixation,1,314,,0.0,NoAct
1624846184.44,stimulus,1,315,0.44,1.0,NoAct
1624846184.5,fixation,1,315,,0.0,NoAct
1624846186.0,stimulus,1,316,,0.0,NoAct
1624846186.787,fixation,1,316,0.287,1.0,NoAct
1624846188.0,stimulus,1,317,,0.0,NoAct
1624846188.728,fixation,1,317,0.228,1.0,NoAct
1624846190.0,stimulus,1,318,,0.0,NoAct
1624846190.782,fixation,1,318,0.282,1.0,NoAct
1624846192.0,stimulus,1,319,,0.0,NoAct
1624846193.332,fixation,1,319,0.832,0.0,NoAct
1624846194.473,stimulus,1,320,0.473,1.0,NoAct
1624846194.5,fixation,1,320,,0.0,NoAct
1624846196.0,stimulus,1,321,,0.0,NoAct
1624846196.574,fixation,1,321,0.074,1.0,NoAct
1624846198.0,stimulus,1,322,,0.0,NoAct
1624846198.541,fixation,1,322,0.041,1.0,NoAct
1624846200.0,stimulus,1,323,,0.0,NoAct
1624846200.543,fixation,1,323,0.043,1.0,NoAct
1624846202.364,stimulus,1,324,0.364,1.0,NoAct
1624846202.5,fixation,1,324,,0.0,NoAct
1624846204.448,stimulus,1,325,0.448,1.0,NoAct
1624846204.5,fixation,1,325,,0.0,NoAct
1624846206.0,stimulus,1,326,,0.0,NoAct
1624846206.736,fixation,1,326,0.236,1.0,NoAct
1624846208.0,stimulus,1,327,,0.0,NoAct
1624846209.231,fixation,1,327,0.731,1.0,NoAct
1624846210.0,stimulus,1,328,,0.0,NoAct
1624846211.046,fixation,1,328,0.546,1.0,NoAct
1624846212.0,stimulus,1,329,,0.0,NoAct
1624846212.745,fixation,1,329,0.245,1.0,NoAct
1624846214.0,stimulus,1,330,,0.0,NoAct
1624846214.893,fixation,1,330,0.393,1.0,NoAct
1624846216.0,stimulus,1,331,,0.0,NoAct
1624846216.587,fixation,1,331,0.087,1.0,NoAct
1624846218.0,stimulus,1,332,,0.0,NoAct
1624846219.116,fixation,1,332,0.616,1.0,NoAct
1624846220.459,stimulus,1,333,0.459,1.0,NoAct
1624846220.5,fixation,1,333,,0.0,NoAct
1624846222.478,stimulus,1,334,0.478,1.0,NoAct
1624846222.5,fixation,1,334,,0.0,NoAct
1624846224.0,stimulus,1,335,,0.0,NoAct
1624846224.666,fixation,1,335,0.166,0.0,NoAct
1624846226.437,stimulus,1,336,0.437,1.0,NoAct
1624846226.5,fixation,1,336,,0.0,NoAct
1624846228.42,stimulus,1,337,0.42,1.0,NoAct
1624846228.5,fixation,1,337,,0.0,NoAct
1624846230.445,stimulus,1,338,0.445,1.0,NoAct
1624846230.5,fixation,1,338,,0.0,NoAct
1624846232.408,stimulus,1,339,0.408,0.0,NoAct
1624846232.5,fixation,1,339,,0.0,NoAct
1624846234.0,stimulus,1,340,,0.0,NoAct
1624846234.527,fixation,1,340,0.027,1.0,NoAct
1624846236.407,stimulus,1,341,0.407,1.0,NoAct
1624846236.5,fixation,1,341,,0.0,NoAct
1624846238.456,stimulus,1,342,0.456,1.0,NoAct
1624846238.5,fixation,1,342,,0.0,NoAct
1624846240.0,stimulus,1,343,,0.0,NoAct
1624846240.549,fixation,1,343,0.049,1.0,NoAct
1624846242.0,stimulus,1,344,,0.0,NoAct
1624846242.554,fixation,1,344,0.054,1.0,NoAct
1624846244.0,stimulus,1,345,,0.0,NoAct
1624846244.554,fixation,1,345,0.054,1.0,NoAct
1624846246.0,stimulus,1,346,,0.0,NoAct
1624846246.51,fixation,1,346,0.01,1.0,NoAct
1624846248.0,stimulus,1,347,,0.0,NoAct
1624846248.555,fixation,1,347,0.055,1.0,NoAct
1624846250.354,stimulus,1,348,0.354,1.0,NoAct
1624846250.5,fixation,1,348,,0.0,NoAct
1624846252.486,stimulus,1,349,0.486,1.0,NoAct
1624846252.5,fixation,1,349,,0.0,NoAct
1624846254.0,stimulus,1,350,,0.0,NoAct
1624846254.543,fixation,1,350,0.043,1.0,NoAct
1624846256.0,stimulus,1,351,,0.0,NoAct
1624846256.506,fixation,1,351,0.006,1.0,NoAct
1624846258.0,stimulus,1,352,,0.0,NoAct
1624846258.523,fixation,1,352,0.023,1.0,NoAct
1624846260.387,stimulus,1,353,0.387,0.0,NoAct
1624846260.5,fixation,1,353,,0.0,NoAct
1624846262.0,stimulus,1,354,,0.0,NoAct
1624846262.5,fixation,1,354,,0.0,NoAct
1624846264.0,stimulus,1,355,,0.0,NoAct
1624846264.743,fixation,1,355,0.243,1.0,NoAct
1624846266.474,stimulus,1,356,0.474,1.0,NoAct
1624846266.5,fixation,1,356,,0.0,NoAct
1624846268.398,stimulus,1,357,0.398,1.0,NoAct
1624846268.5,fixation,1,357,,0.0,NoAct
1624846270.0,stimulus,1,358,,0.0,NoAct
1624846270.739,fixation,1,358,0.239,1.0,NoAct
1624846272.0,stimulus,1,359,,0.0,NoAct
1624846272.597,fixation,1,359,0.097,1.0,NoAct
1624846274.0,stimulus,1,360,,0.0,NoAct
1624846274.606,fixation,1,360,0.106,1.0,NoAct
1624846276.0,stimulus,1,361,,0.0,NoAct
1624846276.7,fixation,1,361,0.2,1.0,NoAct
1624846278.0,stimulus,1,362,,0.0,NoAct
1624846278.505,fixation,1,362,0.005,1.0,NoAct
1624846280.0,stimulus,1,363,,0.0,NoAct
1624846280.7,fixation,1,363,0.2,1.0,NoAct
1624846282.0,stimulus,1,364,,0.0,NoAct
1624846282.534,fixation,1,364,0.034,1.0,NoAct
1624846284.0,stimulus,1,365,,0.0,NoAct
1624846284.517,fixation,1,365,0.017,1.0,NoAct
1624846286.475,stimulus,1,366,0.475,1.0,NoAct
1624846286.5,fixation,1,366,,0.0,NoAct
1624846288.0,stimulus,1,367,,0.0,NoAct
1624846288.515,fixation,1,367,0.015,1.0,NoAct
1624846290.483,stimulus,1,368,0.483,1.0,NoAct
1624846290.5,fixation,1,368,,0.0,NoAct
1624846292.0,stimulus,1,369,,0.0,NoAct
1624846292.988,fixation,1,369,0.488,1.0,NoAct
1624846294.469,stimulus,1,370,0.469,1.0,NoAct
1624846294.5,fixation,1,370,,0.0,NoAct
1624846296.0,stimulus,1,371,,0.0,NoAct
1624846296.743,fixation,1,371,0.243,1.0,NoAct
1624846298.0,stimulus,1,372,,0.0,NoAct
1624846298.751,fixation,1,372,0.251,0.0,NoAct
1624846300.489,stimulus,1,373,0.489,1.0,NoAct
1624846300.5,fixation,1,373,,0.0,NoAct
1624846302.0,stimulus,1,374,,0.0,NoAct
1624846303.255,fixation,1,374,0.755,0.0,NoAct
1624846304.0,stimulus,1,375,,0.0,NoAct
1624846305.101,fixation,1,375,0.601,1.0,NoAct
1624846306.0,stimulus,1,376,,0.0,NoAct
1624846306.5,fixation,1,376,,0.0,NoAct
1624846308.492,stimulus,1,377,0.492,1.0,NoAct
1624846308.5,fixation,1,377,,0.0,NoAct
1624846310.377,stimulus,1,378,0.377,1.0,NoAct
1624846310.5,fixation,1,378,,0.0,NoAct
1624846312.444,stimulus,1,379,0.444,1.0,NoAct
1624846312.5,fixation,1,379,,0.0,NoAct
1624846314.0,stimulus,1,380,,0.0,NoAct
1624846314.549,fixation,1,380,0.049,1.0,NoAct
1624846316.0,stimulus,1,381,,0.0,NoAct
1624846316.505,fixation,1,381,0.005,1.0,NoAct
1624846318.406,stimulus,1,382,0.406,1.0,NoAct
1624846318.5,fixation,1,382,,0.0,NoAct
1624846320.455,stimulus,1,383,0.455,1.0,NoAct
1624846320.5,fixation,1,383,,0.0,NoAct
1624846322.401,stimulus,1,384,0.401,1.0,NoAct
1624846322.5,fixation,1,384,,0.0,NoAct
1624846324.463,stimulus,1,385,0.463,1.0,NoAct
1624846324.5,fixation,1,385,,0.0,NoAct
1624846326.387,stimulus,1,386,0.387,1.0,NoAct
1624846326.5,fixation,1,386,,0.0,NoAct
1624846328.0,stimulus,1,387,,0.0,NoAct
1624846328.537,fixation,1,387,0.037,1.0,NoAct
1624846330.401,stimulus,1,388,0.401,1.0,NoAct
1624846330.5,fixation,1,388,,0.0,NoAct
1624846332.463,stimulus,1,389,0.463,1.0,NoAct
1624846332.5,fixation,1,389,,0.0,NoAct
1624846334.0,stimulus,1,390,,0.0,NoAct
1624846334.502,fixation,1,390,0.002,1.0,NoAct
1624846336.0,stimulus,1,391,,0.0,NoAct
1624846336.723,fixation,1,391,0.223,1.0,NoAct
1624846338.0,stimulus,1,392,,0.0,NoAct
1624846338.584,fixation,1,392,0.084,1.0,NoAct
1624846340.483,stimulus,1,393,0.483,1.0,NoAct
1624846340.5,fixation,1,393,,0.0,NoAct
1624846342.0,stimulus,1,394,,0.0,NoAct
1624846342.816,fixation,1,394,0.316,1.0,NoAct
1624846344.0,stimulus,1,395,,0.0,NoAct
1624846344.616,fixation,1,395,0.116,1.0,NoAct
1624846346.378,stimulus,1,396,0.378,1.0,NoAct
1624846346.5,fixation,1,396,,0.0,NoAct
1624846348.434,stimulus,1,397,0.434,1.0,NoAct
1624846348.5,fixation,1,397,,0.0,NoAct
1624846350.0,stimulus,1,398,,,PerfumeSession
1624846350.5,fixation,1,398,,,PerfumeSession
1624846352.0,stimulus,1,399,,,PerfumeSession
1624846352.5,fixation,1,399,,,PerfumeSession
1624846354.0,stimulus,1,400,,,PerfumeSession
1624846354.5,fixation,1,400,,,PerfumeSession
1624846356.0,stimulus,1,401,,,PerfumeSession
1624846356.5,fixation,1,401,,,PerfumeSession
1624846358.0,stimulus,1,402,,,PerfumeSession
1624846358.5,fixation,1,402,,,PerfumeSession
1624846360.0,stimulus,1,403,,,PerfumeSession
1624846360.5,fixation,1,403,,,PerfumeSession
1624846362.0,stimulus,1,404,,,PerfumeSession
1624846362.5,fixation,1,404,,,PerfumeSession
1624846364.0,stimulus,1,405,,,PerfumeSession
1624846364.5,fixation,1,405,,,PerfumeSession
1624846366.0,stimulus,1,406,,,PerfumeSession
1624846366.5,fixation,1,406,,,PerfumeSession
1624846368.0,stimulus,1,407,,,PerfumeSession
1624846368.5,fixation,1,407,,,PerfumeSession
1624846370.0,stimulus,1,408,,,PerfumeSession
1624846370.5,fixation,1,408,,,PerfumeSession
1624846372.0,stimulus,1,409,,,PerfumeSession
1624846372.5,fixation,1,409,,,PerfumeSession
1624846374.0,stimulus,1,410,,,PerfumeSession
1624846374.5,fixation,1,410,,,PerfumeSession
1624846376.0,stimulus,1,411,,,PerfumeSession
1624846376.5,fixation,1,411,,,PerfumeSession
1624846378.0,stimulus,1,412,,,PerfumeSession
1624846378.5,fixation,1,412,,,PerfumeSession
1624846380.0,stimulus,1,413,,,PerfumeSession
1624846380.5,fixation,1,413,,,PerfumeSession
1624846382.0,stimulus,1,414,,,PerfumeSession
1624846382.5,fixation,1,414,,,PerfumeSession
1624846384.0,stimulus,1,415,,,PerfumeSession
1624846384.5,fixation,1,415,,,PerfumeSession
1624846386.0,stimulus,1,416,,,PerfumeSession
1624846386.5,fixation,1,416,,,PerfumeSession
1624846388.0,stimulus,1,417,,,PerfumeSession
1624846388.5,fixation,1,417,,,PerfumeSession
1624846390.0,stimulus,1,418,,,PerfumeSession
1624846390.5,fixation,1,418,,,PerfumeSession
1624846392.0,stimulus,1,419,,,PerfumeSession
1624846392.5,fixation,1,419,,,PerfumeSession
1624846394.0,stimulus,1,420,,,PerfumeSession
1624846394.5,fixation,1,420,,,PerfumeSession
1624846396.0,stimulus,1,421,,,PerfumeSession
1624846396.5,fixation,1,421,,,PerfumeSession
1624846398.0,stimulus,1,422,,,PerfumeSession
1624846398.5,fixation,1,422,,,PerfumeSession
1624846400.0,stimulus,1,423,,,PerfumeSession
1624846400.5,fixation,1,423,,,PerfumeSession
1624846402.0,stimulus,1,424,,,PerfumeSession
1624846402.5,fixation,1,424,,,PerfumeSession
1624846404.0,stimulus,1,425,,,PerfumeSession
1624846404.5,fixation,1,425,,,PerfumeSession
1624846406.0,stimulus,1,426,,,PerfumeSession
1624846406.5,fixation,1,426,,,PerfumeSession
1624846408.0,stimulus,1,427,,,PerfumeSession
1624846408.5,fixation,1,427,,,PerfumeSession
1624846410.0,stimulus,1,428,,,PerfumeSession
1624846410.5,fixation,1,428,,,PerfumeSession
1624846412.0,stimulus,1,429,,,PerfumeSession
1624846412.5,fixation,1,429,,,PerfumeSession
1624846414.0,stimulus,1,430,,,PerfumeSession
1624846414.5,fixation,1,430,,,PerfumeSession
1624846416.0,stimulus,1,431,,,PerfumeSession
1624846416.5,fixation,1,431,,,PerfumeSession
1624846418.0,stimulus,1,432,,,PerfumeSession
1624846418.5,fixation,1,432,,,PerfumeSession
1624846420.0,stimulus,1,433,,,PerfumeSession
1624846420.5,fixation,1,433,,,PerfumeSession
1624846422.0,stimulus,1,434,,,PerfumeSession
1624846422.5,fixation,1,434,,,PerfumeSession
1624846424.0,stimulus,1,435,,,PerfumeSession
1624846424.5,fixation,1,435,,,PerfumeSession
1624846426.0,stimulus,1,436,,,PerfumeSession
1624846426.5,fixation,1,436,,,PerfumeSession
1624846428.0,stimulus,1,437,,,PerfumeSession
1624846428.5,fixation,1,437,,,PerfumeSession
1624846430.0,stimulus,1,438,,,PerfumeSession
1624846430.5,fixation,1,438,,,PerfumeSession
1624846432.0,stimulus,1,439,,,PerfumeSession
1624846432.5,fixation,1,439,,,PerfumeSession
1624846434.0,stimulus,1,440,,,PerfumeSession
1624846434.5,fixation,1,440,,,PerfumeSession
1624846436.0,stimulus,1,441,,,PerfumeSession
1624846436.5,fixation,1,441,,,PerfumeSession
1624846438.0,stimulus,1,442,,,PerfumeSession
1624846438.5,fixation,1,442,,,PerfumeSession
1624846440.0,stimulus,1,443,,,PerfumeSession
1624846440.5,fixation,1,443,,,PerfumeSession
1624846442.0,stimulus,1,444,,,PerfumeSession
1624846442.5,fixation,1,444,,,PerfumeSession
1624846444.0,stimulus,1,445,,,PerfumeSession
1624846444.5,fixation,1,445,,,PerfumeSession
1624846446.0,stimulus,1,446,,,PerfumeSession
1624846446.5,fixation,1,446,,,PerfumeSession
1624846448.0,stimulus,1,447,,,PerfumeSession
1624846448.5,fixation,1,447,,,PerfumeSession
1624846450.0,stimulus,1,448,,,PerfumeSession
1624846450.5,fixation,1,448,,,PerfumeSession
1624846452.0,stimulus,1,449,,,PerfumeSession
1624846452.5,fixation,1,449,,,PerfumeSession
1624846454.0,stimulus,1,450,,,PerfumeSession
1624846454.5,fixation,1,450,,,PerfumeSession
1624846456.0,stimulus,1,451,,,PerfumeSession
1624846456.5,fixation,1,451,,,PerfumeSession
1624846458.0,stimulus,1,452,,,PerfumeSession
1624846458.5,fixation,1,452,,,PerfumeSession
1624846460.0,stimulus,1,453,,,PerfumeSession
1624846460.5,fixation,1,453,,,PerfumeSession
1624846462.0,stimulus,1,454,,,PerfumeSession
1624846462.5,fixation,1,454,,,PerfumeSession
1624846464.0,stimulus,1,455,,,PerfumeSession
1624846464.5,fixation,1,455,,,PerfumeSession
1624846466.0,stimulus,1,456,,,PerfumeSession
1624846466.5,fixation,1,456,,,PerfumeSession
1624846468.0,stimulus,1,457,,,PerfumeSession
1624846468.5,fixation,1,457,,,PerfumeSession
1624846470.0,stimulus,1,458,,,PerfumeSession
1624846470.5,fixation,1,458,,,PerfumeSession
1624846472.0,stimulus,1,459,,,PerfumeSession
1624846472.5,fixation,1,459,,,PerfumeSession
1624846474.0,stimulus,1,460,,,PerfumeSession
1624846474.5,fixation,1,460,,,PerfumeSession
1624846476.0,stimulus,1,461,,,PerfumeSession
1624846476.5,fixation,1,461,,,PerfumeSession
1624846478.0,stimulus,1,462,,,PerfumeSession
1624846478.5,fixation,1,462,,,PerfumeSession
1624846480.0,stimulus,1,463,,,PerfumeSession
1624846480.5,fixation,1,463,,,PerfumeSession
1624846482.0,stimulus,1,464,,,PerfumeSession
1624846482.5,fixation,1,464,,,PerfumeSession
1624846484.0,stimulus,1,465,,,PerfumeSession
1624846484.5,fixation,1,465,,,PerfumeSession
1624846486.0,stimulus,1,466,,,PerfumeSession
1624846486.5,fixation,1,466,,,PerfumeSession
1624846488.0,stimulus,1,467,,,PerfumeSession
1624846488.5,fixation,1,467,,,PerfumeSession
1624846490.0,stimulus,1,468,,,PerfumeSession
1624846490.5,fixation,1,468,,,PerfumeSession
1624846492.0,stimulus,1,469,,,PerfumeSession
1624846492.5,fixation,1,469,,,PerfumeSession
1624846494.0,stimulus,1,470,,,PerfumeSession
1624846494.5,fixation,1,470,,,PerfumeSession
1624846496.0,stimulus,1,471,,,PerfumeSession
1624846496.5,fixation,1,471,,,PerfumeSession
1624846498.0,stimulus,1,472,,,PerfumeSession
1624846498.5,fixation,1,472,,,PerfumeSession
1624846500.0,stimulus,1,473,,,PerfumeSession
1624846500.5,fixation,1,473,,,PerfumeSession
1624846502.0,stimulus,1,474,,,PerfumeSession
1624846502.5,fixation,1,474,,,PerfumeSession
1624846504.0,stimulus,1,475,,,PerfumeSession
1624846504.5,fixation,1,475,,,PerfumeSession
1624846506.0,stimulus,1,476,,,PerfumeSession
1624846506.5,fixation,1,476,,,PerfumeSession
1624846508.0,stimulus,1,477,,,PerfumeSession
1624846508.5,fixation,1,477,,,PerfumeSession
1624846510.0,stimulus,1,478,,,PerfumeSession
1624846510.5,fixation,1,478,,,PerfumeSession
1624846512.0,stimulus,1,479,,,PerfumeSession
1624846512.5,fixation,1,479,,,PerfumeSession
1624846514.0,stimulus,1,480,,,PerfumeSession
1624846514.5,fixation,1,480,,,PerfumeSession
1624846516.0,stimulus,1,481,,,PerfumeSession
1624846516.5,fixation,1,481,,,PerfumeSession
1624846518.0,stimulus,1,482,,,PerfumeSession
1624846518.5,fixation,1,482,,,PerfumeSession
1624846520.0,stimulus,1,483,,,PerfumeSession
1624846520.5,fixation,1,483,,,PerfumeSession
1624846522.0,stimulus,1,484,,,PerfumeSession
1624846522.5,fixation,1,484,,,PerfumeSession
1624846524.0,stimulus,1,485,,,PerfumeSession
1624846524.5,fixation,1,485,,,PerfumeSession
1624846526.0,stimulus,1,486,,,PerfumeSession
1624846526.5,fixation,1,486,,,PerfumeSession
1624846528.0,stimulus,1,487,,,PerfumeSession
1624846528.5,fixation,1,487,,,PerfumeSession
1624846530.0,stimulus,1,488,,,PerfumeSession
1624846530.5,fixation,1,488,,,PerfumeSession
1624846532.0,stimulus,1,489,,,PerfumeSession
1624846532.5,fixation,1,489,,,PerfumeSession
1624846534.0,stimulus,1,490,,,PerfumeSession
1624846534.5,fixation,1,490,,,PerfumeSession
1624846536.0,stimulus,1,491,,,PerfumeSession
1624846536.5,fixation,1,491,,,PerfumeSession
1624846538.0,stimulus,1,492,,,PerfumeSession
1624846538.5,fixation,1,492,,,PerfumeSession
1624846540.0,stimulus,1,493,,,PerfumeSession
1624846540.5,fixation,1,493,,,PerfumeSession
1624846542.0,stimulus,1,494,,,PerfumeSession
1624846542.5,fixation,1,494,,,PerfumeSession
1624846544.0,stimulus,1,495,,,PerfumeSession
1624846544.5,fixation,1,495,,,PerfumeSession
1624846546.0,stimulus,1,496,,,PerfumeSession
1624846546.5,fixation,1,496,,,PerfumeSession
1624846548.0,stimulus,1,497,,,PerfumeSession
1624846548.5,fixation,1,497,,,PerfumeSession
1624846550.0,stimulus,1,498,,,PerfumeSession
1624846550.5,fixation,1,498,,,PerfumeSession
1624846552.0,stimulus,1,499,,,PerfumeSession
1624846552.5,fixation,1,499,,,PerfumeSession
1624846554.0,stimulus,1,500,,,PerfumeSession
1624846554.5,fixation,1,500,,,PerfumeSession
1624846556.0,stimulus,1,501,,,PerfumeSession
1624846556.5,fixation,1,501,,,PerfumeSession
1624846558.0,stimulus,1,502,,,PerfumeSession
1624846558.5,fixation,1,502,,,PerfumeSession
1624846560.0,stimulus,1,503,,,PerfumeSession
1624846560.5,fixation,1,503,,,PerfumeSession
1624846562.0,stimulus,1,504,,,PerfumeSession
1624846562.5,fixation,1,504,,,PerfumeSession
1624846564.0,stimulus,1,505,,,PerfumeSession
1624846564.5,fixation,1,505,,,PerfumeSession
1624846566.0,stimulus,1,506,,,PerfumeSession
1624846566.5,fixation,1,506,,,PerfumeSession
1624846568.0,stimulus,1,507,,,PerfumeSession
1624846568.5,fixation,1,507,,,PerfumeSession
1624846569.0,stimulus,2,1,,,PracticeSession
1624846569.5,fixation,2,1,,,PracticeSession
1624846570.0,stimulus,1,508,,,PerfumeSession
1624846570.5,fixation,1,508,,,PerfumeSession
1624846571.0,stimulus,2,2,,,PracticeSession
1624846571.5,fixation,2,2,,,PracticeSession
1624846572.0,stimulus,1,509,,,PerfumeSession
1624846572.5,fixation,1,509,,,PerfumeSession
1624846573.0,stimulus,2,3,,,PracticeSession
1624846573.5,fixation,2,3,,,PracticeSession
1624846574.0,stimulus,1,510,,,PerfumeSession
1624846574.5,fixation,1,510,,,PerfumeSession
1624846575.0,stimulus,2,4,,,PracticeSession
1624846575.5,fixation,2,4,,,PracticeSession
1624846576.0,stimulus,1,511,,,PerfumeSession
1624846576.5,fixation,1,511,,,PerfumeSession
1624846577.0,stimulus,2,5,,,PracticeSession
1624846577.5,fixation,2,5,,,PracticeSession
1624846578.0,stimulus,1,512,,,PerfumeSession
1624846578.5,fixation,1,512,,,PerfumeSession
1624846579.0,stimulus,2,6,,,PracticeSession
1624846579.5,fixation,2,6,,,PracticeSession
1624846580.0,stimulus,1,513,,,PerfumeSession
1624846580.5,fixation,1,513,,,PerfumeSession
1624846581.0,stimulus,2,7,,,PracticeSession
1624846581.5,fixation,2,7,,,PracticeSession
1624846582.0,stimulus,1,514,,,PerfumeSession
1624846582.5,fixation,1,514,,,PerfumeSession
1624846583.0,stimulus,2,8,,,PracticeSession
1624846583.5,fixation,2,8,,,PracticeSession
1624846584.0,stimulus,1,515,,,PerfumeSession
1624846584.5,fixation,1,515,,,PerfumeSession
1624846585.0,stimulus,2,9,,,PracticeSession
1624846585.5,fixation,2,9,,,PracticeSession
1624846586.0,stimulus,1,516,,,PerfumeSession
1624846586.5,fixation,1,516,,,PerfumeSession
1624846587.0,stimulus,2,10,,,PracticeSession
1624846587.5,fixation,2,10,,,PracticeSession
1624846588.0,stimulus,1,517,,,PerfumeSession
1624846588.5,fixation,1,517,,,PerfumeSession
1624846589.0,stimulus,2,11,,,PracticeSession
1624846589.5,fixation,2,11,,,PracticeSession
1624846590.0,stimulus,1,518,,,PerfumeSession
1624846590.5,fixation,1,518,,,PerfumeSession
1624846591.0,stimulus,2,12,,,PracticeSession
1624846591.5,fixation,2,12,,,PracticeSession
1624846592.0,stimulus,1,519,,,PerfumeSession
1624846592.5,fixation,1,519,,,PerfumeSession
1624846593.0,stimulus,2,13,,,PracticeSession
1624846593.5,fixation,2,13,,,PracticeSession
1624846594.0,stimulus,1,520,,,PerfumeSession
1624846594.5,fixation,1,520,,,PerfumeSession
1624846595.0,stimulus,2,14,,,PracticeSession
1624846595.5,fixation,2,14,,,PracticeSession
1624846596.0,stimulus,1,521,,,PerfumeSession
1624846596.5,fixation,1,521,,,PerfumeSession
1624846597.0,stimulus,2,15,,,PracticeSession
1624846597.5,fixation,2,15,,,PracticeSession
1624846598.0,stimulus,1,522,,,PerfumeSession
1624846598.5,fixation,1,522,,,PerfumeSession
1624846599.0,stimulus,2,16,,,PracticeSession
1624846599.5,fixation,2,16,,,PracticeSession
1624846600.0,stimulus,1,523,,,PerfumeSession
1624846600.5,fixation,1,523,,,PerfumeSession
1624846601.0,stimulus,2,17,,,PracticeSession
1624846601.5,fixation,2,17,,,PracticeSession
1624846602.0,stimulus,1,524,,,PerfumeSession
1624846602.5,fixation,1,524,,,PerfumeSession
1624846603.0,stimulus,2,18,,,PracticeSession
1624846603.5,fixation,2,18,,,PracticeSession
1624846604.0,stimulus,1,525,,,PerfumeSession
1624846604.5,fixation,1,525,,,PerfumeSession
1624846605.0,stimulus,2,19,,,PracticeSession
1624846605.5,fixation,2,19,,,PracticeSession
1624846606.0,stimulus,1,526,,,PerfumeSession
1624846606.5,fixation,1,526,,,PerfumeSession
1624846607.0,stimulus,2,20,,,PracticeSession
1624846607.5,fixation,2,20,,,PracticeSession
1624846608.0,stimulus,1,527,,,PerfumeSession
1624846608.5,fixation,1,527,,,PerfumeSession
1624846609.0,stimulus,2,21,,,PracticeSession
1624846609.5,fixation,2,21,,,PracticeSession
1624846610.0,stimulus,1,528,,,PerfumeSession
1624846610.5,fixation,1,528,,,PerfumeSession
1624846611.0,stimulus,2,22,,,PracticeSession
1624846611.5,fixation,2,22,,,PracticeSession
1624846612.0,stimulus,1,529,,,PerfumeSession
1624846612.5,fixation,1,529,,,PerfumeSession
1624846613.0,stimulus,2,23,,,PracticeSession
1624846613.5,fixation,2,23,,,PracticeSession
1624846614.0,stimulus,1,530,,,PerfumeSession
1624846614.5,fixation,1,530,,,PerfumeSession
1624846615.0,stimulus,2,24,,,PracticeSession
1624846615.5,fixation,2,24,,,PracticeSession
1624846616.0,stimulus,1,531,,,PerfumeSession
1624846616.5,fixation,1,531,,,PerfumeSession
1624846617.0,stimulus,2,25,,,PracticeSession
1624846617.5,fixation,2,25,,,PracticeSession
1624846618.0,stimulus,1,532,,,PerfumeSession
1624846618.5,fixation,1,532,,,PerfumeSession
1624846619.0,stimulus,2,26,,,PracticeSession
1624846619.5,fixation,2,26,,,PracticeSession
1624846620.0,stimulus,1,533,,,PerfumeSession
1624846620.5,fixation,1,533,,,PerfumeSession
1624846621.0,stimulus,2,27,,,PracticeSession
1624846621.5,fixation,2,27,,,PracticeSession
1624846622.0,stimulus,1,534,,,PerfumeSession
1624846622.5,fixation,1,534,,,PerfumeSession
1624846623.0,stimulus,2,28,,,PracticeSession
1624846623.5,fixation,2,28,,,PracticeSession
1624846624.0,stimulus,1,535,,,PerfumeSession
1624846624.5,fixation,1,535,,,PerfumeSession
1624846625.0,stimulus,2,29,,,PracticeSession
1624846625.5,fixation,2,29,,,PracticeSession
1624846626.0,stimulus,1,536,,,PerfumeSession
1624846626.5,fixation,1,536,,,PerfumeSession
1624846627.0,stimulus,2,30,,,PracticeSession
1624846627.5,fixation,2,30,,,PracticeSession
1624846628.0,stimulus,1,537,,,PerfumeSession
1624846628.5,fixation,1,537,,,PerfumeSession
1624846629.0,stimulus,2,31,,,PracticeSession
1624846629.5,fixation,2,31,,,PracticeSession
1624846630.0,stimulus,1,538,,,PerfumeSession
1624846630.5,fixation,1,538,,,PerfumeSession
1624846631.0,stimulus,2,32,,,PracticeSession
1624846631.5,fixation,2,32,,,PracticeSession
1624846632.0,stimulus,1,539,,,PerfumeSession
1624846632.5,fixation,1,539,,,PerfumeSession
1624846633.0,stimulus,2,33,,,PracticeSession
1624846633.5,fixation,2,33,,,PracticeSession
1624846634.0,stimulus,1,540,,,PerfumeSession
1624846634.5,fixation,1,540,,,PerfumeSession
1624846635.0,stimulus,2,34,,,PracticeSession
1624846635.5,fixation,2,34,,,PracticeSession
1624846636.0,stimulus,1,541,,,PerfumeSession
1624846636.5,fixation,1,541,,,PerfumeSession
1624846637.0,stimulus,2,35,,,PracticeSession
1624846637.5,fixation,2,35,,,PracticeSession
1624846638.0,stimulus,1,542,,,PerfumeSession
1624846638.5,fixation,1,542,,,PerfumeSession
1624846639.0,stimulus,2,36,,,PracticeSession
1624846639.5,fixation,2,36,,,PracticeSession
1624846640.0,stimulus,1,543,,,PerfumeSession
1624846640.5,fixation,1,543,,,PerfumeSession
1624846641.0,stimulus,2,37,,,PracticeSession
1624846641.5,fixation,2,37,,,PracticeSession
1624846642.0,stimulus,1,544,,,PerfumeSession
1624846642.5,fixation,1,544,,,PerfumeSession
1624846643.0,stimulus,2,38,,,PracticeSession
1624846643.5,fixation,2,38,,,PracticeSession
1624846644.0,stimulus,1,545,,,PerfumeSession
1624846644.5,fixation,1,545,,,PerfumeSession
1624846645.0,stimulus,2,39,,,PracticeSession
1624846645.5,fixation,2,39,,,PracticeSession
1624846646.0,stimulus,1,546,,,PerfumeSession
1624846646.5,fixation,1,546,,,PerfumeSession
1624846647.0,stimulus,2,40,,,PracticeSession
1624846647.5,fixation,2,40,,,PracticeSession
1624846648.0,stimulus,1,547,,,PerfumeSession
1624846648.5,fixation,1,547,,,PerfumeSession
1624846649.0,stimulus,2,41,,,PracticeSession
1624846649.5,fixation,2,41,,,PracticeSession
1624846650.0,stimulus,1,548,,,PerfumeSession
1624846650.5,fixation,1,548,,,PerfumeSession
1624846651.0,stimulus,2,42,,,PracticeSession
1624846651.5,fixation,2,42,,,PracticeSession
1624846652.0,stimulus,1,549,,,PerfumeSession
1624846652.5,fixation,1,549,,,PerfumeSession
1624846653.0,stimulus,2,43,,,PracticeSession
1624846653.5,fixation,2,43,,,PracticeSession
1624846654.0,stimulus,1,550,,,PerfumeSession
1624846654.5,fixation,1,550,,,PerfumeSession
1624846655.0,stimulus,2,44,,,PracticeSession
1624846655.5,fixation,2,44,,,PracticeSession
1624846656.0,stimulus,1,551,,,PerfumeSession
1624846656.5,fixation,1,551,,,PerfumeSession
1624846657.0,stimulus,2,45,,,NoAct
1624846657.5,fixation,2,45,,,NoAct
1624846658.0,stimulus,1,552,,,PerfumeSession
1624846658.5,fixation,1,552,,,PerfumeSession
1624846659.0,stimulus,2,46,,,NoAct
1624846659.5,fixation,2,46,,,NoAct
1624846660.0,stimulus,1,553,,,PerfumeSession
1624846660.5,fixation,1,553,,,PerfumeSession
1624846661.0,stimulus,2,47,,,NoAct
1624846661.5,fixation,2,47,,,NoAct
1624846662.0,stimulus,1,554,,,PerfumeSession
1624846662.5,fixation,1,554,,,PerfumeSession
1624846663.0,stimulus,2,48,,,NoAct
1624846663.5,fixation,2,48,,,NoAct
1624846664.0,stimulus,1,555,,,PerfumeSession
1624846664.5,fixation,1,555,,,PerfumeSession
1624846665.0,stimulus,2,49,,,NoAct
1624846665.5,fixation,2,49,,,NoAct
1624846666.0,stimulus,1,556,,,PerfumeSession
1624846666.5,fixation,1,556,,,PerfumeSession
1624846667.0,stimulus,2,50,,,NoAct
1624846667.5,fixation,2,50,,,NoAct
1624846668.0,stimulus,1,557,,,PerfumeSession
1624846668.5,fixation,1,557,,,PerfumeSession
1624846669.0,stimulus,2,51,,,NoAct
1624846669.5,fixation,2,51,,,NoAct
1624846670.0,stimulus,1,558,,,PerfumeSession
1624846670.5,fixation,1,558,,,PerfumeSession
1624846671.0,stimulus,2,52,,,NoAct
1624846671.5,fixation,2,52,,,NoAct
1624846672.0,stimulus,1,559,,,PerfumeSession
1624846672.5,fixation,1,559,,,PerfumeSession
1624846673.0,stimulus,2,53,,,NoAct
1624846673.5,fixation,2,53,,,NoAct
1624846674.0,stimulus,1,560,,,PerfumeSession
1624846674.5,fixation,1,560,,,PerfumeSession
1624846675.0,stimulus,2,54,,,NoAct
1624846675.5,fixation,2,54,,,NoAct
1624846676.0,stimulus,1,561,,,PerfumeSession
1624846676.5,fixation,1,561,,,PerfumeSession
1624846677.0,stimulus,2,55,,,NoAct
1624846677.5,fixation,2,55,,,NoAct
1624846678.0,stimulus,1,562,,,PerfumeSession
1624846678.5,fixation,1,562,,,PerfumeSession
1624846679.0,stimulus,2,56,,,NoAct
1624846679.5,fixation,2,56,,,NoAct
1624846680.0,stimulus,1,563,,,PerfumeSession
1624846680.5,fixation,1,563,,,PerfumeSession
1624846681.0,stimulus,2,57,,,NoAct
1624846681.5,fixation,2,57,,,NoAct
1624846682.0,stimulus,1,564,,,PerfumeSession
1624846682.5,fixation,1,564,,,PerfumeSession
1624846683.0,stimulus,2,58,,,NoAct
1624846683.5,fixation,2,58,,,NoAct
1624846684.0,stimulus,1,565,,,PerfumeSession
1624846684.5,fixation,1,565,,,PerfumeSession
1624846685.0,stimulus,2,59,,,NoAct
1624846685.5,fixation,2,59,,,NoAct
1624846686.0,stimulus,1,566,,,PerfumeSession
1624846686.5,fixation,1,566,,,PerfumeSession
1624846687.0,stimulus,2,60,,,NoAct
1624846687.5,fixation,2,60,,,NoAct
1624846688.0,stimulus,1,567,,,PerfumeSession
1624846688.5,fixation,1,567,,,PerfumeSession
1624846689.0,stimulus,2,61,,,NoAct
1624846689.5,fixation,2,61,,,NoAct
1624846690.0,stimulus,1,568,,,PerfumeSession
1624846690.5,fixation,1,568,,,PerfumeSession
1624846691.0,stimulus,2,62,,,NoAct
1624846691.5,fixation,2,62,,,NoAct
1624846692.0,stimulus,1,569,,,PerfumeSession
1624846692.5,fixation,1,569,,,PerfumeSession
1624846693.0,stimulus,2,63,,,NoAct
1624846693.5,fixation,2,63,,,NoAct
1624846694.0,stimulus,1,570,,,PerfumeSession
1624846694.5,fixation,1,570,,,PerfumeSession
1624846695.0,stimulus,2,64,,,NoAct
1624846695.5,fixation,2,64,,,NoAct
1624846696.0,stimulus,1,571,,,PerfumeSession
1624846696.5,fixation,1,571,,,PerfumeSession
1624846697.0,stimulus,2,65,,,NoAct
1624846697.5,fixation,2,65,,,NoAct
1624846698.0,stimulus,1,572,,,PerfumeSession
1624846698.5,fixation,1,572,,,PerfumeSession
1624846699.0,stimulus,2,66,,,NoAct
1624846699.5,fixation,2,66,,,NoAct
1624846700.0,stimulus,1,573,,,PerfumeSession
1624846700.5,fixation,1,573,,,PerfumeSession
1624846701.0,stimulus,2,67,,,NoAct
1624846701.5,fixation,2,67,,,NoAct
1624846702.0,stimulus,1,574,,,PerfumeSession
1624846702.5,fixation,1,574,,,PerfumeSession
1624846703.0,stimulus,2,68,,,NoAct
1624846703.5,fixation,2,68,,,NoAct
1624846704.0,stimulus,1,575,,,PerfumeSession
1624846704.5,fixation,1,575,,,PerfumeSession
1624846705.0,stimulus,2,69,,,NoAct
1624846705.5,fixation,2,69,,,NoAct
1624846706.0,stimulus,1,576,,,PerfumeSession
1624846706.5,fixation,1,576,,,PerfumeSession
1624846707.0,stimulus,2,70,,,NoAct
1624846707.5,fixation,2,70,,,NoAct
1624846708.0,stimulus,1,577,,,PerfumeSession
1624846708.5,fixation,1,577,,,PerfumeSession
1624846709.0,stimulus,2,71,,,NoAct
1624846709.5,fixation,2,71,,,NoAct
1624846710.0,stimulus,1,578,,,PerfumeSession
1624846710.5,fixation,1,578,,,PerfumeSession
1624846711.0,stimulus,2,72,,,NoAct
1624846711.5,fixation,2,72,,,NoAct
1624846712.0,stimulus,1,579,,,PerfumeSession
1624846712.5,fixation,1,579,,,PerfumeSession
1624846713.0,stimulus,2,73,,,NoAct
1624846713.5,fixation,2,73,,,NoAct
1624846714.0,stimulus,1,580,,,PerfumeSession
1624846714.5,fixation,1,580,,,PerfumeSession
1624846715.0,stimulus,2,74,,,NoAct
1624846715.5,fixation,2,74,,,NoAct
1624846716.0,stimulus,1,581,,,PerfumeSession
1624846716.5,fixation,1,581,,,PerfumeSession
1624846717.0,stimulus,2,75,,,NoAct
1624846717.5,fixation,2,75,,,NoAct
1624846718.0,stimulus,1,582,,,PerfumeSession
1624846718.5,fixation,1,582,,,PerfumeSession
1624846719.0,stimulus,2,76,,,NoAct
1624846719.5,fixation,2,76,,,NoAct
1624846720.0,stimulus,1,583,,,PerfumeSession
1624846720.5,fixation,1,583,,,PerfumeSession
1624846721.0,stimulus,2,77,,,NoAct
1624846721.5,fixation,2,77,,,NoAct
1624846722.0,stimulus,1,584,,,PerfumeSession
1624846722.5,fixation,1,584,,,PerfumeSession
1624846723.0,stimulus,2,78,,,NoAct
1624846723.5,fixation,2,78,,,NoAct
1624846724.0,stimulus,1,585,,,PerfumeSession
1624846724.5,fixation,1,585,,,PerfumeSession
1624846725.0,stimulus,2,79,,,NoAct
1624846725.5,fixation,2,79,,,NoAct
1624846726.0,stimulus,1,586,,,PerfumeSession
1624846726.5,fixation,1,586,,,PerfumeSession
1624846727.0,stimulus,2,80,,,NoAct
1624846727.5,fixation,2,80,,,NoAct
1624846728.0,stimulus,1,587,,,PerfumeSession
1624846728.5,fixation,1,587,,,PerfumeSession
1624846729.0,stimulus,2,81,,,NoAct
1624846729.5,fixation,2,81,,,NoAct
1624846730.0,stimulus,1,588,,,PerfumeSession
1624846730.5,fixation,1,588,,,PerfumeSession
1624846731.0,stimulus,2,82,,,NoAct
1624846731.5,fixation,2,82,,,NoAct
1624846732.0,stimulus,1,589,,,PerfumeSession
1624846732.5,fixation,1,589,,,PerfumeSession
1624846733.0,stimulus,2,83,,,NoAct
1624846733.5,fixation,2,83,,,NoAct
1624846734.0,stimulus,1,590,,,PerfumeSession
1624846734.5,fixation,1,590,,,PerfumeSession
1624846735.0,stimulus,2,84,,,NoAct
1624846735.5,fixation,2,84,,,NoAct
1624846736.0,stimulus,1,591,,,PerfumeSession
1624846736.5,fixation,1,591,,,PerfumeSession
1624846737.0,stimulus,2,85,,,NoAct
1624846737.5,fixation,2,85,,,NoAct
1624846738.0,stimulus,1,592,,,PerfumeSession
1624846738.5,fixation,1,592,,,PerfumeSession
1624846739.0,stimulus,2,86,,,NoAct
1624846739.5,fixation,2,86,,,NoAct
1624846740.0,stimulus,1,593,,,PerfumeSession
1624846740.5,fixation,1,593,,,PerfumeSession
1624846741.0,stimulus,2,87,,,NoAct
1624846741.5,fixation,2,87,,,NoAct
1624846742.0,stimulus,1,594,,,PerfumeSession
1624846742.5,fixation,1,594,,,PerfumeSession
1624846743.0,stimulus,2,88,,,NoAct
1624846743.5,fixation,2,88,,,NoAct
1624846744.0,stimulus,1,595,,,PerfumeSession
1624846744.5,fixation,1,595,,,PerfumeSession
1624846745.0,stimulus,2,89,,,NoAct
1624846745.5,fixation,2,89,,,NoAct
1624846746.0,stimulus,1,596,,,PerfumeSession
1624846746.5,fixation,1,596,,,PerfumeSession
1624846747.0,stimulus,2,90,,,NoAct
1624846747.5,fixation,2,90,,,NoAct
1624846748.0,stimulus,1,597,,,PerfumeSession
1624846748.5,fixation,1,597,,,PerfumeSession
1624846749.0,stimulus,2,91,,,NoAct
1624846749.5,fixation,2,91,,,NoAct
1624846750.0,stimulus,1,598,,,PerfumeSession
1624846750.5,fixation,1,598,,,PerfumeSession
1624846751.0,stimulus,2,92,,,NoAct
1624846751.5,fixation,2,92,,,NoAct
1624846752.0,stimulus,1,599,,,PerfumeSession
1624846752.5,fixation,1,599,,,PerfumeSession
1624846753.0,stimulus,2,93,,,NoAct
1624846753.5,fixation,2,93,,,NoAct
1624846754.0,stimulus,1,600,,,PerfumeSession
1624846754.5,fixation,1,600,,,PerfumeSession
1624846755.0,stimulus,2,94,,,NoAct
1624846755.5,fixation,2,94,,,NoAct
1624846756.0,stimulus,1,601,,,PerfumeSession
1624846756.5,fixation,1,601,,,PerfumeSession
1624846757.0,stimulus,2,95,,,NoAct
1624846757.5,fixation,2,95,,,NoAct
1624846758.0,stimulus,1,602,,,PerfumeSession
1624846758.5,fixation,1,602,,,PerfumeSession
1624846759.0,stimulus,2,96,,,NoAct
1624846759.5,fixation,2,96,,,NoAct
1624846760.0,stimulus,1,603,,,PerfumeSession
1624846760.5,fixation,1,603,,,PerfumeSession
1624846761.0,stimulus,2,97,,,NoAct
1624846761.5,fixation,2,97,,,NoAct
1624846762.0,stimulus,1,604,,,PerfumeSession
1624846762.5,fixation,1,604,,,PerfumeSession
1624846763.0,stimulus,2,98,,,NoAct
1624846763.5,fixation,2,98,,,NoAct
1624846764.0,stimulus,1,605,,,PerfumeSession
1624846764.5,fixation,1,605,,,PerfumeSession
1624846765.0,stimulus,2,99,,,NoAct
1624846765.5,fixation,2,99,,,NoAct
1624846766.0,stimulus,1,606,,,PerfumeSession
1624846766.5,fixation,1,606,,,PerfumeSession
1624846767.0,stimulus,2,100,,,NoAct
1624846767.5,fixation,2,100,,,NoAct
1624846768.0,stimulus,1,607,,,PerfumeSession
1624846768.5,fixation,1,607,,,PerfumeSession
1624846769.0,stimulus,2,101,,,NoAct
1624846769.5,fixation,2,101,,,NoAct
1624846770.0,stimulus,1,608,,,PerfumeSession
1624846770.5,fixation,1,608,,,PerfumeSession
1624846771.0,stimulus,2,102,,,NoAct
1624846771.5,fixation,2,102,,,NoAct
1624846772.0,stimulus,1,609,,,PerfumeSession
1624846772.5,fixation,1,609,,,PerfumeSession
1624846773.0,stimulus,2,103,,,NoAct
1624846773.5,fixation,2,103,,,NoAct
1624846774.0,stimulus,1,610,,,PerfumeSession
1624846774.5,fixation,1,610,,,PerfumeSession
1624846775.0,stimulus,2,104,,,NoAct
1624846775.5,fixation,2,104,,,NoAct
1624846776.0,stimulus,1,611,,,PerfumeSession
1624846776.5,fixation,1,611,,,PerfumeSession
1624846777.0,stimulus,2,105,,,NoAct
1624846777.5,fixation,2,105,,,NoAct
1624846778.0,stimulus,1,612,,,PerfumeSession
1624846778.5,fixation,1,612,,,PerfumeSession
1624846779.0,stimulus,2,106,,,NoAct
1624846779.5,fixation,2,106,,,NoAct
1624846780.0,stimulus,1,613,,,PerfumeSession
1624846780.5,fixation,1,613,,,PerfumeSession
1624846781.0,stimulus,2,107,,,NoAct
1624846781.5,fixation,2,107,,,NoAct
1624846782.0,stimulus,1,614,,,PerfumeSession
1624846782.5,fixation,1,614,,,PerfumeSession
1624846783.0,stimulus,2,108,,,NoAct
1624846783.5,fixation,2,108,,,NoAct
1624846784.0,stimulus,1,615,,,PerfumeSession
1624846784.5,fixation,1,615,,,PerfumeSession
1624846785.0,stimulus,2,109,,,NoAct
1624846785.5,fixation,2,109,,,NoAct
1624846786.0,stimulus,1,616,,,PerfumeSession
1624846786.5,fixation,1,616,,,PerfumeSession
1624846787.0,stimulus,2,110,,,NoAct
1624846787.5,fixation,2,110,,,NoAct
1624846788.0,stimulus,1,617,,,PerfumeSession
1624846788.5,fixation,1,617,,,PerfumeSession
1624846789.0,stimulus,2,111,,,NoAct
1624846789.5,fixation,2,111,,,NoAct
1624846790.0,stimulus,1,618,,,PerfumeSession
1624846790.5,fixation,1,618,,,PerfumeSession
1624846791.0,stimulus,2,112,,,NoAct
1624846791.5,fixation,2,112,,,NoAct
1624846792.0,stimulus,1,619,,,PerfumeSession
1624846792.5,fixation,1,619,,,PerfumeSession
1624846793.0,stimulus,2,113,,,NoAct
1624846793.5,fixation,2,113,,,NoAct
1624846794.0,stimulus,1,620,,,PerfumeSession
1624846794.5,fixation,1,620,,,PerfumeSession
1624846795.0,stimulus,2,114,,,NoAct
1624846795.5,fixation,2,114,,,NoAct
1624846796.0,stimulus,1,621,,,PerfumeSession
1624846796.5,fixation,1,621,,,PerfumeSession
1624846797.0,stimulus,2,115,,,NoAct
1624846797.5,fixation,2,115,,,NoAct
1624846798.0,stimulus,1,622,,,PerfumeSession
1624846798.5,fixation,1,622,,,PerfumeSession
1624846799.0,stimulus,2,116,,,NoAct
1624846799.5,fixation,2,116,,,NoAct
1624846800.0,stimulus,1,623,,,PerfumeSession
1624846800.5,fixation,1,623,,,PerfumeSession
1624846801.0,stimulus,2,117,,,NoAct
1624846801.5,fixation,2,117,,,NoAct
1624846802.0,stimulus,1,624,,,PerfumeSession
1624846802.5,fixation,1,624,,,PerfumeSession
1624846803.0,stimulus,2,118,,,NoAct
1624846803.5,fixation,2,118,,,NoAct
1624846804.0,stimulus,1,625,,,PerfumeSession
1624846804.5,fixation,1,625,,,PerfumeSession
1624846805.0,stimulus,2,119,,,NoAct
1624846805.5,fixation,2,119,,,NoAct
1624846806.0,stimulus,1,626,,,PerfumeSession
1624846806.5,fixation,1,626,,,PerfumeSession
1624846807.0,stimulus,2,120,,,NoAct
1624846807.5,fixation,2,120,,,NoAct
1624846808.0,stimulus,1,627,,,PerfumeSession
1624846808.5,fixation,1,627,,,PerfumeSession
1624846809.0,stimulus,2,121,,,NoAct
1624846809.5,fixation,2,121,,,NoAct
1624846810.0,stimulus,1,628,,,PerfumeSession
1624846810.5,fixation,1,628,,,PerfumeSession
1624846811.0,stimulus,2,122,,,NoAct
1624846811.5,fixation,2,122,,,NoAct
1624846812.0,stimulus,1,629,,,PerfumeSession
1624846812.5,fixation,1,629,,,PerfumeSession
1624846813.0,stimulus,2,123,,,NoAct
1624846813.5,fixation,2,123,,,NoAct
1624846814.0,stimulus,1,630,,,PerfumeSession
1624846814.5,fixation,1,630,,,PerfumeSession
1624846815.0,stimulus,2,124,,,NoAct
1624846815.5,fixation,2,124,,,NoAct
1624846816.0,stimulus,1,631,,,PerfumeSession
1624846816.5,fixation,1,631,,,PerfumeSession
1624846817.0,stimulus,2,125,,,NoAct
1624846817.5,fixation,2,125,,,NoAct
1624846818.0,stimulus,1,632,,,PerfumeSession
1624846818.5,fixation,1,632,,,PerfumeSession
1624846819.0,stimulus,2,126,,,NoAct
1624846819.5,fixation,2,126,,,NoAct
1624846820.0,stimulus,1,633,,,PerfumeSession
1624846820.5,fixation,1,633,,,PerfumeSession
1624846821.0,stimulus,2,127,,,NoAct
1624846821.5,fixation,2,127,,,NoAct
1624846822.0,stimulus,1,634,,,PerfumeSession
1624846822.5,fixation,1,634,,,PerfumeSession
1624846823.0,stimulus,2,128,,,NoAct
1624846823.5,fixation,2,128,,,NoAct
1624846824.0,stimulus,1,635,,,PerfumeSession
1624846824.5,fixation,1,635,,,PerfumeSession
1624846825.0,stimulus,2,129,,,NoAct
1624846825.5,fixation,2,129,,,NoAct
1624846826.0,stimulus,1,636,,,PerfumeSession
1624846826.5,fixation,1,636,,,PerfumeSession
1624846827.0,stimulus,2,130,,,NoAct
1624846827.5,fixation,2,130,,,NoAct
1624846828.0,stimulus,1,637,,,PerfumeSession
1624846828.5,fixation,1,637,,,PerfumeSession
1624846829.0,stimulus,2,131,,,NoAct
1624846829.5,fixation,2,131,,,NoAct
1624846830.0,stimulus,1,638,,,PerfumeSession
1624846830.5,fixation,1,638,,,PerfumeSession
1624846831.0,stimulus,2,132,,,NoAct
1624846831.5,fixation,2,132,,,NoAct
1624846832.0,stimulus,1,639,,,PerfumeSession
1624846832.5,fixation,1,639,,,PerfumeSession
1624846833.0,stimulus,2,133,,,NoAct
1624846833.5,fixation,2,133,,,NoAct
1624846834.0,stimulus,1,640,,,PerfumeSession
1624846834.5,fixation,1,640,,,PerfumeSession
1624846835.0,stimulus,2,134,,,NoAct
1624846835.5,fixation,2,134,,,NoAct
1624846836.0,stimulus,1,641,,,PerfumeSession
1624846836.5,fixation,1,641,,,PerfumeSession
1624846837.0,stimulus,2,135,,,NoAct
1624846837.5,fixation,2,135,,,NoAct
1624846838.0,stimulus,1,642,,,PerfumeSession
1624846838.5,fixation,1,642,,,PerfumeSession
1624846839.0,stimulus,2,136,,,NoAct
1624846839.5,fixation,2,136,,,NoAct
1624846840.0,stimulus,1,643,,,PerfumeSession
1624846840.5,fixation,1,643,,,PerfumeSession
1624846841.0,stimulus,2,137,,,NoAct
1624846841.5,fixation,2,137,,,NoAct
1624846842.0,stimulus,1,644,,,PerfumeSession
1624846842.5,fixation,1,644,,,PerfumeSession
1624846843.0,stimulus,2,138,,,NoAct
1624846843.5,fixation,2,138,,,NoAct
1624846844.0,stimulus,1,645,,,PerfumeSession
1624846844.5,fixation,1,645,,,PerfumeSession
1624846845.0,stimulus,2,139,,,NoAct
1624846845.5,fixation,2,139,,,NoAct
1624846846.0,stimulus,1,646,,,PerfumeSession
1624846846.5,fixation,1,646,,,PerfumeSession
1624846847.0,stimulus,2,140,,,NoAct
1624846847.5,fixation,2,140,,,NoAct
1624846848.0,stimulus,1,647,,,PerfumeSession
1624846848.5,fixation,1,647,,,PerfumeSession
1624846849.0,stimulus,2,141,,,NoAct
1624846849.5,fixation,2,141,,,NoAct
1624846850.0,stimulus,1,648,,,PerfumeSession
1624846850.5,fixation,1,648,,,PerfumeSession
1624846851.0,stimulus,2,142,,,NoAct
1624846851.5,fixation,2,142,,,NoAct
1624846852.0,stimulus,1,649,,,PerfumeSession
1624846852.5,fixation,1,649,,,PerfumeSession
1624846853.0,stimulus,2,143,,,NoAct
1624846853.5,fixation,2,143,,,NoAct
1624846854.0,stimulus,1,650,,,PerfumeSession
1624846854.5,fixation,1,650,,,PerfumeSession
1624846855.0,stimulus,2,144,,,NoAct
1624846855.5,fixation,2,144,,,NoAct
1624846856.0,stimulus,1,651,,,PerfumeSession
1624846856.5,fixation,1,651,,,PerfumeSession
1624846857.0,stimulus,2,145,,,NoAct
1624846857.5,fixation,2,145,,,NoAct
1624846858.0,stimulus,1,652,,,PerfumeSession
1624846858.5,fixation,1,652,,,PerfumeSession
1624846859.0,stimulus,2,146,,,NoAct
1624846859.5,fixation,2,146,,,NoAct
1624846860.0,stimulus,1,653,,,PerfumeSession
1624846860.5,fixation,1,653,,,PerfumeSession
1624846861.0,stimulus,2,147,,,NoAct
1624846861.5,fixation,2,147,,,NoAct
1624846862.0,stimulus,1,654,,,PerfumeSession
1624846862.5,fixation,1,654,,,PerfumeSession
1624846863.0,stimulus,2,148,,,NoAct
1624846863.5,fixation,2,148,,,NoAct
1624846864.0,stimulus,1,655,,,PerfumeSession
1624846864.5,fixation,1,655,,,PerfumeSession
1624846865.0,stimulus,2,149,,,NoAct
1624846865.5,fixation,2,149,,,NoAct
1624846866.0,stimulus,1,656,,,PerfumeSession
1624846866.5,fixation,1,656,,,PerfumeSession
1624846867.0,stimulus,2,150,,,NoAct
1624846867.5,fixation,2,150,,,NoAct
1624846868.0,stimulus,1,657,,,PerfumeSession
1624846868.5,fixation,1,657,,,PerfumeSession
1624846869.0,stimulus,2,151,,,NoAct
1624846869.5,fixation,2,151,,,NoAct
1624846870.0,stimulus,1,658,,,PerfumeSession
1624846870.5,fixation,1,658,,,PerfumeSession
1624846871.0,stimulus,2,152,,,NoAct
1624846871.5,fixation,2,152,,,NoAct
1624846872.0,stimulus,1,659,,,PerfumeSession
1624846872.5,fixation,1,659,,,PerfumeSession
1624846873.0,stimulus,2,153,,,NoAct
1624846873.5,fixation,2,153,,,NoAct
1624846874.0,stimulus,1,660,,,PerfumeSession
1624846874.5,fixation,1,660,,,PerfumeSession
1624846875.0,stimulus,2,154,,,NoAct
1624846875.5,fixation,2,154,,,NoAct
1624846876.0,stimulus,1,661,,,PerfumeSession
1624846876.5,fixation,1,661,,,PerfumeSession
1624846877.0,stimulus,2,155,,,NoAct
1624846877.5,fixation,2,155,,,NoAct
1624846878.0,stimulus,1,662,,,PerfumeSession
1624846878.5,fixation,1,662,,,PerfumeSession
1624846879.0,stimulus,2,156,,,NoAct
1624846879.5,fixation,2,156,,,NoAct
1624846880.0,stimulus,1,663,,,PerfumeSession
1624846880.5,fixation,1,663,,,PerfumeSession
1624846881.0,stimulus,2,157,,,NoAct
1624846881.5,fixation,2,157,,,NoAct
1624846882.0,stimulus,1,664,,,PerfumeSession
1624846882.5,fixation,1,664,,,PerfumeSession
1624846883.0,stimulus,2,158,,,NoAct
1624846883.5,fixation,2,158,,,NoAct
1624846884.0,stimulus,1,665,,,PerfumeSession
1624846884.5,fixation,1,665,,,PerfumeSession
1624846885.0,stimulus,2,159,,,NoAct
1624846885.5,fixation,2,159,,,NoAct
1624846886.0,stimulus,1,666,,,PerfumeSession
1624846886.5,fixation,1,666,,,PerfumeSession
1624846887.0,stimulus,2,160,,,NoAct
1624846887.5,fixation,2,160,,,NoAct
1624846888.0,stimulus,1,667,,,PerfumeSession
1624846888.5,fixation,1,667,,,PerfumeSession
1624846889.0,stimulus,2,161,,,NoAct
1624846889.5,fixation,2,161,,,NoAct
1624846890.0,stimulus,1,668,,,PerfumeSession
1624846890.5,fixation,1,668,,,PerfumeSession
1624846891.0,stimulus,2,162,,,NoAct
1624846891.5,fixation,2,162,,,NoAct
1624846892.0,stimulus,1,669,,,PerfumeSession
1624846892.5,fixation,1,669,,,PerfumeSession
1624846893.0,stimulus,2,163,,,NoAct
1624846893.5,fixation,2,163,,,NoAct
1624846894.0,stimulus,1,670,,,PerfumeSession
1624846894.5,fixation,1,670,,,PerfumeSession
1624846895.0,stimulus,2,164,,,NoAct
1624846895.5,fixation,2,164,,,NoAct
1624846896.0,stimulus,1,671,,,PerfumeSession
1624846896.5,fixation,1,671,,,PerfumeSession
1624846897.0,stimulus,2,165,,,NoAct
1624846897.5,fixation,2,165,,,NoAct
1624846898.0,stimulus,1,672,,,PerfumeSession
1624846898.5,fixation,1,672,,,PerfumeSession
1624846899.0,stimulus,2,166,,,NoAct
1624846899.5,fixation,2,166,,,NoAct
1624846900.0,stimulus,1,673,,,PerfumeSession
1624846900.5,fixation,1,673,,,PerfumeSession
1624846901.0,stimulus,2,167,,,NoAct
1624846901.5,fixation,2,167,,,NoAct
1624846902.0,stimulus,1,674,,,PerfumeSession
1624846902.5,fixation,1,674,,,PerfumeSession
1624846903.0,stimulus,2,168,,,NoAct
1624846903.5,fixation,2,168,,,NoAct
1624846904.0,stimulus,1,675,,,PerfumeSession
1624846904.5,fixation,1,675,,,PerfumeSession
1624846905.0,stimulus,2,169,,,NoAct
1624846905.5,fixation,2,169,,,NoAct
1624846906.0,stimulus,1,676,,,PerfumeSession
1624846906.5,fixation,1,676,,,PerfumeSession
1624846907.0,stimulus,2,170,,,NoAct
1624846907.5,fixation,2,170,,,NoAct
1624846908.0,stimulus,1,677,,,PerfumeSession
1624846908.5,fixation,1,677,,,PerfumeSession
1624846909.0,stimulus,2,171,,,NoAct
1624846909.5,fixation,2,171,,,NoAct
1624846910.0,stimulus,1,678,,,PerfumeSession
1624846910.5,fixation,1,678,,,PerfumeSession
1624846911.0,stimulus,2,172,,,NoAct
1624846911.5,fixation,2,172,,,NoAct
1624846912.0,stimulus,1,679,,,PerfumeSession
1624846912.5,fixation,1,679,,,PerfumeSession
1624846913.0,stimulus,2,173,,,NoAct
1624846913.5,fixation,2,173,,,NoAct
1624846914.0,stimulus,1,680,,,PerfumeSession
1624846914.5,fixation,1,680,,,PerfumeSession
1624846915.0,stimulus,2,174,,,NoAct
1624846915.5,fixation,2,174,,,NoAct
1624846916.0,stimulus,1,681,,,PerfumeSession
1624846916.5,fixation,1,681,,,PerfumeSession
1624846917.0,stimulus,2,175,,,NoAct
1624846917.5,fixation,2,175,,,NoAct
1624846918.0,stimulus,1,682,,,PerfumeSession
1624846918.5,fixation,1,682,,,PerfumeSession
1624846919.0,stimulus,2,176,,,NoAct
1624846919.5,fixation,2,176,,,NoAct
1624846920.0,stimulus,1,683,,,PerfumeSession
1624846920.5,fixation,1,683,,,PerfumeSession
1624846921.0,stimulus,2,177,,,NoAct
1624846921.5,fixation,2,177,,,NoAct
1624846922.0,stimulus,1,684,,,PerfumeSession
1624846922.5,fixation,1,684,,,PerfumeSession
1624846923.0,stimulus,2,178,,,NoAct
1624846923.5,fixation,2,178,,,NoAct
1624846924.0,stimulus,1,685,,,PerfumeSession
1624846924.5,fixation,1,685,,,PerfumeSession
1624846925.0,stimulus,2,179,,,NoAct
1624846925.5,fixation,2,179,,,NoAct
1624846926.0,stimulus,1,686,,,PerfumeSession
1624846926.5,fixation,1,686,,,PerfumeSession
1624846927.0,stimulus,2,180,,,NoAct
1624846927.5,fixation,2,180,,,NoAct
1624846928.0,stimulus,1,687,,,PerfumeSession
1624846928.5,fixation,1,687,,,PerfumeSession
1624846929.0,stimulus,2,181,,,NoAct
1624846929.5,fixation,2,181,,,NoAct
1624846930.0,stimulus,1,688,,,PerfumeSession
1624846930.5,fixation,1,688,,,PerfumeSession
1624846931.0,stimulus,2,182,,,NoAct
1624846931.5,fixation,2,182,,,NoAct
1624846932.0,stimulus,1,689,,,PerfumeSession
1624846932.5,fixation,1,689,,,PerfumeSession
1624846933.0,stimulus,2,183,,,NoAct
1624846933.5,fixation,2,183,,,NoAct
1624846934.0,stimulus,1,690,,,PerfumeSession
1624846934.5,fixation,1,690,,,PerfumeSession
1624846935.0,stimulus,2,184,,,NoAct
1624846935.5,fixation,2,184,,,NoAct
1624846936.0,stimulus,1,691,,,PerfumeSession
1624846936.5,fixation,1,691,,,PerfumeSession
1624846937.0,stimulus,2,185,,,NoAct
1624846937.5,fixation,2,185,,,NoAct
1624846938.0,stimulus,1,692,,,PerfumeSession
1624846938.5,fixation,1,692,,,PerfumeSession
1624846939.0,stimulus,2,186,,,NoAct
1624846939.5,fixation,2,186,,,NoAct
1624846940.0,stimulus,1,693,,,PerfumeSession
1624846940.5,fixation,1,693,,,PerfumeSession
1624846941.0,stimulus,2,187,,,NoAct
1624846941.5,fixation,2,187,,,NoAct
1624846942.0,stimulus,1,694,,,PerfumeSession
1624846942.5,fixation,1,694,,,PerfumeSession
1624846943.0,stimulus,2,188,,,NoAct
1624846943.5,fixation,2,188,,,NoAct
1624846944.0,stimulus,1,695,,,PerfumeSession
1624846944.5,fixation,1,695,,,PerfumeSession
1624846945.0,stimulus,2,189,,,NoAct
1624846945.5,fixation,2,189,,,NoAct
1624846946.0,stimulus,1,696,,,PerfumeSession
1624846946.5,fixation,1,696,,,PerfumeSession
1624846947.0,stimulus,2,190,,,NoAct
1624846947.5,fixation,2,190,,,NoAct
1624846948.0,stimulus,1,697,,,PerfumeSession
1624846948.5,fixation,1,697,,,PerfumeSession
1624846949.0,stimulus,2,191,,,NoAct
1624846949.5,fixation,2,191,,,NoAct
1624846950.0,stimulus,1,698,,,PerfumeSession
1624846950.5,fixation,1,698,,,PerfumeSession
1624846951.0,stimulus,2,192,,,NoAct
1624846951.5,fixation,2,192,,,NoAct
1624846952.0,stimulus,1,699,,,PerfumeSession
1624846952.5,fixation,1,699,,,PerfumeSession
1624846953.0,stimulus,2,193,,,NoAct
1624846953.5,fixation,2,193,,,NoAct
1624846954.0,stimulus,1,700,,,PerfumeSession
1624846954.5,fixation,1,700,,,PerfumeSession
1624846955.0,stimulus,2,194,,,NoAct
1624846955.5,fixation,2,194,,,NoAct
1624846956.0,stimulus,1,701,,,PerfumeSession
1624846956.0,stimulus,3,1,,,PracticeSession
1624846956.5,fixation,1,701,,,PerfumeSession
1624846956.5,fixation,3,1,,,PracticeSession
1624846957.0,stimulus,2,195,,,NoAct
1624846957.5,fixation,2,195,,,NoAct
1624846958.0,stimulus,1,702,,,PerfumeSession
1624846958.0,stimulus,3,2,,,PracticeSession
1624846958.5,fixation,3,2,,,PracticeSession
1624846958.5,fixation,1,702,,,PerfumeSession
1624846959.0,stimulus,2,196,,,NoAct
1624846959.5,fixation,2,196,,,NoAct
1624846960.0,stimulus,1,703,,,PerfumeSession
1624846960.0,stimulus,3,3,,,PracticeSession
1624846960.5,fixation,1,703,,,PerfumeSession
1624846960.5,fixation,3,3,,,PracticeSession
1624846961.0,stimulus,2,197,,,NoAct
1624846961.5,fixation,2,197,,,NoAct
1624846962.0,stimulus,3,4,,,PracticeSession
1624846962.0,stimulus,1,704,,,PerfumeSession
1624846962.5,fixation,3,4,,,PracticeSession
1624846962.5,fixation,1,704,,,PerfumeSession
1624846963.0,stimulus,2,198,,,NoAct
1624846963.5,fixation,2,198,,,NoAct
1624846964.0,stimulus,1,705,,,PerfumeSession
1624846964.0,stimulus,3,5,,,PracticeSession
1624846964.5,fixation,1,705,,,PerfumeSession
1624846964.5,fixation,3,5,,,PracticeSession
1624846965.0,stimulus,2,199,,,NoAct
1624846965.5,fixation,2,199,,,NoAct
1624846966.0,stimulus,1,706,,,PerfumeSession
1624846966.0,stimulus,3,6,,,PracticeSession
1624846966.5,fixation,3,6,,,PracticeSession
1624846966.5,fixation,1,706,,,PerfumeSession
1624846967.0,stimulus,2,200,,,NoAct
1624846967.5,fixation,2,200,,,NoAct
1624846968.0,stimulus,1,707,,,PerfumeSession
1624846968.0,stimulus,3,7,,,PracticeSession
1624846968.5,fixation,1,707,,,PerfumeSession
1624846968.5,fixation,3,7,,,PracticeSession
1624846969.0,stimulus,2,201,,,NoAct
1624846969.5,fixation,2,201,,,NoAct
1624846970.0,stimulus,3,8,,,PracticeSession
1624846970.0,stimulus,1,708,,,PerfumeSession
1624846970.5,fixation,3,8,,,PracticeSession
1624846970.5,fixation,1,708,,,PerfumeSession
1624846971.0,stimulus,2,202,,,NoAct
1624846971.5,fixation,2,202,,,NoAct
1624846972.0,stimulus,1,709,,,PerfumeSession
1624846972.0,stimulus,3,9,,,PracticeSession
1624846972.5,fixation,1,709,,,PerfumeSession
1624846972.5,fixation,3,9,,,PracticeSession
1624846973.0,stimulus,2,203,,,NoAct
1624846973.5,fixation,2,203,,,NoAct
1624846974.0,stimulus,1,710,,,PerfumeSession
1624846974.0,stimulus,3,10,,,PracticeSession
1624846974.5,fixation,3,10,,,PracticeSession
1624846974.5,fixation,1,710,,,PerfumeSession
1624846975.0,stimulus,2,204,,,NoAct
1624846975.5,fixation,2,204,,,NoAct
1624846976.0,stimulus,1,711,,,PerfumeSession
1624846976.0,stimulus,3,11,,,PracticeSession
1624846976.5,fixation,1,711,,,PerfumeSession
1624846976.5,fixation,3,11,,,PracticeSession
1624846977.0,stimulus,2,205,,,NoAct
1624846977.5,fixation,2,205,,,NoAct
1624846978.0,stimulus,3,12,,,PracticeSession
1624846978.0,stimulus,1,712,,,PerfumeSession
1624846978.5,fixation,3,12,,,PracticeSession
1624846978.5,fixation,1,712,,,PerfumeSession
1624846979.0,stimulus,2,206,,,NoAct
1624846979.5,fixation,2,206,,,NoAct
1624846980.0,stimulus,1,713,,,PerfumeSession
1624846980.0,stimulus,3,13,,,PracticeSession
1624846980.5,fixation,1,713,,,PerfumeSession
1624846980.5,fixation,3,13,,,PracticeSession
1624846981.0,stimulus,2,207,,,NoAct
1624846981.5,fixation,2,207,,,NoAct
1624846982.0,stimulus,1,714,,,PerfumeSession
1624846982.0,stimulus,3,14,,,PracticeSession
1624846982.5,fixation,1,714,,,PerfumeSession
1624846982.5,fixation,3,14,,,PracticeSession
1624846983.0,stimulus,2,208,,,NoAct
1624846983.5,fixation,2,208,,,NoAct
1624846984.0,stimulus,3,15,,,PracticeSession
1624846984.0,stimulus,1,715,,,PerfumeSession
1624846984.5,fixation,3,15,,,PracticeSession
1624846984.5,fixation,1,715,,,PerfumeSession
1624846985.0,stimulus,2,209,,,NoAct
1624846985.5,fixation,2,209,,,NoAct
1624846986.0,stimulus,3,16,,,PracticeSession
1624846986.0,stimulus,1,716,,,PerfumeSession
1624846986.5,fixation,1,716,,,PerfumeSession
1624846986.5,fixation,3,16,,,PracticeSession
1624846987.0,stimulus,2,210,,,NoAct
1624846987.5,fixation,2,210,,,NoAct
1624846988.0,stimulus,3,17,,,PracticeSession
1624846988.0,stimulus,1,717,,,PerfumeSession
1624846988.5,fixation,3,17,,,PracticeSession
1624846988.5,fixation,1,717,,,PerfumeSession
1624846989.0,stimulus,2,211,,,NoAct
1624846989.5,fixation,2,211,,,NoAct
1624846990.0,stimulus,3,18,,,PracticeSession
1624846990.0,stimulus,1,718,,,PerfumeSession
1624846990.5,fixation,3,18,,,PracticeSession
1624846990.5,fixation,1,718,,,PerfumeSession
1624846991.0,stimulus,2,212,,,NoAct
1624846991.5,fixation,2,212,,,NoAct
1624846992.0,stimulus,1,719,,,PerfumeSession
1624846992.0,stimulus,3,19,,,PracticeSession
1624846992.5,fixation,3,19,,,PracticeSession
1624846992.5,fixation,1,719,,,PerfumeSession
1624846993.0,stimulus,2,213,,,NoAct
1624846993.5,fixation,2,213,,,NoAct
1624846994.0,stimulus,1,720,,,PerfumeSession
1624846994.0,stimulus,3,20,,,PracticeSession
1624846994.5,fixation,1,720,,,PerfumeSession
1624846994.5,fixation,3,20,,,PracticeSession
1624846995.0,stimulus,2,214,,,NoAct
1624846995.5,fixation,2,214,,,NoAct
1624846996.0,stimulus,1,721,,,PerfumeSession
1624846996.0,stimulus,3,21,,,PracticeSession
1624846996.5,fixation,3,21,,,PracticeSession
1624846996.5,fixation,1,721,,,PerfumeSession
1624846997.0,stimulus,2,215,,,NoAct
1624846997.5,fixation,2,215,,,NoAct
1624846998.0,stimulus,3,22,,,PracticeSession
1624846998.0,stimulus,1,722,,,PerfumeSession
1624846998.5,fixation,3,22,,,PracticeSession
1624846998.5,fixation,1,722,,,PerfumeSession
1624846999.0,stimulus,2,216,,,NoAct
1624846999.5,fixation,2,216,,,NoAct
1624847000.0,stimulus,1,723,,,PerfumeSession
1624847000.0,stimulus,3,23,,,PracticeSession
1624847000.5,fixation,1,723,,,PerfumeSession
1624847000.5,fixation,3,23,,,PracticeSession
1624847001.0,stimulus,2,217,,,NoAct
1624847001.5,fixation,2,217,,,NoAct
1624847002.0,stimulus,1,724,,,PerfumeSession
1624847002.0,stimulus,3,24,,,PracticeSession
1624847002.5,fixation,3,24,,,PracticeSession
1624847002.5,fixation,1,724,,,PerfumeSession
1624847003.0,stimulus,2,218,,,NoAct
1624847003.5,fixation,2,218,,,NoAct
1624847004.0,stimulus,1,725,,,PerfumeSession
1624847004.0,stimulus,3,25,,,PracticeSession
1624847004.5,fixation,3,25,,,PracticeSession
1624847004.5,fixation,1,725,,,PerfumeSession
1624847005.0,stimulus,2,219,,,NoAct
1624847005.5,fixation,2,219,,,NoAct
1624847006.0,stimulus,1,726,,,PerfumeSession
1624847006.0,stimulus,3,26,,,PracticeSession
1624847006.5,fixation,1,726,,,PerfumeSession
1624847006.5,fixation,3,26,,,PracticeSession
1624847007.0,stimulus,2,220,,,NoAct
1624847007.5,fixation,2,220,,,NoAct
1624847008.0,stimulus,1,727,,,PerfumeSession
1624847008.0,stimulus,3,27,,,PracticeSession
1624847008.5,fixation,3,27,,,PracticeSession
1624847008.5,fixation,1,727,,,PerfumeSession
1624847009.0,stimulus,2,221,,,NoAct
1624847009.5,fixation,2,221,,,NoAct
1624847010.0,stimulus,3,28,,,PracticeSession
1624847010.0,stimulus,1,728,,,PerfumeSession
1624847010.5,fixation,1,728,,,PerfumeSession
1624847010.5,fixation,3,28,,,PracticeSession
1624847011.0,stimulus,2,222,,,NoAct
1624847011.5,fixation,2,222,,,NoAct
1624847012.0,stimulus,1,729,,,PerfumeSession
1624847012.0,stimulus,3,29,,,PracticeSession
1624847012.5,fixation,3,29,,,PracticeSession
1624847012.5,fixation,1,729,,,PerfumeSession
1624847013.0,stimulus,2,223,,,NoAct
1624847013.5,fixation,2,223,,,NoAct
1624847014.0,stimulus,3,30,,,PracticeSession
1624847014.0,stimulus,1,730,,,PerfumeSession
1624847014.5,fixation,3,30,,,PracticeSession
1624847014.5,fixation,1,730,,,PerfumeSession
1624847015.0,stimulus,2,224,,,NoAct
1624847015.5,fixation,2,224,,,NoAct
1624847016.0,stimulus,1,731,,,PerfumeSession
1624847016.0,stimulus,3,31,,,PracticeSession
1624847016.5,fixation,1,731,,,PerfumeSession
1624847016.5,fixation,3,31,,,PracticeSession
1624847017.0,stimulus,2,225,,,NoAct
1624847017.5,fixation,2,225,,,NoAct
1624847018.0,stimulus,3,32,,,PracticeSession
1624847018.0,stimulus,1,732,,,PerfumeSession
1624847018.5,fixation,3,32,,,PracticeSession
1624847018.5,fixation,1,732,,,PerfumeSession
1624847019.0,stimulus,2,226,,,NoAct
1624847019.5,fixation,2,226,,,NoAct
1624847020.0,stimulus,1,733,,,PerfumeSession
1624847020.0,stimulus,3,33,,,PracticeSession
1624847020.5,fixation,1,733,,,PerfumeSession
1624847020.5,fixation,3,33,,,PracticeSession
1624847021.0,stimulus,2,227,,,NoAct
1624847021.5,fixation,2,227,,,NoAct
1624847022.0,stimulus,3,34,,,PracticeSession
1624847022.0,stimulus,1,734,,,PerfumeSession
1624847022.5,fixation,3,34,,,PracticeSession
1624847022.5,fixation,1,734,,,PerfumeSession
1624847023.0,stimulus,2,228,,,NoAct
1624847023.5,fixation,2,228,,,NoAct
1624847024.0,stimulus,1,735,,,PerfumeSession
1624847024.0,stimulus,3,35,,,PracticeSession
1624847024.5,fixation,1,735,,,PerfumeSession
1624847024.5,fixation,3,35,,,PracticeSession
1624847025.0,stimulus,2,229,,,NoAct
1624847025.5,fixation,2,229,,,NoAct
1624847026.0,stimulus,3,36,,,PracticeSession
1624847026.0,stimulus,1,736,,,PerfumeSession
1624847026.5,fixation,3,36,,,PracticeSession
1624847026.5,fixation,1,736,,,PerfumeSession
1624847027.0,stimulus,2,230,,,NoAct
1624847027.5,fixation,2,230,,,NoAct
1624847028.0,stimulus,1,737,,,PerfumeSession
1624847028.0,stimulus,3,37,,,PracticeSession
1624847028.5,fixation,3,37,,,PracticeSession
1624847028.5,fixation,1,737,,,PerfumeSession
1624847029.0,stimulus,2,231,,,NoAct
1624847029.5,fixation,2,231,,,NoAct
1624847030.0,stimulus,3,38,,,PracticeSession
1624847030.0,stimulus,1,738,,,PerfumeSession
1624847030.5,fixation,3,38,,,PracticeSession
1624847030.5,fixation,1,738,,,PerfumeSession
1624847031.0,stimulus,2,232,,,NoAct
1624847031.5,fixation,2,232,,,NoAct
1624847032.0,stimulus,1,739,,,PerfumeSession
1624847032.0,stimulus,3,39,,,PracticeSession
1624847032.5,fixation,3,39,,,PracticeSession
1624847032.5,fixation,1,739,,,PerfumeSession
1624847033.0,stimulus,2,233,,,NoAct
1624847033.5,fixation,2,233,,,NoAct
1624847034.0,stimulus,1,740,,,PerfumeSession
1624847034.0,stimulus,3,40,,,PracticeSession
1624847034.5,fixation,3,40,,,PracticeSession
1624847034.5,fixation,1,740,,,PerfumeSession
1624847035.0,stimulus,2,234,,,NoAct
1624847035.5,fixation,2,234,,,NoAct
1624847036.0,stimulus,3,41,,,PracticeSession
1624847036.0,stimulus,1,741,,,PerfumeSession
1624847036.5,fixation,3,41,,,PracticeSession
1624847036.5,fixation,1,741,,,PerfumeSession
1624847037.0,stimulus,2,235,,,NoAct
1624847037.5,fixation,2,235,,,NoAct
1624847038.0,stimulus,1,742,,,PerfumeSession
1624847038.0,stimulus,3,42,,,PracticeSession
1624847038.5,fixation,3,42,,,PracticeSession
1624847038.5,fixation,1,742,,,PerfumeSession
1624847039.0,stimulus,2,236,,,NoAct
1624847039.5,fixation,2,236,,,NoAct
1624847040.0,stimulus,1,743,,,PerfumeSession
1624847040.0,stimulus,3,43,,,PracticeSession
1624847040.5,fixation,3,43,,,PracticeSession
1624847040.5,fixation,1,743,,,PerfumeSession
1624847041.0,stimulus,2,237,,,NoAct
1624847041.5,fixation,2,237,,,NoAct
1624847042.0,stimulus,1,744,,,PerfumeSession
1624847042.0,stimulus,3,44,,,PracticeSession
1624847042.5,fixation,3,44,,,PracticeSession
1624847042.5,fixation,1,744,,,PerfumeSession
1624847043.0,stimulus,2,238,,,NoAct
1624847043.5,fixation,2,238,,,NoAct
1624847044.0,stimulus,1,745,,,PerfumeSession
1624847044.0,stimulus,3,45,,,NoAct
1624847044.5,fixation,3,45,,,NoAct
1624847044.5,fixation,1,745,,,PerfumeSession
1624847045.0,stimulus,2,239,,,NoAct
1624847045.5,fixation,2,239,,,NoAct
1624847046.0,stimulus,1,746,,,PerfumeSession
1624847046.0,stimulus,3,46,,,NoAct
1624847046.5,fixation,3,46,,,NoAct
1624847046.5,fixation,1,746,,,PerfumeSession
1624847047.0,stimulus,2,240,,,NoAct
1624847047.5,fixation,2,240,,,NoAct
1624847048.0,stimulus,1,747,,,PerfumeSession
1624847048.0,stimulus,3,47,,,NoAct
1624847048.5,fixation,3,47,,,NoAct
1624847048.5,fixation,1,747,,,PerfumeSession
1624847049.0,stimulus,2,241,,,NoAct
1624847049.5,fixation,2,241,,,NoAct
1624847050.0,stimulus,1,748,,,PerfumeSession
1624847050.0,stimulus,3,48,,,NoAct
1624847050.5,fixation,3,48,,,NoAct
1624847050.5,fixation,1,748,,,PerfumeSession
1624847051.0,stimulus,2,242,,,NoAct
1624847051.5,fixation,2,242,,,NoAct
1624847052.0,stimulus,1,749,,,PerfumeSession
1624847052.0,stimulus,3,49,,,NoAct
1624847052.5,fixation,3,49,,,NoAct
1624847052.5,fixation,1,749,,,PerfumeSession
1624847053.0,stimulus,2,243,,,NoAct
1624847053.5,fixation,2,243,,,NoAct
1624847054.0,stimulus,1,750,,,PerfumeSession
1624847054.0,stimulus,3,50,,,NoAct
1624847054.5,fixation,3,50,,,NoAct
1624847054.5,fixation,1,750,,,PerfumeSession
1624847055.0,stimulus,2,244,,,NoAct
1624847055.5,fixation,2,244,,,NoAct
1624847056.0,stimulus,1,751,,,CoffeeSession
1624847056.0,stimulus,3,51,,,NoAct
1624847056.5,fixation,3,51,,,NoAct
1624847056.5,fixation,1,751,,,CoffeeSession
1624847057.0,stimulus,2,245,,,NoAct
1624847057.5,fixation,2,245,,,NoAct
1624847058.0,stimulus,3,52,,,NoAct
1624847058.0,stimulus,1,752,,,CoffeeSession
1624847058.5,fixation,1,752,,,CoffeeSession
1624847058.5,fixation,3,52,,,NoAct
1624847059.0,stimulus,2,246,,,NoAct
1624847059.5,fixation,2,246,,,NoAct
1624847060.0,stimulus,1,753,,,CoffeeSession
1624847060.0,stimulus,3,53,,,NoAct
1624847060.5,fixation,3,53,,,NoAct
1624847060.5,fixation,1,753,,,CoffeeSession
1624847061.0,stimulus,2,247,,,NoAct
1624847061.5,fixation,2,247,,,NoAct
1624847062.0,stimulus,1,754,,,CoffeeSession
1624847062.0,stimulus,3,54,,,NoAct
1624847062.5,fixation,3,54,,,NoAct
1624847062.5,fixation,1,754,,,CoffeeSession
1624847063.0,stimulus,2,248,,,NoAct
1624847063.5,fixation,2,248,,,NoAct
1624847064.0,stimulus,1,755,,,CoffeeSession
1624847064.0,stimulus,3,55,,,NoAct
1624847064.5,fixation,3,55,,,NoAct
1624847064.5,fixation,1,755,,,CoffeeSession
1624847065.0,stimulus,2,249,,,NoAct
1624847065.5,fixation,2,249,,,NoAct
1624847066.0,stimulus,1,756,,,CoffeeSession
1624847066.0,stimulus,3,56,,,NoAct
1624847066.5,fixation,3,56,,,NoAct
1624847066.5,fixation,1,756,,,CoffeeSession
1624847067.0,stimulus,2,250,,,NoAct
1624847067.5,fixation,2,250,,,NoAct
1624847068.0,stimulus,1,757,,,CoffeeSession
1624847068.0,stimulus,3,57,,,NoAct
1624847068.5,fixation,3,57,,,NoAct
1624847068.5,fixation,1,757,,,CoffeeSession
1624847069.0,stimulus,2,251,,,NoAct
1624847069.5,fixation,2,251,,,NoAct
1624847070.0,stimulus,1,758,,,CoffeeSession
1624847070.0,stimulus,3,58,,,NoAct
1624847070.5,fixation,3,58,,,NoAct
1624847070.5,fixation,1,758,,,CoffeeSession
1624847071.0,stimulus,2,252,,,NoAct
1624847071.5,fixation,2,252,,,NoAct
1624847072.0,stimulus,1,759,,,CoffeeSession
1624847072.0,stimulus,3,59,,,NoAct
1624847072.5,fixation,3,59,,,NoAct
1624847072.5,fixation,1,759,,,CoffeeSession
1624847073.0,stimulus,2,253,,,NoAct
1624847073.5,fixation,2,253,,,NoAct
1624847074.0,stimulus,1,760,,,CoffeeSession
1624847074.0,stimulus,3,60,,,NoAct
1624847074.5,fixation,1,760,,,CoffeeSession
1624847074.5,fixation,3,60,,,NoAct
1624847075.0,stimulus,2,254,,,NoAct
1624847075.5,fixation,2,254,,,NoAct
1624847076.0,stimulus,1,761,,,CoffeeSession
1624847076.0,stimulus,3,61,,,NoAct
1624847076.5,fixation,3,61,,,NoAct
1624847076.5,fixation,1,761,,,CoffeeSession
1624847077.0,stimulus,2,255,,,NoAct
1624847077.5,fixation,2,255,,,NoAct
1624847078.0,stimulus,1,762,,,CoffeeSession
1624847078.0,stimulus,3,62,,,NoAct
1624847078.5,fixation,3,62,,,NoAct
1624847078.5,fixation,1,762,,,CoffeeSession
1624847079.0,stimulus,2,256,,,NoAct
1624847079.5,fixation,2,256,,,NoAct
1624847080.0,stimulus,1,763,,,CoffeeSession
1624847080.0,stimulus,3,63,,,NoAct
1624847080.5,fixation,3,63,,,NoAct
1624847080.5,fixation,1,763,,,CoffeeSession
1624847081.0,stimulus,2,257,,,NoAct
1624847081.5,fixation,2,257,,,NoAct
1624847082.0,stimulus,1,764,,,CoffeeSession
1624847082.0,stimulus,3,64,,,NoAct
1624847082.5,fixation,3,64,,,NoAct
1624847082.5,fixation,1,764,,,CoffeeSession
1624847083.0,stimulus,2,258,,,NoAct
1624847083.5,fixation,2,258,,,NoAct
1624847084.0,stimulus,1,765,,,CoffeeSession
1624847084.0,stimulus,3,65,,,NoAct
1624847084.5,fixation,3,65,,,NoAct
1624847084.5,fixation,1,765,,,CoffeeSession
1624847085.0,stimulus,2,259,,,NoAct
1624847085.5,fixation,2,259,,,NoAct
1624847086.0,stimulus,1,766,,,CoffeeSession
1624847086.0,stimulus,3,66,,,NoAct
1624847086.5,fixation,3,66,,,NoAct
1624847086.5,fixation,1,766,,,CoffeeSession
1624847087.0,stimulus,2,260,,,NoAct
1624847087.5,fixation,2,260,,,NoAct
1624847088.0,stimulus,1,767,,,CoffeeSession
1624847088.0,stimulus,3,67,,,NoAct
1624847088.5,fixation,3,67,,,NoAct
1624847088.5,fixation,1,767,,,CoffeeSession
1624847089.0,stimulus,2,261,,,NoAct
1624847089.5,fixation,2,261,,,NoAct
1624847090.0,stimulus,1,768,,,CoffeeSession
1624847090.0,stimulus,3,68,,,NoAct
1624847090.5,fixation,3,68,,,NoAct
1624847090.5,fixation,1,768,,,CoffeeSession
1624847091.0,stimulus,2,262,,,NoAct
1624847091.5,fixation,2,262,,,NoAct
1624847092.0,stimulus,1,769,,,CoffeeSession
1624847092.0,stimulus,3,69,,,NoAct
1624847092.5,fixation,3,69,,,NoAct
1624847092.5,fixation,1,769,,,CoffeeSession
1624847093.0,stimulus,2,263,,,NoAct
1624847093.5,fixation,2,263,,,NoAct
1624847094.0,stimulus,1,770,,,CoffeeSession
1624847094.0,stimulus,3,70,,,NoAct
1624847094.5,fixation,3,70,,,NoAct
1624847094.5,fixation,1,770,,,CoffeeSession
1624847095.0,stimulus,2,264,,,NoAct
1624847095.5,fixation,2,264,,,NoAct
1624847096.0,stimulus,1,771,,,CoffeeSession
1624847096.0,stimulus,3,71,,,NoAct
1624847096.5,fixation,3,71,,,NoAct
1624847096.5,fixation,1,771,,,CoffeeSession
1624847097.0,stimulus,2,265,,,NoAct
1624847097.5,fixation,2,265,,,NoAct
1624847098.0,stimulus,1,772,,,CoffeeSession
1624847098.0,stimulus,3,72,,,NoAct
1624847098.5,fixation,3,72,,,NoAct
1624847098.5,fixation,1,772,,,CoffeeSession
1624847099.0,stimulus,2,266,,,NoAct
1624847099.5,fixation,2,266,,,NoAct
1624847100.0,stimulus,1,773,,,CoffeeSession
1624847100.0,stimulus,3,73,,,NoAct
1624847100.5,fixation,3,73,,,NoAct
1624847100.5,fixation,1,773,,,CoffeeSession
1624847101.0,stimulus,2,267,,,NoAct
1624847101.5,fixation,2,267,,,NoAct
1624847102.0,stimulus,1,774,,,CoffeeSession
1624847102.0,stimulus,3,74,,,NoAct
1624847102.5,fixation,3,74,,,NoAct
1624847102.5,fixation,1,774,,,CoffeeSession
1624847103.0,stimulus,2,268,,,NoAct
1624847103.5,fixation,2,268,,,NoAct
1624847104.0,stimulus,1,775,,,CoffeeSession
1624847104.0,stimulus,3,75,,,NoAct
1624847104.5,fixation,3,75,,,NoAct
1624847104.5,fixation,1,775,,,CoffeeSession
1624847105.0,stimulus,2,269,,,NoAct
1624847105.5,fixation,2,269,,,NoAct
1624847106.0,stimulus,1,776,,,CoffeeSession
1624847106.0,stimulus,3,76,,,NoAct
1624847106.5,fixation,3,76,,,NoAct
1624847106.5,fixation,1,776,,,CoffeeSession
1624847107.0,stimulus,2,270,,,NoAct
1624847107.5,fixation,2,270,,,NoAct
1624847108.0,stimulus,3,77,,,NoAct
1624847108.0,stimulus,1,777,,,CoffeeSession
1624847108.5,fixation,3,77,,,NoAct
1624847108.5,fixation,1,777,,,CoffeeSession
1624847109.0,stimulus,2,271,,,NoAct
1624847109.5,fixation,2,271,,,NoAct
1624847110.0,stimulus,3,78,,,NoAct
1624847110.0,stimulus,1,778,,,CoffeeSession
1624847110.5,fixation,1,778,,,CoffeeSession
1624847110.5,fixation,3,78,,,NoAct
1624847111.0,stimulus,2,272,,,NoAct
1624847111.5,fixation,2,272,,,NoAct
1624847112.0,stimulus,3,79,,,NoAct
1624847112.0,stimulus,1,779,,,CoffeeSession
1624847112.5,fixation,3,79,,,NoAct
1624847112.5,fixation,1,779,,,CoffeeSession
1624847113.0,stimulus,2,273,,,NoAct
1624847113.5,fixation,2,273,,,NoAct
1624847114.0,stimulus,1,780,,,CoffeeSession
1624847114.0,stimulus,3,80,,,NoAct
1624847114.5,fixation,1,780,,,CoffeeSession
1624847114.5,fixation,3,80,,,NoAct
1624847115.0,stimulus,2,274,,,NoAct
1624847115.5,fixation,2,274,,,NoAct
1624847116.0,stimulus,3,81,,,NoAct
1624847116.0,stimulus,1,781,,,CoffeeSession
1624847116.5,fixation,3,81,,,NoAct
1624847116.5,fixation,1,781,,,CoffeeSession
1624847117.0,stimulus,2,275,,,NoAct
1624847117.5,fixation,2,275,,,NoAct
1624847118.0,stimulus,3,82,,,NoAct
1624847118.0,stimulus,1,782,,,CoffeeSession
1624847118.5,fixation,1,782,,,CoffeeSession
1624847118.5,fixation,3,82,,,NoAct
1624847119.0,stimulus,2,276,,,NoAct
1624847119.5,fixation,2,276,,,NoAct
1624847120.0,stimulus,3,83,,,NoAct
1624847120.0,stimulus,1,783,,,CoffeeSession
1624847120.5,fixation,1,783,,,CoffeeSession
1624847120.5,fixation,3,83,,,NoAct
1624847121.0,stimulus,2,277,,,NoAct
1624847121.5,fixation,2,277,,,NoAct
1624847122.0,stimulus,1,784,,,CoffeeSession
1624847122.0,stimulus,3,84,,,NoAct
1624847122.5,fixation,1,784,,,CoffeeSession
1624847122.5,fixation,3,84,,,NoAct
1624847123.0,stimulus,2,278,,,NoAct
1624847123.5,fixation,2,278,,,NoAct
1624847124.0,stimulus,3,85,,,NoAct
1624847124.0,stimulus,1,785,,,CoffeeSession
1624847124.5,fixation,3,85,,,NoAct
1624847124.5,fixation,1,785,,,CoffeeSession
1624847125.0,stimulus,2,279,,,NoAct
1624847125.5,fixation,2,279,,,NoAct
1624847126.0,stimulus,3,86,,,NoAct
1624847126.0,stimulus,1,786,,,CoffeeSession
1624847126.5,fixation,1,786,,,CoffeeSession
1624847126.5,fixation,3,86,,,NoAct
1624847127.0,stimulus,2,280,,,NoAct
1624847127.5,fixation,2,280,,,NoAct
1624847128.0,stimulus,3,87,,,NoAct
1624847128.0,stimulus,1,787,,,CoffeeSession
1624847128.5,fixation,3,87,,,NoAct
1624847128.5,fixation,1,787,,,CoffeeSession
1624847129.0,stimulus,2,281,,,NoAct
1624847129.5,fixation,2,281,,,NoAct
1624847130.0,stimulus,1,788,,,CoffeeSession
1624847130.0,stimulus,3,88,,,NoAct
1624847130.5,fixation,1,788,,,CoffeeSession
1624847130.5,fixation,3,88,,,NoAct
1624847131.0,stimulus,2,282,,,NoAct
1624847131.5,fixation,2,282,,,NoAct
1624847132.0,stimulus,3,89,,,NoAct
1624847132.0,stimulus,1,789,,,CoffeeSession
1624847132.5,fixation,3,89,,,NoAct
1624847132.5,fixation,1,789,,,CoffeeSession
1624847133.0,stimulus,2,283,,,NoAct
1624847133.5,fixation,2,283,,,NoAct
1624847134.0,stimulus,1,790,,,CoffeeSession
1624847134.0,stimulus,3,90,,,NoAct
1624847134.5,fixation,1,790,,,CoffeeSession
1624847134.5,fixation,3,90,,,NoAct
1624847135.0,stimulus,2,284,,,NoAct
1624847135.5,fixation,2,284,,,NoAct
1624847136.0,stimulus,3,91,,,NoAct
1624847136.0,stimulus,1,791,,,CoffeeSession
1624847136.5,fixation,1,791,,,CoffeeSession
1624847136.5,fixation,3,91,,,NoAct
1624847137.0,stimulus,2,285,,,NoAct
1624847137.5,fixation,2,285,,,NoAct
1624847138.0,stimulus,1,792,,,CoffeeSession
1624847138.0,stimulus,3,92,,,NoAct
1624847138.5,fixation,1,792,,,CoffeeSession
1624847138.5,fixation,3,92,,,NoAct
1624847139.0,stimulus,2,286,,,NoAct
1624847139.5,fixation,2,286,,,NoAct
1624847140.0,stimulus,3,93,,,NoAct
1624847140.0,stimulus,1,793,,,CoffeeSession
1624847140.5,fixation,3,93,,,NoAct
1624847140.5,fixation,1,793,,,CoffeeSession
1624847141.0,stimulus,2,287,,,NoAct
1624847141.5,fixation,2,287,,,NoAct
1624847142.0,stimulus,3,94,,,NoAct
1624847142.0,stimulus,1,794,,,CoffeeSession
1624847142.5,fixation,3,94,,,NoAct
1624847142.5,fixation,1,794,,,CoffeeSession
1624847143.0,stimulus,2,288,,,NoAct
1624847143.5,fixation,2,288,,,NoAct
1624847144.0,stimulus,3,95,,,NoAct
1624847144.0,stimulus,1,795,,,CoffeeSession
1624847144.5,fixation,3,95,,,NoAct
1624847144.5,fixation,1,795,,,CoffeeSession
1624847145.0,stimulus,2,289,,,NoAct
1624847145.5,fixation,2,289,,,NoAct
1624847146.0,stimulus,1,796,,,CoffeeSession
1624847146.0,stimulus,3,96,,,NoAct
1624847146.5,fixation,3,96,,,NoAct
1624847146.5,fixation,1,796,,,CoffeeSession
1624847147.0,stimulus,2,290,,,NoAct
1624847147.5,fixation,2,290,,,NoAct
1624847148.0,stimulus,3,97,,,NoAct
1624847148.0,stimulus,1,797,,,CoffeeSession
1624847148.5,fixation,3,97,,,NoAct
1624847148.5,fixation,1,797,,,CoffeeSession
1624847149.0,stimulus,2,291,,,NoAct
1624847149.5,fixation,2,291,,,NoAct
1624847150.0,stimulus,3,98,,,NoAct
1624847150.0,stimulus,1,798,,,CoffeeSession
1624847150.5,fixation,1,798,,,CoffeeSession
1624847150.5,fixation,3,98,,,NoAct
1624847151.0,stimulus,2,292,,,NoAct
1624847151.5,fixation,2,292,,,NoAct
1624847152.0,stimulus,1,799,,,CoffeeSession
1624847152.0,stimulus,3,99,,,NoAct
1624847152.5,fixation,3,99,,,NoAct
1624847152.5,fixation,1,799,,,CoffeeSession
1624847153.0,stimulus,2,293,,,NoAct
1624847153.5,fixation,2,293,,,NoAct
1624847154.0,stimulus,3,100,,,NoAct
1624847154.0,stimulus,1,800,,,CoffeeSession
1624847154.5,fixation,1,800,,,CoffeeSession
1624847154.5,fixation,3,100,,,NoAct
1624847155.0,stimulus,2,294,,,NoAct
1624847155.5,fixation,2,294,,,NoAct
1624847156.0,stimulus,3,101,,,NoAct
1624847156.0,stimulus,1,801,,,CoffeeSession
1624847156.5,fixation,1,801,,,CoffeeSession
1624847156.5,fixation,3,101,,,NoAct
1624847157.0,stimulus,2,295,,,NoAct
1624847157.5,fixation,2,295,,,NoAct
1624847158.0,stimulus,1,802,,,CoffeeSession
1624847158.0,stimulus,3,102,,,NoAct
1624847158.5,fixation,1,802,,,CoffeeSession
1624847158.5,fixation,3,102,,,NoAct
1624847159.0,stimulus,2,296,,,NoAct
