event_time_s,trial_type,session_idx,trial_idx,RT_s,ACC,session_type
1625816744.0,stimulus,1,1,,,PracticeSession
1625816744.5,fixation,1,1,,,PracticeSession
1625816746.0,stimulus,1,2,,,PracticeSession
1625816746.5,fixation,1,2,,,PracticeSession
1625816748.0,stimulus,1,3,,,PracticeSession
1625816748.5,fixation,1,3,,,PracticeSession
1625816750.0,stimulus,1,4,,,PracticeSession
1625816750.5,fixation,1,4,,,PracticeSession
1625816752.0,stimulus,1,5,,,PracticeSession
1625816752.5,fixation,1,5,,,PracticeSession
1625816754.0,stimulus,1,6,,,PracticeSession
1625816754.5,fixation,1,6,,,PracticeSession
1625816756.0,stimulus,1,7,,,PracticeSession
1625816756.5,fixation,1,7,,,PracticeSession
1625816758.0,stimulus,1,8,,,PracticeSession
1625816758.5,fixation,1,8,,,PracticeSession
1625816760.0,stimulus,1,9,,,PracticeSession
1625816760.5,fixation,1,9,,,PracticeSession
1625816762.0,stimulus,1,10,,,PracticeSession
1625816762.5,fixation,1,10,,,PracticeSession
1625816764.0,stimulus,1,11,,,PracticeSession
1625816764.5,fixation,1,11,,,PracticeSession
1625816766.0,stimulus,1,12,,,PracticeSession
1625816766.5,fixation,1,12,,,PracticeSession
1625816768.0,stimulus,1,13,,,PracticeSession
1625816768.5,fixation,1,13,,,PracticeSession
1625816770.0,stimulus,1,14,,,PracticeSession
1625816770.5,fixation,1,14,,,PracticeSession
1625816772.0,stimulus,1,15,,,PracticeSession
1625816772.5,fixation,1,15,,,PracticeSession
1625816774.0,stimulus,1,16,,,PracticeSession
1625816774.5,fixation,1,16,,,PracticeSession
1625816776.0,stimulus,1,17,,,PracticeSession
1625816776.5,fixation,1,17,,,PracticeSession
1625816778.0,stimulus,1,18,,,PracticeSession
1625816778.5,fixation,1,18,,,PracticeSession
1625816780.0,stimulus,1,19,,,PracticeSession
1625816780.5,fixation,1,19,,,PracticeSession
1625816782.0,stimulus,1,20,,,PracticeSession
1625816782.5,fixation,1,20,,,PracticeSession
1625816784.0,stimulus,1,21,,,PracticeSession
1625816784.5,fixation,1,21,,,PracticeSession
1625816786.0,stimulus,1,22,,,PracticeSession
1625816786.5,fixation,1,22,,,PracticeSession
1625816788.0,stimulus,1,23,,,PracticeSession
1625816788.5,fixation,1,23,,,PracticeSession
1625816790.0,stimulus,1,24,,,PracticeSession
1625816790.5,fixation,1,24,,,PracticeSession
1625816792.0,stimulus,1,25,,,PracticeSession
1625816792.5,fixation,1,25,,,PracticeSession
1625816794.0,stimulus,1,26,,,PracticeSession
1625816794.5,fixation,1,26,,,PracticeSession
1625816796.0,stimulus,1,27,,,PracticeSession
1625816796.5,fixation,1,27,,,PracticeSession
1625816798.0,stimulus,1,28,,,PracticeSession
1625816798.5,fixation,1,28,,,PracticeSession
1625816800.0,stimulus,1,29,,,PracticeSession
1625816800.5,fixation,1,29,,,PracticeSession
1625816802.0,stimulus,1,30,,,PracticeSession
1625816802.5,fixation,1,30,,,PracticeSession
1625816804.0,stimulus,1,31,,,PracticeSession
1625816804.5,fixation,1,31,,,PracticeSession
1625816806.0,stimulus,1,32,,,PracticeSession
1625816806.5,fixation,1,32,,,PracticeSession
1625816808.0,stimulus,1,33,,,PracticeSession
1625816808.5,fixation,1,33,,,PracticeSession
1625816810.0,stimulus,1,34,,,PracticeSession
1625816810.5,fixation,1,34,,,PracticeSession
1625816812.0,stimulus,1,35,,,PracticeSession
1625816812.5,fixation,1,35,,,PracticeSession
1625816814.0,stimulus,1,36,,,PracticeSession
1625816814.5,fixation,1,36,,,PracticeSession
1625816816.0,stimulus,1,37,,,PracticeSession
1625816816.5,fixation,1,37,,,PracticeSession
1625816818.0,stimulus,1,38,,,PracticeSession
1625816818.5,fixation,1,38,,,PracticeSession
1625816820.0,stimulus,1,39,,,PracticeSession
1625816820.5,fixation,1,39,,,PracticeSession
1625816822.0,stimulus,1,40,,,PracticeSession
1625816822.5,fixation,1,40,,,PracticeSession
1625816824.0,stimulus,1,41,,,PracticeSession
1625816824.5,fixation,1,41,,,PracticeSession
1625816826.0,stimulus,1,42,,,PracticeSession
1625816826.5,fixation,1,42,,,PracticeSession
1625816828.0,stimulus,1,43,,,PracticeSession
1625816828.5,fixation,1,43,,,PracticeSession
1625816830.0,stimulus,1,44,,,PracticeSession
1625816830.5,fixation,1,44,,,PracticeSession
1625816832.0,stimulus,1,45,,0.0,NoAct
1625816833.498,fixation,1,45,0.998,1.0,NoAct
1625816834.0,stimulus,1,46,,0.0,NoAct
1625816835.097,fixation,1,46,0.597,1.0,NoAct
1625816836.0,stimulus,1,47,,0.0,NoAct
1625816837.008,fixation,1,47,0.508,1.0,NoAct
1625816838.0,stimulus,1,48,,0.0,NoAct
1625816839.009,fixation,1,48,0.509,0.0,NoAct
1625816840.0,stimulus,1,49,,0.0,NoAct
1625816841.165,fixation,1,49,0.665,1.0,NoAct
1625816842.0,stimulus,1,50,,0.0,NoAct
1625816842.929,fixation,1,50,0.429,1.0,NoAct
1625816844.0,stimulus,1,51,,0.0,NoAct
1625816844.871,fixation,1,51,0.371,0.0,NoAct
1625816846.0,stimulus,1,52,,0.0,NoAct
1625816847.171,fixation,1,52,0.671,0.0,NoAct
1625816848.0,stimulus,1,53,,0.0,NoAct
1625816848.93,fixation,1,53,0.43,1.0,NoAct
1625816850.0,stimulus,1,54,,0.0,NoAct
1625816850.866,fixation,1,54,0.366,1.0,NoAct
1625816852.0,stimulus,1,55,,0.0,NoAct
1625816852.962,fixation,1,55,0.462,1.0,NoAct
1625816854.0,stimulus,1,56,,0.0,NoAct
1625816855.08,fixation,1,56,0.58,1.0,NoAct
1625816856.0,stimulus,1,57,,0.0,NoAct
1625816857.101,fixation,1,57,0.601,1.0,NoAct
1625816858.0,stimulus,1,58,,0.0,NoAct
1625816858.947,fixation,1,58,0.447,1.0,NoAct
1625816860.0,stimulus,1,59,,0.0,NoAct
1625816861.26,fixation,1,59,0.76,0.0,NoAct
1625816862.0,stimulus,1,60,,0.0,NoAct
1625816862.5,fixation,1,60,,0.0,NoAct
1625816864.0,stimulus,1,61,,0.0,NoAct
1625816864.744,fixation,1,61,0.244,1.0,NoAct
1625816866.0,stimulus,1,62,,0.0,NoAct
1625816866.978,fixation,1,62,0.478,1.0,NoAct
1625816868.0,stimulus,1,63,,0.0,NoAct
1625816868.875,fixation,1,63,0.375,1.0,NoAct
1625816870.0,stimulus,1,64,,0.0,NoAct
1625816870.881,fixation,1,64,0.381,1.0,NoAct
1625816872.0,stimulus,1,65,,0.0,NoAct
1625816872.81,fixation,1,65,0.31,1.0,NoAct
1625816874.0,stimulus,1,66,,0.0,NoAct
1625816875.185,fixation,1,66,0.685,1.0,NoAct
1625816876.0,stimulus,1,67,,0.0,NoAct
1625816877.966,fixation,1,67,1.466,1.0,NoAct
1625816878.0,stimulus,1,68,,0.0,NoAct
1625816879.314,fixation,1,68,0.814,1.0,NoAct
1625816880.0,stimulus,1,69,,0.0,NoAct
1625816880.868,fixation,1,69,0.368,1.0,NoAct
1625816882.0,stimulus,1,70,,0.0,NoAct
1625816882.898,fixation,1,70,0.398,1.0,NoAct
1625816884.0,stimulus,1,71,,0.0,NoAct
1625816884.852,fixation,1,71,0.352,1.0,NoAct
1625816886.0,stimulus,1,72,,0.0,NoAct
1625816887.113,fixation,1,72,0.613,1.0,NoAct
1625816888.0,stimulus,1,73,,0.0,NoAct
1625816889.048,fixation,1,73,0.548,1.0,NoAct
1625816890.0,stimulus,1,74,,0.0,NoAct
1625816890.859,fixation,1,74,0.359,0.0,NoAct
1625816892.0,stimulus,1,75,,0.0,NoAct
1625816892.857,fixation,1,75,0.357,1.0,NoAct
1625816894.0,stimulus,1,76,,0.0,NoAct
1625816894.956,fixation,1,76,0.456,1.0,NoAct
1625816896.0,stimulus,1,77,,0.0,NoAct
1625816896.827,fixation,1,77,0.327,1.0,NoAct
1625816898.0,stimulus,1,78,,0.0,NoAct
1625816899.138,fixation,1,78,0.638,1.0,NoAct
1625816900.0,stimulus,1,79,,0.0,NoAct
1625816901.196,fixation,1,79,0.696,1.0,NoAct
1625816902.0,stimulus,1,80,,0.0,NoAct
1625816902.974,fixation,1,80,0.474,1.0,NoAct
1625816904.0,stimulus,1,81,,0.0,NoAct
1625816905.149,fixation,1,81,0.649,1.0,NoAct
1625816906.0,stimulus,1,82,,0.0,NoAct
1625816906.843,fixation,1,82,0.343,1.0,NoAct
1625816908.0,stimulus,1,83,,0.0,NoAct
1625816908.958,fixation,1,83,0.458,1.0,NoAct
1625816910.0,stimulus,1,84,,0.0,NoAct
1625816910.945,fixation,1,84,0.445,1.0,NoAct
1625816912.0,stimulus,1,85,,0.0,NoAct
1625816913.134,fixation,1,85,0.634,1.0,NoAct
1625816914.0,stimulus,1,86,,0.0,NoAct
1625816914.991,fixation,1,86,0.491,1.0,NoAct
1625816916.0,stimulus,1,87,,0.0,NoAct
1625816916.978,fixation,1,87,0.478,1.0,NoAct
1625816918.0,stimulus,1,88,,0.0,NoAct
1625816919.274,fixation,1,88,0.774,0.0,NoAct
1625816920.0,stimulus,1,89,,0.0,NoAct
1625816921.256,fixation,1,89,0.756,1.0,NoAct
1625816922.0,stimulus,1,90,,0.0,NoAct
1625816923.179,fixation,1,90,0.679,1.0,NoAct
1625816924.0,stimulus,1,91,,0.0,NoAct
1625816924.998,fixation,1,91,0.498,1.0,NoAct
1625816926.0,stimulus,1,92,,0.0,NoAct
1625816927.092,fixation,1,92,0.592,1.0,NoAct
1625816928.0,stimulus,1,93,,0.0,NoAct
1625816929.013,fixation,1,93,0.513,0.0,NoAct
1625816930.0,stimulus,1,94,,0.0,NoAct
1625816931.155,fixation,1,94,0.655,1.0,NoAct
1625816932.0,stimulus,1,95,,0.0,NoAct
1625816932.872,fixation,1,95,0.372,1.0,NoAct
1625816934.0,stimulus,1,96,,0.0,NoAct
1625816934.887,fixation,1,96,0.387,1.0,NoAct
1625816936.0,stimulus,1,97,,0.0,NoAct
1625816936.824,fixation,1,97,0.324,1.0,NoAct
1625816938.0,stimulus,1,98,,0.0,NoAct
1625816938.942,fixation,1,98,0.442,1.0,NoAct
1625816940.0,stimulus,1,99,,0.0,NoAct
1625816940.894,fixation,1,99,0.394,1.0,NoAct
1625816942.0,stimulus,1,100,,0.0,NoAct
1625816942.84,fixation,1,100,0.34,1.0,NoAct
1625816944.0,stimulus,1,101,,0.0,NoAct
1625816944.875,fixation,1,101,0.375,1.0,NoAct
1625816946.0,stimulus,1,102,,0.0,NoAct
1625816946.794,fixation,1,102,0.294,1.0,NoAct
1625816948.0,stimulus,1,103,,0.0,NoAct
1625816949.221,fixation,1,103,0.721,1.0,NoAct
1625816950.0,stimulus,1,104,,0.0,NoAct
1625816950.987,fixation,1,104,0.487,1.0,NoAct
1625816952.0,stimulus,1,105,,0.0,NoAct
1625816952.838,fixation,1,105,0.338,1.0,NoAct
1625816954.0,stimulus,1,106,,0.0,NoAct
1625816954.775,fixation,1,106,0.275,1.0,NoAct
1625816956.0,stimulus,1,107,,0.0,NoAct
1625816956.861,fixation,1,107,0.361,1.0,NoAct
1625816958.0,stimulus,1,108,,0.0,NoAct
1625816958.808,fixation,1,108,0.308,1.0,NoAct
1625816960.0,stimulus,1,109,,0.0,NoAct
1625816960.918,fixation,1,109,0.418,1.0,NoAct
1625816962.0,stimulus,1,110,,0.0,NoAct
1625816963.001,fixation,1,110,0.501,1.0,NoAct
1625816964.0,stimulus,1,111,,0.0,NoAct
1625816964.5,fixation,1,111,,0.0,NoAct
1625816966.0,stimulus,1,112,,0.0,NoAct
1625816966.857,fixation,1,112,0.357,1.0,NoAct
1625816968.0,stimulus,1,113,,0.0,NoAct
1625816968.799,fixation,1,113,0.299,1.0,NoAct
1625816970.0,stimulus,1,114,,0.0,NoAct
1625816970.859,fixation,1,114,0.359,1.0,NoAct
1625816972.0,stimulus,1,115,,0.0,NoAct
1625816972.836,fixation,1,115,0.336,1.0,NoAct
1625816974.0,stimulus,1,116,,0.0,NoAct
1625816974.513,fixation,1,116,0.013,1.0,NoAct
1625816976.0,stimulus,1,117,,0.0,NoAct
1625816976.809,fixation,1,117,0.309,1.0,NoAct
1625816978.0,stimulus,1,118,,0.0,NoAct
1625816978.83,fixation,1,118,0.33,1.0,NoAct
1625816980.0,stimulus,1,119,,0.0,NoAct
1625816980.708,fixation,1,119,0.208,1.0,NoAct
1625816982.0,stimulus,1,120,,0.0,NoAct
1625816982.839,fixation,1,120,0.339,1.0,NoAct
1625816984.0,stimulus,1,121,,0.0,NoAct
1625816984.753,fixation,1,121,0.253,1.0,NoAct
1625816986.0,stimulus,1,122,,0.0,NoAct
1625816986.806,fixation,1,122,0.306,1.0,NoAct
1625816988.0,stimulus,1,123,,0.0,NoAct
1625816988.819,fixation,1,123,0.319,1.0,NoAct
1625816990.0,stimulus,1,124,,0.0,NoAct
1625816990.804,fixation,1,124,0.304,1.0,NoAct
1625816992.0,stimulus,1,125,,0.0,NoAct
1625816992.685,fixation,1,125,0.185,1.0,NoAct
1625816994.0,stimulus,1,126,,0.0,NoAct
1625816994.787,fixation,1,126,0.287,1.0,NoAct
1625816996.0,stimulus,1,127,,0.0,NoAct
1625816996.875,fixation,1,127,0.375,1.0,NoAct
1625816998.0,stimulus,1,128,,0.0,NoAct
1625816998.951,fixation,1,128,0.451,1.0,NoAct
1625817000.0,stimulus,1,129,,0.0,NoAct
1625817000.872,fixation,1,129,0.372,1.0,NoAct
1625817002.0,stimulus,1,130,,0.0,NoAct
1625817002.785,fixation,1,130,0.285,1.0,NoAct
1625817004.0,stimulus,1,131,,0.0,NoAct
1625817004.747,fixation,1,131,0.247,1.0,NoAct
1625817006.0,stimulus,1,132,,0.0,NoAct
1625817006.804,fixation,1,132,0.304,1.0,NoAct
1625817008.0,stimulus,1,133,,0.0,NoAct
1625817009.37,fixation,1,133,0.87,1.0,NoAct
1625817010.0,stimulus,1,134,,0.0,NoAct
1625817010.844,fixation,1,134,0.344,1.0,NoAct
1625817012.0,stimulus,1,135,,0.0,NoAct
1625817012.816,fixation,1,135,0.316,1.0,NoAct
1625817014.0,stimulus,1,136,,0.0,NoAct
1625817015.032,fixation,1,136,0.532,1.0,NoAct
1625817016.0,stimulus,1,137,,0.0,NoAct
1625817016.973,fixation,1,137,0.473,1.0,NoAct
1625817018.0,stimulus,1,138,,0.0,NoAct
1625817018.801,fixation,1,138,0.301,1.0,NoAct
1625817020.0,stimulus,1,139,,0.0,NoAct
1625817020.738,fixation,1,139,0.238,1.0,NoAct
1625817022.0,stimulus,1,140,,0.0,NoAct
1625817022.825,fixation,1,140,0.325,1.0,NoAct
1625817024.0,stimulus,1,141,,0.0,NoAct
1625817025.16,fixation,1,141,0.66,1.0,NoAct
1625817026.0,stimulus,1,142,,0.0,NoAct
1625817027.097,fixation,1,142,0.597,1.0,NoAct
1625817028.0,stimulus,1,143,,0.0,NoAct
1625817028.886,fixation,1,143,0.386,1.0,NoAct
1625817030.0,stimulus,1,144,,0.0,NoAct
1625817030.988,fixation,1,144,0.488,1.0,NoAct
1625817032.0,stimulus,1,145,,0.0,NoAct
1625817032.871,fixation,1,145,0.371,0.0,NoAct
1625817034.0,stimulus,1,146,,0.0,NoAct
1625817034.794,fixation,1,146,0.294,1.0,NoAct
1625817036.0,stimulus,1,147,,0.0,NoAct
1625817036.904,fixation,1,147,0.404,0.0,NoAct
1625817038.0,stimulus,1,148,,0.0,NoAct
1625817038.855,fixation,1,148,0.355,1.0,NoAct
1625817040.0,stimulus,1,149,,0.0,NoAct
1625817040.841,fixation,1,149,0.341,1.0,NoAct
1625817042.0,stimulus,1,150,,0.0,NoAct
1625817042.924,fixation,1,150,0.424,1.0,NoAct
1625817044.0,stimulus,1,151,,0.0,NoAct
1625817044.724,fixation,1,151,0.224,1.0,NoAct
1625817046.0,stimulus,1,152,,0.0,NoAct
1625817047.05,fixation,1,152,0.55,1.0,NoAct
1625817048.0,stimulus,1,153,,0.0,NoAct
1625817049.153,fixation,1,153,0.653,1.0,NoAct
1625817050.0,stimulus,1,154,,0.0,NoAct
1625817050.749,fixation,1,154,0.249,1.0,NoAct
1625817052.0,stimulus,1,155,,0.0,NoAct
1625817052.5,fixation,1,155,,0.0,NoAct
1625817054.0,stimulus,1,156,,0.0,NoAct
1625817055.274,fixation,1,156,0.774,1.0,NoAct
1625817056.0,stimulus,1,157,,0.0,NoAct
1625817056.846,fixation,1,157,0.346,1.0,NoAct
1625817058.0,stimulus,1,158,,0.0,NoAct
1625817058.735,fixation,1,158,0.235,1.0,NoAct
1625817060.0,stimulus,1,159,,0.0,NoAct
1625817060.766,fixation,1,159,0.266,1.0,NoAct
1625817062.0,stimulus,1,160,,0.0,NoAct
1625817062.5,fixation,1,160,,0.0,NoAct
1625817064.0,stimulus,1,161,,0.0,NoAct
1625817064.98,fixation,1,161,0.48,0.0,NoAct
1625817066.344,stimulus,1,162,0.344,0.0,NoAct
1625817066.5,fixation,1,162,,0.0,NoAct
1625817068.0,stimulus,1,163,,0.0,NoAct
1625817068.772,fixation,1,163,0.272,1.0,NoAct
1625817070.0,stimulus,1,164,,0.0,NoAct
1625817070.861,fixation,1,164,0.361,1.0,NoAct
1625817072.0,stimulus,1,165,,0.0,NoAct
1625817072.57,fixation,1,165,0.07,0.0,NoAct
1625817074.451,stimulus,1,166,0.451,1.0,NoAct
1625817074.5,fixation,1,166,,0.0,NoAct
1625817076.0,stimulus,1,167,,0.0,NoAct
1625817076.564,fixation,1,167,0.064,1.0,NoAct
1625817078.0,stimulus,1,168,,0.0,NoAct
1625817078.789,fixation,1,168,0.289,1.0,NoAct
1625817080.0,stimulus,1,169,,0.0,NoAct
1625817080.754,fixation,1,169,0.254,1.0,NoAct
1625817082.0,stimulus,1,170,,0.0,NoAct
1625817082.626,fixation,1,170,0.126,1.0,NoAct
1625817084.0,stimulus,1,171,,0.0,NoAct
1625817084.712,fixation,1,171,0.212,1.0,NoAct
1625817086.0,stimulus,1,172,,0.0,NoAct
1625817086.873,fixation,1,172,0.373,1.0,NoAct
1625817088.0,stimulus,1,173,,0.0,NoAct
1625817088.725,fixation,1,173,0.225,1.0,NoAct
1625817090.0,stimulus,1,174,,0.0,NoAct
1625817090.696,fixation,1,174,0.196,1.0,NoAct
1625817092.0,stimulus,1,175,,0.0,NoAct
1625817092.778,fixation,1,175,0.278,0.0,NoAct
1625817094.0,stimulus,1,176,,0.0,NoAct
1625817094.758,fixation,1,176,0.258,1.0,NoAct
1625817096.0,stimulus,1,177,,0.0,NoAct
1625817096.5,fixation,1,177,,0.0,NoAct
1625817098.0,stimulus,1,178,,0.0,NoAct
1625817098.96,fixation,1,178,0.46,1.0,NoAct
1625817100.0,stimulus,1,179,,0.0,NoAct
1625817100.816,fixation,1,179,0.316,1.0,NoAct
1625817102.0,stimulus,1,180,,0.0,NoAct
1625817102.837,fixation,1,180,0.337,1.0,NoAct
1625817104.0,stimulus,1,181,,0.0,NoAct
1625817104.741,fixation,1,181,0.241,1.0,NoAct
1625817106.0,stimulus,1,182,,0.0,NoAct
1625817106.872,fixation,1,182,0.372,1.0,NoAct
1625817108.0,stimulus,1,183,,0.0,NoAct
1625817108.741,fixation,1,183,0.241,1.0,NoAct
1625817110.0,stimulus,1,184,,0.0,NoAct
1625817110.788,fixation,1,184,0.288,1.0,NoAct
1625817112.0,stimulus,1,185,,0.0,NoAct
1625817112.68,fixation,1,185,0.18,1.0,NoAct
1625817114.0,stimulus,1,186,,0.0,NoAct
1625817114.812,fixation,1,186,0.312,1.0,NoAct
1625817116.0,stimulus,1,187,,0.0,NoAct
1625817116.665,fixation,1,187,0.165,1.0,NoAct
1625817118.0,stimulus,1,188,,0.0,NoAct
1625817118.708,fixation,1,188,0.208,1.0,NoAct
1625817120.0,stimulus,1,189,,0.0,NoAct
1625817120.706,fixation,1,189,0.206,1.0,NoAct
1625817122.0,stimulus,1,190,,0.0,NoAct
1625817122.783,fixation,1,190,0.283,1.0,NoAct
1625817124.0,stimulus,1,191,,0.0,NoAct
1625817124.692,fixation,1,191,0.192,1.0,NoAct
1625817126.0,stimulus,1,192,,0.0,NoAct
1625817126.761,fixation,1,192,0.261,1.0,NoAct
1625817128.0,stimulus,1,193,,0.0,NoAct
1625817129.134,fixation,1,193,0.634,1.0,NoAct
1625817130.0,stimulus,1,194,,0.0,NoAct
1625817130.754,fixation,1,194,0.254,1.0,NoAct
1625817132.0,stimulus,1,195,,0.0,NoAct
1625817132.763,fixation,1,195,0.263,1.0,NoAct
1625817134.0,stimulus,1,196,,0.0,NoAct
1625817134.8,fixation,1,196,0.3,1.0,NoAct
1625817136.0,stimulus,1,197,,0.0,NoAct
1625817136.795,fixation,1,197,0.295,1.0,NoAct
1625817138.0,stimulus,1,198,,0.0,NoAct
1625817138.707,fixation,1,198,0.207,1.0,NoAct
1625817140.0,stimulus,1,199,,0.0,NoAct
1625817140.5,fixation,1,199,,0.0,NoAct
1625817142.0,stimulus,1,200,,0.0,NoAct
1625817142.999,fixation,1,200,0.499,1.0,NoAct
1625817144.0,stimulus,1,201,,0.0,NoAct
1625817144.958,fixation,1,201,0.458,1.0,NoAct
1625817146.0,stimulus,1,202,,0.0,NoAct
1625817146.856,fixation,1,202,0.356,1.0,NoAct
1625817148.0,stimulus,1,203,,0.0,NoAct
1625817148.724,fixation,1,203,0.224,1.0,NoAct
1625817150.0,stimulus,1,204,,0.0,NoAct
1625817151.074,fixation,1,204,0.574,1.0,NoAct
1625817152.0,stimulus,1,205,,0.0,NoAct
1625817153.167,fixation,1,205,0.667,1.0,NoAct
1625817154.0,stimulus,1,206,,0.0,NoAct
1625817154.916,fixation,1,206,0.416,1.0,NoAct
1625817156.0,stimulus,1,207,,0.0,NoAct
1625817157.359,fixation,1,207,0.859,1.0,NoAct
1625817158.0,stimulus,1,208,,0.0,NoAct
1625817158.962,fixation,1,208,0.462,1.0,NoAct
1625817160.0,stimulus,1,209,,0.0,NoAct
1625817160.867,fixation,1,209,0.367,1.0,NoAct
1625817162.0,stimulus,1,210,,0.0,NoAct
1625817162.818,fixation,1,210,0.318,1.0,NoAct
1625817164.0,stimulus,1,211,,0.0,NoAct
1625817164.905,fixation,1,211,0.405,1.0,NoAct
1625817166.0,stimulus,1,212,,0.0,NoAct
1625817166.722,fixation,1,212,0.222,1.0,NoAct
1625817168.0,stimulus,1,213,,0.0,NoAct
1625817169.035,fixation,1,213,0.535,1.0,NoAct
1625817170.0,stimulus,1,214,,0.0,NoAct
1625817171.104,fixation,1,214,0.604,1.0,NoAct
1625817172.0,stimulus,1,215,,0.0,NoAct
1625817172.871,fixation,1,215,0.371,1.0,NoAct
1625817174.0,stimulus,1,216,,0.0,NoAct
1625817175.414,fixation,1,216,0.914,1.0,NoAct
1625817176.0,stimulus,1,217,,0.0,NoAct
1625817176.841,fixation,1,217,0.341,0.0,NoAct
1625817178.0,stimulus,1,218,,0.0,NoAct
1625817178.905,fixation,1,218,0.405,1.0,NoAct
1625817180.0,stimulus,1,219,,0.0,NoAct
1625817180.77,fixation,1,219,0.27,1.0,NoAct
1625817182.0,stimulus,1,220,,0.0,NoAct
1625817182.921,fixation,1,220,0.421,1.0,NoAct
1625817184.0,stimulus,1,221,,,NoAct
1625817184.5,fixation,1,221,,,NoAct
1625817186.0,stimulus,1,222,,0.0,NoAct
1625817186.5,fixation,1,222,,0.0,NoAct
1625817188.0,stimulus,1,223,,0.0,NoAct
1625817188.848,fixation,1,223,0.348,1.0,NoAct
1625817190.0,stimulus,1,224,,0.0,NoAct
1625817190.756,fixation,1,224,0.256,1.0,NoAct
1625817192.0,stimulus,1,225,,0.0,NoAct
1625817192.874,fixation,1,225,0.374,1.0,NoAct
1625817194.0,stimulus,1,226,,0.0,NoAct
1625817194.963,fixation,1,226,0.463,1.0,NoAct
1625817196.0,stimulus,1,227,,0.0,NoAct
1625817196.713,fixation,1,227,0.213,1.0,NoAct
1625817198.0,stimulus,1,228,,0.0,NoAct
1625817198.764,fixation,1,228,0.264,1.0,NoAct
1625817200.0,stimulus,1,229,,0.0,NoAct
1625817200.757,fixation,1,229,0.257,1.0,NoAct
1625817202.0,stimulus,1,230,,0.0,NoAct
1625817202.794,fixation,1,230,0.294,0.0,NoAct
1625817204.0,stimulus,1,231,,0.0,NoAct
1625817204.64,fixation,1,231,0.14,1.0,NoAct
1625817206.0,stimulus,1,232,,0.0,NoAct
1625817206.934,fixation,1,232,0.434,1.0,NoAct
1625817208.0,stimulus,1,233,,0.0,NoAct
1625817208.771,fixation,1,233,0.271,0.0,NoAct
1625817210.0,stimulus,1,234,,0.0,NoAct
1625817210.907,fixation,1,234,0.407,1.0,NoAct
1625817212.0,stimulus,1,235,,0.0,NoAct
1625817212.795,fixation,1,235,0.295,0.0,NoAct
1625817214.0,stimulus,1,236,,0.0,NoAct
1625817214.889,fixation,1,236,0.389,1.0,NoAct
1625817216.0,stimulus,1,237,,0.0,NoAct
1625817216.837,fixation,1,237,0.337,1.0,NoAct
1625817218.0,stimulus,1,238,,0.0,NoAct
1625817218.786,fixation,1,238,0.286,1.0,NoAct
1625817220.0,stimulus,1,239,,0.0,NoAct
1625817220.775,fixation,1,239,0.275,1.0,NoAct
1625817222.0,stimulus,1,240,,0.0,NoAct
1625817223.589,fixation,1,240,1.089,0.0,NoAct
1625817224.0,stimulus,1,241,,0.0,NoAct
1625817225.423,fixation,1,241,0.923,1.0,NoAct
1625817226.0,stimulus,1,242,,0.0,NoAct
1625817226.79,fixation,1,242,0.29,1.0,NoAct
1625817228.0,stimulus,1,243,,0.0,NoAct
1625817228.873,fixation,1,243,0.373,1.0,NoAct
1625817230.0,stimulus,1,244,,0.0,NoAct
1625817230.5,fixation,1,244,,0.0,NoAct
1625817232.0,stimulus,1,245,,0.0,NoAct
1625817232.5,fixation,1,245,,0.0,NoAct
1625817234.0,stimulus,1,246,,0.0,NoAct
1625817234.977,fixation,1,246,0.477,1.0,NoAct
1625817236.0,stimulus,1,247,,0.0,NoAct
1625817236.807,fixation,1,247,0.307,1.0,NoAct
1625817238.0,stimulus,1,248,,0.0,NoAct
1625817238.784,fixation,1,248,0.284,1.0,NoAct
1625817240.0,stimulus,1,249,,0.0,NoAct
1625817240.725,fixation,1,249,0.225,1.0,NoAct
1625817242.0,stimulus,1,250,,0.0,NoAct
1625817242.841,fixation,1,250,0.341,1.0,NoAct
1625817244.0,stimulus,1,251,,0.0,NoAct
1625817244.767,fixation,1,251,0.267,1.0,NoAct
1625817246.0,stimulus,1,252,,0.0,NoAct
1625817246.808,fixation,1,252,0.308,1.0,NoAct
1625817248.0,stimulus,1,253,,0.0,NoAct
1625817248.713,fixation,1,253,0.213,1.0,NoAct
1625817250.0,stimulus,1,254,,0.0,NoAct
1625817250.72,fixation,1,254,0.22,1.0,NoAct
1625817252.0,stimulus,1,255,,0.0,NoAct
1625817252.729,fixation,1,255,0.229,1.0,NoAct
1625817254.0,stimulus,1,256,,0.0,NoAct
1625817254.639,fixation,1,256,0.139,1.0,NoAct
1625817256.0,stimulus,1,257,,0.0,NoAct
1625817256.692,fixation,1,257,0.192,1.0,NoAct
1625817258.0,stimulus,1,258,,0.0,NoAct
1625817258.687,fixation,1,258,0.187,1.0,NoAct
1625817260.0,stimulus,1,259,,0.0,NoAct
1625817260.752,fixation,1,259,0.252,1.0,NoAct
1625817262.0,stimulus,1,260,,0.0,NoAct
1625817262.832,fixation,1,260,0.332,1.0,NoAct
1625817264.0,stimulus,1,261,,0.0,NoAct
1625817264.76,fixation,1,261,0.26,1.0,NoAct
1625817266.0,stimulus,1,262,,0.0,NoAct
1625817266.729,fixation,1,262,0.229,1.0,NoAct
1625817268.0,stimulus,1,263,,0.0,NoAct
1625817268.775,fixation,1,263,0.275,1.0,NoAct
1625817270.0,stimulus,1,264,,0.0,NoAct
1625817270.697,fixation,1,264,0.197,1.0,NoAct
1625817272.0,stimulus,1,265,,0.0,NoAct
1625817272.719,fixation,1,265,0.219,1.0,NoAct
1625817274.0,stimulus,1,266,,0.0,NoAct
1625817274.5,fixation,1,266,,0.0,NoAct
1625817276.0,stimulus,1,267,,0.0,NoAct
1625817277.003,fixation,1,267,0.503,1.0,NoAct
1625817278.0,stimulus,1,268,,0.0,NoAct
1625817279.051,fixation,1,268,0.551,1.0,NoAct
1625817280.0,stimulus,1,269,,0.0,NoAct
1625817280.896,fixation,1,269,0.396,1.0,NoAct
1625817282.0,stimulus,1,270,,0.0,NoAct
1625817282.832,fixation,1,270,0.332,1.0,NoAct
1625817284.0,stimulus,1,271,,0.0,NoAct
1625817284.793,fixation,1,271,0.293,1.0,NoAct
1625817286.0,stimulus,1,272,,0.0,NoAct
1625817286.747,fixation,1,272,0.247,1.0,NoAct
1625817288.0,stimulus,1,273,,0.0,NoAct
1625817288.773,fixation,1,273,0.273,1.0,NoAct
1625817290.0,stimulus,1,274,,0.0,NoAct
1625817290.815,fixation,1,274,0.315,1.0,NoAct
1625817292.0,stimulus,1,275,,0.0,NoAct
1625817293.085,fixation,1,275,0.585,1.0,NoAct
1625817294.0,stimulus,1,276,,0.0,NoAct
1625817294.786,fixation,1,276,0.286,1.0,NoAct
1625817296.0,stimulus,1,277,,0.0,NoAct
1625817296.786,fixation,1,277,0.286,1.0,NoAct
1625817298.0,stimulus,1,278,,0.0,NoAct
1625817298.708,fixation,1,278,0.208,1.0,NoAct
1625817300.0,stimulus,1,279,,0.0,NoAct
1625817300.73,fixation,1,279,0.23,1.0,NoAct
1625817302.0,stimulus,1,280,,0.0,NoAct
1625817302.77,fixation,1,280,0.27,1.0,NoAct
1625817304.0,stimulus,1,281,,0.0,NoAct
1625817304.707,fixation,1,281,0.207,1.0,NoAct
1625817306.0,stimulus,1,282,,0.0,NoAct
1625817306.761,fixation,1,282,0.261,1.0,NoAct
1625817308.0,stimulus,1,283,,0.0,NoAct
1625817308.735,fixation,1,283,0.235,1.0,NoAct
1625817310.0,stimulus,1,284,,0.0,NoAct
1625817310.721,fixation,1,284,0.221,1.0,NoAct
1625817312.0,stimulus,1,285,,0.0,NoAct
1625817312.809,fixation,1,285,0.309,1.0,NoAct
1625817314.0,stimulus,1,286,,0.0,NoAct
1625817314.786,fixation,1,286,0.286,1.0,NoAct
1625817316.0,stimulus,1,287,,0.0,NoAct
1625817316.758,fixation,1,287,0.258,1.0,NoAct
1625817318.0,stimulus,1,288,,0.0,NoAct
1625817318.5,fixation,1,288,,0.0,NoAct
1625817320.0,stimulus,1,289,,0.0,NoAct
1625817321.101,fixation,1,289,0.601,1.0,NoAct
1625817322.0,stimulus,1,290,,0.0,NoAct
1625817322.924,fixation,1,290,0.424,1.0,NoAct
1625817324.0,stimulus,1,291,,0.0,NoAct
1625817324.811,fixation,1,291,0.311,1.0,NoAct
1625817326.0,stimulus,1,292,,0.0,NoAct
1625817326.994,fixation,1,292,0.494,1.0,NoAct
1625817328.0,stimulus,1,293,,0.0,NoAct
1625817329.075,fixation,1,293,0.575,1.0,NoAct
1625817330.0,stimulus,1,294,,0.0,NoAct
1625817330.91,fixation,1,294,0.41,0.0,NoAct
1625817332.0,stimulus,1,295,,0.0,NoAct
1625817332.892,fixation,1,295,0.392,1.0,NoAct
1625817334.0,stimulus,1,296,,0.0,NoAct
1625817334.877,fixation,1,296,0.377,1.0,NoAct
1625817336.0,stimulus,1,297,,0.0,NoAct
1625817337.133,fixation,1,297,0.633,1.0,NoAct
1625817338.0,stimulus,1,298,,0.0,NoAct
1625817339.704,fixation,1,298,1.204,1.0,NoAct
1625817340.0,stimulus,1,299,,0.0,NoAct
1625817341.593,fixation,1,299,1.093,1.0,NoAct
1625817342.0,stimulus,1,300,,0.0,NoAct
1625817343.718,fixation,1,300,1.218,1.0,NoAct
1625817344.0,stimulus,1,301,,0.0,NoAct
1625817345.381,fixation,1,301,0.881,1.0,NoAct
1625817346.0,stimulus,1,302,,0.0,NoAct
1625817346.928,fixation,1,302,0.428,1.0,NoAct
1625817348.0,stimulus,1,303,,0.0,NoAct
1625817349.095,fixation,1,303,0.595,1.0,NoAct
1625817350.0,stimulus,1,304,,0.0,NoAct
1625817351.294,fixation,1,304,0.794,1.0,NoAct
1625817352.0,stimulus,1,305,,0.0,NoAct
1625817353.841,fixation,1,305,1.341,1.0,NoAct
1625817354.0,stimulus,1,306,,0.0,NoAct
1625817354.947,fixation,1,306,0.447,1.0,NoAct
1625817356.0,stimulus,1,307,,0.0,NoAct
1625817357.027,fixation,1,307,0.527,1.0,NoAct
1625817358.0,stimulus,1,308,,0.0,NoAct
1625817359.229,fixation,1,308,0.729,1.0,NoAct
1625817360.0,stimulus,1,309,,0.0,NoAct
1625817360.853,fixation,1,309,0.353,1.0,NoAct
1625817362.0,stimulus,1,310,,0.0,NoAct
1625817362.5,fixation,1,310,,0.0,NoAct
1625817364.246,stimulus,1,311,0.246,1.0,NoAct
1625817364.5,fixation,1,311,,0.0,NoAct
1625817366.0,stimulus,1,312,,0.0,NoAct
1625817366.764,fixation,1,312,0.264,1.0,NoAct
1625817368.0,stimulus,1,313,,0.0,NoAct
1625817368.826,fixation,1,313,0.326,1.0,NoAct
1625817370.0,stimulus,1,314,,0.0,NoAct
1625817370.809,fixation,1,314,0.309,1.0,NoAct
1625817372.0,stimulus,1,315,,0.0,NoAct
1625817372.992,fixation,1,315,0.492,1.0,NoAct
1625817374.0,stimulus,1,316,,0.0,NoAct
1625817375.105,fixation,1,316,0.605,1.0,NoAct
1625817376.0,stimulus,1,317,,0.0,NoAct
1625817377.067,fixation,1,317,0.567,1.0,NoAct
1625817378.0,stimulus,1,318,,0.0,NoAct
1625817378.897,fixation,1,318,0.397,1.0,NoAct
1625817380.0,stimulus,1,319,,0.0,NoAct
1625817380.747,fixation,1,319,0.247,0.0,NoAct
1625817382.0,stimulus,1,320,,0.0,NoAct
1625817382.808,fixation,1,320,0.308,0.0,NoAct
1625817384.0,stimulus,1,321,,0.0,NoAct
1625817384.79,fixation,1,321,0.29,1.0,NoAct
1625817386.0,stimulus,1,322,,0.0,NoAct
1625817386.708,fixation,1,322,0.208,1.0,NoAct
1625817388.0,stimulus,1,323,,0.0,NoAct
1625817388.686,fixation,1,323,0.186,1.0,NoAct
1625817390.0,stimulus,1,324,,0.0,NoAct
1625817390.75,fixation,1,324,0.25,1.0,NoAct
1625817392.0,stimulus,1,325,,0.0,NoAct
1625817393.173,fixation,1,325,0.673,1.0,NoAct
1625817394.0,stimulus,1,326,,0.0,NoAct
1625817394.972,fixation,1,326,0.472,1.0,NoAct
1625817396.0,stimulus,1,327,,0.0,NoAct
1625817396.834,fixation,1,327,0.334,1.0,NoAct
1625817398.0,stimulus,1,328,,0.0,NoAct
1625817398.736,fixation,1,328,0.236,1.0,NoAct
1625817400.0,stimulus,1,329,,0.0,NoAct
1625817400.786,fixation,1,329,0.286,1.0,NoAct
1625817402.0,stimulus,1,330,,0.0,NoAct
1625817402.821,fixation,1,330,0.321,1.0,NoAct
1625817404.0,stimulus,1,331,,0.0,NoAct
1625817404.588,fixation,1,331,0.088,1.0,NoAct
1625817406.0,stimulus,1,332,,0.0,NoAct
1625817406.5,fixation,1,332,,0.0,NoAct
1625817408.0,stimulus,1,333,,0.0,NoAct
1625817409.041,fixation,1,333,0.541,1.0,NoAct
1625817410.0,stimulus,1,334,,0.0,NoAct
1625817410.831,fixation,1,334,0.331,1.0,NoAct
1625817412.0,stimulus,1,335,,0.0,NoAct
1625817412.772,fixation,1,335,0.272,1.0,NoAct
1625817414.0,stimulus,1,336,,0.0,NoAct
1625817414.874,fixation,1,336,0.374,1.0,NoAct
1625817416.0,stimulus,1,337,,0.0,NoAct
1625817416.634,fixation,1,337,0.134,1.0,NoAct
1625817418.0,stimulus,1,338,,0.0,NoAct
1625817418.748,fixation,1,338,0.248,1.0,NoAct
1625817420.0,stimulus,1,339,,0.0,NoAct
1625817420.644,fixation,1,339,0.144,0.0,NoAct
1625817422.0,stimulus,1,340,,0.0,NoAct
1625817422.801,fixation,1,340,0.301,1.0,NoAct
1625817424.0,stimulus,1,341,,0.0,NoAct
1625817425.116,fixation,1,341,0.616,0.0,NoAct
1625817426.0,stimulus,1,342,,0.0,NoAct
1625817426.607,fixation,1,342,0.107,1.0,NoAct
1625817428.0,stimulus,1,343,,0.0,NoAct
1625817428.785,fixation,1,343,0.285,1.0,NoAct
1625817430.0,stimulus,1,344,,0.0,NoAct
1625817430.789,fixation,1,344,0.289,1.0,NoAct
1625817432.0,stimulus,1,345,,0.0,NoAct
1625817433.049,fixation,1,345,0.549,1.0,NoAct
1625817434.0,stimulus,1,346,,0.0,NoAct
1625817434.649,fixation,1,346,0.149,1.0,NoAct
1625817436.0,stimulus,1,347,,0.0,NoAct
1625817437.007,fixation,1,347,0.507,1.0,NoAct
1625817438.0,stimulus,1,348,,0.0,NoAct
1625817438.853,fixation,1,348,0.353,1.0,NoAct
1625817440.0,stimulus,1,349,,0.0,NoAct
1625817440.712,fixation,1,349,0.212,1.0,NoAct
1625817442.0,stimulus,1,350,,0.0,NoAct
1625817442.729,fixation,1,350,0.229,1.0,NoAct
1625817444.0,stimulus,1,351,,0.0,NoAct
1625817444.718,fixation,1,351,0.218,1.0,NoAct
1625817446.0,stimulus,1,352,,0.0,NoAct
1625817446.662,fixation,1,352,0.162,1.0,NoAct
1625817448.0,stimulus,1,353,,0.0,NoAct
1625817448.801,fixation,1,353,0.301,1.0,NoAct
1625817450.0,stimulus,1,354,,0.0,NoAct
1625817450.5,fixation,1,354,,0.0,NoAct
1625817452.0,stimulus,1,355,,0.0,NoAct
1625817453.156,fixation,1,355,0.656,1.0,NoAct
1625817454.0,stimulus,1,356,,0.0,NoAct
1625817454.856,fixation,1,356,0.356,1.0,NoAct
1625817456.0,stimulus,1,357,,0.0,NoAct
1625817456.717,fixation,1,357,0.217,1.0,NoAct
1625817458.0,stimulus,1,358,,0.0,NoAct
1625817458.921,fixation,1,358,0.421,1.0,NoAct
1625817460.0,stimulus,1,359,,0.0,NoAct
1625817460.765,fixation,1,359,0.265,1.0,NoAct
1625817462.0,stimulus,1,360,,0.0,NoAct
1625817462.803,fixation,1,360,0.303,1.0,NoAct
1625817464.0,stimulus,1,361,,0.0,NoAct
1625817464.738,fixation,1,361,0.238,1.0,NoAct
1625817466.0,stimulus,1,362,,0.0,NoAct
1625817467.093,fixation,1,362,0.593,1.0,NoAct
1625817468.0,stimulus,1,363,,0.0,NoAct
1625817468.868,fixation,1,363,0.368,1.0,NoAct
1625817470.0,stimulus,1,364,,0.0,NoAct
1625817470.768,fixation,1,364,0.268,0.0,NoAct
1625817472.0,stimulus,1,365,,0.0,NoAct
1625817472.699,fixation,1,365,0.199,1.0,NoAct
1625817474.0,stimulus,1,366,,0.0,NoAct
1625817474.765,fixation,1,366,0.265,1.0,NoAct
1625817476.0,stimulus,1,367,,0.0,NoAct
1625817476.961,fixation,1,367,0.461,1.0,NoAct
1625817478.0,stimulus,1,368,,0.0,NoAct
1625817478.965,fixation,1,368,0.465,1.0,NoAct
1625817480.0,stimulus,1,369,,0.0,NoAct
1625817480.906,fixation,1,369,0.406,1.0,NoAct
1625817482.0,stimulus,1,370,,0.0,NoAct
1625817482.979,fixation,1,370,0.479,1.0,NoAct
1625817484.0,stimulus,1,371,,0.0,NoAct
1625817485.042,fixation,1,371,0.542,1.0,NoAct
1625817486.0,stimulus,1,372,,0.0,NoAct
1625817487.076,fixation,1,372,0.576,1.0,NoAct
1625817488.0,stimulus,1,373,,0.0,NoAct
1625817488.956,fixation,1,373,0.456,1.0,NoAct
1625817490.0,stimulus,1,374,,0.0,NoAct
1625817490.853,fixation,1,374,0.353,1.0,NoAct
1625817492.0,stimulus,1,375,,0.0,NoAct
1625817492.984,fixation,1,375,0.484,1.0,NoAct
1625817494.0,stimulus,1,376,,0.0,NoAct
1625817494.5,fixation,1,376,,0.0,NoAct
1625817496.0,stimulus,1,377,,0.0,NoAct
1625817497.033,fixation,1,377,0.533,1.0,NoAct
1625817498.0,stimulus,1,378,,0.0,NoAct
1625817498.797,fixation,1,378,0.297,1.0,NoAct
1625817500.0,stimulus,1,379,,0.0,NoAct
1625817500.868,fixation,1,379,0.368,1.0,NoAct
1625817502.0,stimulus,1,380,,0.0,NoAct
1625817502.812,fixation,1,380,0.312,1.0,NoAct
1625817504.0,stimulus,1,381,,0.0,NoAct
1625817504.685,fixation,1,381,0.185,1.0,NoAct
1625817506.0,stimulus,1,382,,0.0,NoAct
1625817506.849,fixation,1,382,0.349,0.0,NoAct
1625817508.0,stimulus,1,383,,0.0,NoAct
1625817508.858,fixation,1,383,0.358,1.0,NoAct
1625817510.0,stimulus,1,384,,0.0,NoAct
1625817510.787,fixation,1,384,0.287,1.0,NoAct
1625817512.0,stimulus,1,385,,0.0,NoAct
1625817512.931,fixation,1,385,0.431,1.0,NoAct
1625817514.0,stimulus,1,386,,0.0,NoAct
1625817515.455,fixation,1,386,0.955,0.0,NoAct
1625817516.0,stimulus,1,387,,0.0,NoAct
1625817516.801,fixation,1,387,0.301,1.0,NoAct
1625817518.0,stimulus,1,388,,0.0,NoAct
1625817518.747,fixation,1,388,0.247,1.0,NoAct
1625817520.0,stimulus,1,389,,0.0,NoAct
1625817520.923,fixation,1,389,0.423,1.0,NoAct
1625817522.0,stimulus,1,390,,0.0,NoAct
1625817522.631,fixation,1,390,0.131,1.0,NoAct
1625817524.0,stimulus,1,391,,0.0,NoAct
1625817524.746,fixation,1,391,0.246,1.0,NoAct
1625817526.0,stimulus,1,392,,0.0,NoAct
1625817526.677,fixation,1,392,0.177,1.0,NoAct
1625817528.0,stimulus,1,393,,0.0,NoAct
1625817528.69,fixation,1,393,0.19,1.0,NoAct
1625817530.0,stimulus,1,394,,0.0,NoAct
1625817530.813,fixation,1,394,0.313,1.0,NoAct
1625817532.0,stimulus,1,395,,0.0,NoAct
1625817532.691,fixation,1,395,0.191,1.0,NoAct
1625817534.0,stimulus,1,396,,0.0,NoAct
1625817534.822,fixation,1,396,0.322,1.0,NoAct
1625817536.0,stimulus,1,397,,0.0,NoAct
1625817536.8,fixation,1,397,0.3,1.0,NoAct
1625817538.0,stimulus,1,398,,,PerfumeSession
1625817538.5,fixation,1,398,,,PerfumeSession
1625817540.0,stimulus,1,399,,,PerfumeSession
1625817540.5,fixation,1,399,,,PerfumeSession
1625817542.0,stimulus,1,400,,,PerfumeSession
1625817542.5,fixation,1,400,,,PerfumeSession
1625817544.0,stimulus,1,401,,,PerfumeSession
1625817544.5,fixation,1,401,,,PerfumeSession
1625817546.0,stimulus,1,402,,,PerfumeSession
1625817546.5,fixation,1,402,,,PerfumeSession
1625817548.0,stimulus,1,403,,,PerfumeSession
1625817548.5,fixation,1,403,,,PerfumeSession
1625817550.0,stimulus,1,404,,,PerfumeSession
1625817550.5,fixation,1,404,,,PerfumeSession
1625817552.0,stimulus,1,405,,,PerfumeSession
1625817552.5,fixation,1,405,,,PerfumeSession
1625817554.0,stimulus,1,406,,,PerfumeSession
1625817554.5,fixation,1,406,,,PerfumeSession
1625817556.0,stimulus,1,407,,,PerfumeSession
1625817556.5,fixation,1,407,,,PerfumeSession
1625817558.0,stimulus,1,408,,,PerfumeSession
1625817558.5,fixation,1,408,,,PerfumeSession
1625817560.0,stimulus,1,409,,,PerfumeSession
1625817560.5,fixation,1,409,,,PerfumeSession
1625817562.0,stimulus,1,410,,,PerfumeSession
1625817562.5,fixation,1,410,,,PerfumeSession
1625817564.0,stimulus,1,411,,,PerfumeSession
1625817564.5,fixation,1,411,,,PerfumeSession
1625817566.0,stimulus,1,412,,,PerfumeSession
1625817566.5,fixation,1,412,,,PerfumeSession
1625817568.0,stimulus,1,413,,,PerfumeSession
1625817568.5,fixation,1,413,,,PerfumeSession
1625817570.0,stimulus,1,414,,,PerfumeSession
1625817570.5,fixation,1,414,,,PerfumeSession
1625817572.0,stimulus,1,415,,,PerfumeSession
1625817572.5,fixation,1,415,,,PerfumeSession
1625817574.0,stimulus,1,416,,,PerfumeSession
1625817574.5,fixation,1,416,,,PerfumeSession
1625817576.0,stimulus,1,417,,,PerfumeSession
1625817576.5,fixation,1,417,,,PerfumeSession
1625817578.0,stimulus,1,418,,,PerfumeSession
1625817578.5,fixation,1,418,,,PerfumeSession
1625817580.0,stimulus,1,419,,,PerfumeSession
1625817580.5,fixation,1,419,,,PerfumeSession
1625817582.0,stimulus,1,420,,,PerfumeSession
1625817582.5,fixation,1,420,,,PerfumeSession
1625817584.0,stimulus,1,421,,,PerfumeSession
1625817584.5,fixation,1,421,,,PerfumeSession
1625817586.0,stimulus,1,422,,,PerfumeSession
1625817586.5,fixation,1,422,,,PerfumeSession
1625817588.0,stimulus,1,423,,,PerfumeSession
1625817588.5,fixation,1,423,,,PerfumeSession
1625817590.0,stimulus,1,424,,,PerfumeSession
1625817590.5,fixation,1,424,,,PerfumeSession
1625817592.0,stimulus,1,425,,,PerfumeSession
1625817592.5,fixation,1,425,,,PerfumeSession
1625817594.0,stimulus,1,426,,,PerfumeSession
1625817594.5,fixation,1,426,,,PerfumeSession
1625817596.0,stimulus,1,427,,,PerfumeSession
1625817596.5,fixation,1,427,,,PerfumeSession
1625817598.0,stimulus,1,428,,,PerfumeSession
1625817598.5,fixation,1,428,,,PerfumeSession
1625817600.0,stimulus,1,429,,,PerfumeSession
1625817600.5,fixation,1,429,,,PerfumeSession
1625817602.0,stimulus,1,430,,,PerfumeSession
1625817602.5,fixation,1,430,,,PerfumeSession
1625817604.0,stimulus,1,431,,,PerfumeSession
1625817604.5,fixation,1,431,,,PerfumeSession
1625817606.0,stimulus,1,432,,,PerfumeSession
1625817606.5,fixation,1,432,,,PerfumeSession
1625817608.0,stimulus,1,433,,,PerfumeSession
1625817608.5,fixation,1,433,,,PerfumeSession
1625817610.0,stimulus,1,434,,,PerfumeSession
1625817610.5,fixation,1,434,,,PerfumeSession
1625817612.0,stimulus,1,435,,,PerfumeSession
1625817612.5,fixation,1,435,,,PerfumeSession
1625817614.0,stimulus,1,436,,,PerfumeSession
1625817614.5,fixation,1,436,,,PerfumeSession
1625817616.0,stimulus,1,437,,,PerfumeSession
1625817616.5,fixation,1,437,,,PerfumeSession
1625817618.0,stimulus,1,438,,,PerfumeSession
1625817618.5,fixation,1,438,,,PerfumeSession
1625817620.0,stimulus,1,439,,,PerfumeSession
1625817620.5,fixation,1,439,,,PerfumeSession
1625817622.0,stimulus,1,440,,,PerfumeSession
1625817622.5,fixation,1,440,,,PerfumeSession
1625817624.0,stimulus,1,441,,,PerfumeSession
1625817624.5,fixation,1,441,,,PerfumeSession
1625817626.0,stimulus,1,442,,,PerfumeSession
1625817626.5,fixation,1,442,,,PerfumeSession
1625817628.0,stimulus,1,443,,,PerfumeSession
1625817628.5,fixation,1,443,,,PerfumeSession
1625817630.0,stimulus,1,444,,,PerfumeSession
1625817630.5,fixation,1,444,,,PerfumeSession
1625817632.0,stimulus,1,445,,,PerfumeSession
1625817632.5,fixation,1,445,,,PerfumeSession
1625817634.0,stimulus,1,446,,,PerfumeSession
1625817634.5,fixation,1,446,,,PerfumeSession
1625817636.0,stimulus,1,447,,,PerfumeSession
1625817636.5,fixation,1,447,,,PerfumeSession
1625817638.0,stimulus,1,448,,,PerfumeSession
1625817638.5,fixation,1,448,,,PerfumeSession
1625817640.0,stimulus,1,449,,,PerfumeSession
1625817640.5,fixation,1,449,,,PerfumeSession
1625817642.0,stimulus,1,450,,,PerfumeSession
1625817642.5,fixation,1,450,,,PerfumeSession
1625817644.0,stimulus,1,451,,,PerfumeSession
1625817644.5,fixation,1,451,,,PerfumeSession
1625817646.0,stimulus,1,452,,,PerfumeSession
1625817646.5,fixation,1,452,,,PerfumeSession
1625817648.0,stimulus,1,453,,,PerfumeSession
1625817648.5,fixation,1,453,,,PerfumeSession
1625817650.0,stimulus,1,454,,,PerfumeSession
1625817650.5,fixation,1,454,,,PerfumeSession
1625817652.0,stimulus,1,455,,,PerfumeSession
1625817652.5,fixation,1,455,,,PerfumeSession
1625817654.0,stimulus,1,456,,,PerfumeSession
1625817654.5,fixation,1,456,,,PerfumeSession
1625817656.0,stimulus,1,457,,,PerfumeSession
1625817656.5,fixation,1,457,,,PerfumeSession
1625817658.0,stimulus,1,458,,,PerfumeSession
1625817658.5,fixation,1,458,,,PerfumeSession
1625817660.0,stimulus,1,459,,,PerfumeSession
1625817660.5,fixation,1,459,,,PerfumeSession
1625817662.0,stimulus,1,460,,,PerfumeSession
1625817662.5,fixation,1,460,,,PerfumeSession
1625817664.0,stimulus,1,461,,,PerfumeSession
1625817664.5,fixation,1,461,,,PerfumeSession
1625817666.0,stimulus,1,462,,,PerfumeSession
1625817666.5,fixation,1,462,,,PerfumeSession
1625817668.0,stimulus,1,463,,,PerfumeSession
1625817668.5,fixation,1,463,,,PerfumeSession
1625817670.0,stimulus,1,464,,,PerfumeSession
1625817670.5,fixation,1,464,,,PerfumeSession
1625817672.0,stimulus,1,465,,,PerfumeSession
1625817672.5,fixation,1,465,,,PerfumeSession
1625817674.0,stimulus,1,466,,,PerfumeSession
1625817674.5,fixation,1,466,,,PerfumeSession
1625817676.0,stimulus,1,467,,,PerfumeSession
1625817676.5,fixation,1,467,,,PerfumeSession
1625817678.0,stimulus,1,468,,,PerfumeSession
1625817678.5,fixation,1,468,,,PerfumeSession
1625817680.0,stimulus,1,469,,,PerfumeSession
1625817680.5,fixation,1,469,,,PerfumeSession
1625817682.0,stimulus,1,470,,,PerfumeSession
1625817682.5,fixation,1,470,,,PerfumeSession
1625817684.0,stimulus,1,471,,,PerfumeSession
1625817684.5,fixation,1,471,,,PerfumeSession
1625817686.0,stimulus,1,472,,,PerfumeSession
1625817686.5,fixation,1,472,,,PerfumeSession
1625817688.0,stimulus,1,473,,,PerfumeSession
1625817688.5,fixation,1,473,,,PerfumeSession
1625817690.0,stimulus,1,474,,,PerfumeSession
1625817690.5,fixation,1,474,,,PerfumeSession
1625817692.0,stimulus,1,475,,,PerfumeSession
1625817692.5,fixation,1,475,,,PerfumeSession
1625817694.0,stimulus,1,476,,,PerfumeSession
1625817694.5,fixation,1,476,,,PerfumeSession
1625817696.0,stimulus,1,477,,,PerfumeSession
1625817696.5,fixation,1,477,,,PerfumeSession
1625817698.0,stimulus,1,478,,,PerfumeSession
1625817698.5,fixation,1,478,,,PerfumeSession
1625817700.0,stimulus,1,479,,,PerfumeSession
1625817700.5,fixation,1,479,,,PerfumeSession
1625817702.0,stimulus,1,480,,,PerfumeSession
1625817702.5,fixation,1,480,,,PerfumeSession
1625817704.0,stimulus,1,481,,,PerfumeSession
1625817704.5,fixation,1,481,,,PerfumeSession
1625817706.0,stimulus,1,482,,,PerfumeSession
1625817706.5,fixation,1,482,,,PerfumeSession
1625817708.0,stimulus,1,483,,,PerfumeSession
1625817708.5,fixation,1,483,,,PerfumeSession
1625817710.0,stimulus,1,484,,,PerfumeSession
1625817710.5,fixation,1,484,,,PerfumeSession
1625817712.0,stimulus,1,485,,,PerfumeSession
1625817712.5,fixation,1,485,,,PerfumeSession
1625817714.0,stimulus,1,486,,,PerfumeSession
1625817714.5,fixation,1,486,,,PerfumeSession
1625817716.0,stimulus,1,487,,,PerfumeSession
1625817716.5,fixation,1,487,,,PerfumeSession
1625817718.0,stimulus,1,488,,,PerfumeSession
1625817718.5,fixation,1,488,,,PerfumeSession
1625817720.0,stimulus,1,489,,,PerfumeSession
1625817720.5,fixation,1,489,,,PerfumeSession
1625817722.0,stimulus,1,490,,,PerfumeSession
1625817722.5,fixation,1,490,,,PerfumeSession
1625817724.0,stimulus,1,491,,,PerfumeSession
1625817724.5,fixation,1,491,,,PerfumeSession
1625817726.0,stimulus,1,492,,,PerfumeSession
1625817726.5,fixation,1,492,,,PerfumeSession
1625817728.0,stimulus,1,493,,,PerfumeSession
1625817728.5,fixation,1,493,,,PerfumeSession
1625817730.0,stimulus,1,494,,,PerfumeSession
1625817730.5,fixation,1,494,,,PerfumeSession
1625817732.0,stimulus,1,495,,,PerfumeSession
1625817732.5,fixation,1,495,,,PerfumeSession
1625817734.0,stimulus,1,496,,,PerfumeSession
1625817734.5,fixation,1,496,,,PerfumeSession
1625817736.0,stimulus,1,497,,,PerfumeSession
1625817736.5,fixation,1,497,,,PerfumeSession
1625817738.0,stimulus,1,498,,,PerfumeSession
1625817738.5,fixation,1,498,,,PerfumeSession
1625817740.0,stimulus,1,499,,,PerfumeSession
1625817740.5,fixation,1,499,,,PerfumeSession
1625817742.0,stimulus,1,500,,,PerfumeSession
1625817742.5,fixation,1,500,,,PerfumeSession
1625817744.0,stimulus,1,501,,,PerfumeSession
1625817744.5,fixation,1,501,,,PerfumeSession
1625817746.0,stimulus,1,502,,,PerfumeSession
1625817746.5,fixation,1,502,,,PerfumeSession
1625817748.0,stimulus,1,503,,,PerfumeSession
1625817748.5,fixation,1,503,,,PerfumeSession
1625817750.0,stimulus,1,504,,,PerfumeSession
1625817750.5,fixation,1,504,,,PerfumeSession
1625817752.0,stimulus,1,505,,,PerfumeSession
1625817752.5,fixation,1,505,,,PerfumeSession
1625817754.0,stimulus,2,1,,,PracticeSession
1625817754.0,stimulus,1,506,,,PerfumeSession
1625817754.5,fixation,1,506,,,PerfumeSession
1625817754.5,fixation,2,1,,,PracticeSession
1625817756.0,stimulus,1,507,,,PerfumeSession
1625817756.0,stimulus,2,2,,,PracticeSession
1625817756.5,fixation,1,507,,,PerfumeSession
1625817756.5,fixation,2,2,,,PracticeSession
1625817758.0,stimulus,2,3,,,PracticeSession
1625817758.0,stimulus,1,508,,,PerfumeSession
1625817758.5,fixation,1,508,,,PerfumeSession
1625817758.5,fixation,2,3,,,PracticeSession
1625817760.0,stimulus,1,509,,,PerfumeSession
1625817760.0,stimulus,2,4,,,PracticeSession
1625817760.5,fixation,2,4,,,PracticeSession
1625817760.5,fixation,1,509,,,PerfumeSession
1625817762.0,stimulus,2,5,,,PracticeSession
1625817762.0,stimulus,1,510,,,PerfumeSession
1625817762.5,fixation,1,510,,,PerfumeSession
1625817762.5,fixation,2,5,,,PracticeSession
1625817764.0,stimulus,2,6,,,PracticeSession
1625817764.0,stimulus,1,511,,,PerfumeSession
1625817764.5,fixation,1,511,,,PerfumeSession
1625817764.5,fixation,2,6,,,PracticeSession
1625817766.0,stimulus,2,7,,,PracticeSession
1625817766.0,stimulus,1,512,,,PerfumeSession
1625817766.5,fixation,1,512,,,PerfumeSession
1625817766.5,fixation,2,7,,,PracticeSession
1625817768.0,stimulus,2,8,,,PracticeSession
1625817768.0,stimulus,1,513,,,PerfumeSession
1625817768.5,fixation,1,513,,,PerfumeSession
1625817768.5,fixation,2,8,,,PracticeSession
1625817770.0,stimulus,1,514,,,PerfumeSession
1625817770.0,stimulus,2,9,,,PracticeSession
1625817770.5,fixation,1,514,,,PerfumeSession
1625817770.5,fixation,2,9,,,PracticeSession
1625817772.0,stimulus,2,10,,,PracticeSession
1625817772.0,stimulus,1,515,,,PerfumeSession
1625817772.5,fixation,1,515,,,PerfumeSession
1625817772.5,fixation,2,10,,,PracticeSession
1625817774.0,stimulus,1,516,,,PerfumeSession
1625817774.0,stimulus,2,11,,,PracticeSession
1625817774.5,fixation,1,516,,,PerfumeSession
1625817774.5,fixation,2,11,,,PracticeSession
1625817776.0,stimulus,1,517,,,PerfumeSession
1625817776.0,stimulus,2,12,,,PracticeSession
1625817776.5,fixation,2,12,,,PracticeSession
1625817776.5,fixation,1,517,,,PerfumeSession
1625817778.0,stimulus,1,518,,,PerfumeSession
1625817778.0,stimulus,2,13,,,PracticeSession
1625817778.5,fixation,2,13,,,PracticeSession
1625817778.5,fixation,1,518,,,PerfumeSession
1625817780.0,stimulus,1,519,,,PerfumeSession
1625817780.0,stimulus,2,14,,,PracticeSession
1625817780.5,fixation,1,519,,,PerfumeSession
1625817780.5,fixation,2,14,,,PracticeSession
1625817782.0,stimulus,2,15,,,PracticeSession
1625817782.0,stimulus,1,520,,,PerfumeSession
1625817782.5,fixation,1,520,,,PerfumeSession
1625817782.5,fixation,2,15,,,PracticeSession
1625817784.0,stimulus,2,16,,,PracticeSession
1625817784.0,stimulus,1,521,,,PerfumeSession
1625817784.5,fixation,1,521,,,PerfumeSession
1625817784.5,fixation,2,16,,,PracticeSession
1625817786.0,stimulus,2,17,,,PracticeSession
1625817786.0,stimulus,1,522,,,PerfumeSession
1625817786.5,fixation,1,522,,,PerfumeSession
1625817786.5,fixation,2,17,,,PracticeSession
1625817788.0,stimulus,2,18,,,PracticeSession
1625817788.0,stimulus,1,523,,,PerfumeSession
1625817788.5,fixation,1,523,,,PerfumeSession
1625817788.5,fixation,2,18,,,PracticeSession
1625817790.0,stimulus,2,19,,,PracticeSession
1625817790.0,stimulus,1,524,,,PerfumeSession
1625817790.5,fixation,1,524,,,PerfumeSession
1625817790.5,fixation,2,19,,,PracticeSession
1625817792.0,stimulus,2,20,,,PracticeSession
1625817792.0,stimulus,1,525,,,PerfumeSession
1625817792.5,fixation,1,525,,,PerfumeSession
1625817792.5,fixation,2,20,,,PracticeSession
1625817794.0,stimulus,2,21,,,PracticeSession
1625817794.0,stimulus,1,526,,,PerfumeSession
1625817794.5,fixation,1,526,,,PerfumeSession
1625817794.5,fixation,2,21,,,PracticeSession
1625817796.0,stimulus,2,22,,,PracticeSession
1625817796.0,stimulus,1,527,,,PerfumeSession
1625817796.5,fixation,2,22,,,PracticeSession
1625817796.5,fixation,1,527,,,PerfumeSession
1625817798.0,stimulus,2,23,,,PracticeSession
1625817798.0,stimulus,1,528,,,PerfumeSession
1625817798.5,fixation,1,528,,,PerfumeSession
1625817798.5,fixation,2,23,,,PracticeSession
1625817800.0,stimulus,2,24,,,PracticeSession
1625817800.0,stimulus,1,529,,,PerfumeSession
1625817800.5,fixation,2,24,,,PracticeSession
1625817800.5,fixation,1,529,,,PerfumeSession
1625817802.0,stimulus,1,530,,,PerfumeSession
1625817802.0,stimulus,2,25,,,PracticeSession
1625817802.5,fixation,2,25,,,PracticeSession
1625817802.5,fixation,1,530,,,PerfumeSession
1625817804.0,stimulus,1,531,,,PerfumeSession
1625817804.0,stimulus,2,26,,,PracticeSession
1625817804.5,fixation,1,531,,,PerfumeSession
1625817804.5,fixation,2,26,,,PracticeSession
1625817806.0,stimulus,2,27,,,PracticeSession
1625817806.0,stimulus,1,532,,,PerfumeSession
1625817806.5,fixation,1,532,,,PerfumeSession
1625817806.5,fixation,2,27,,,PracticeSession
1625817808.0,stimulus,2,28,,,PracticeSession
1625817808.0,stimulus,1,533,,,PerfumeSession
1625817808.5,fixation,1,533,,,PerfumeSession
1625817808.5,fixation,2,28,,,PracticeSession
1625817810.0,stimulus,1,534,,,PerfumeSession
1625817810.0,stimulus,2,29,,,PracticeSession
1625817810.5,fixation,2,29,,,PracticeSession
1625817810.5,fixation,1,534,,,PerfumeSession
1625817812.0,stimulus,2,30,,,PracticeSession
1625817812.0,stimulus,1,535,,,PerfumeSession
1625817812.5,fixation,2,30,,,PracticeSession
1625817812.5,fixation,1,535,,,PerfumeSession
1625817814.0,stimulus,2,31,,,PracticeSession
1625817814.0,stimulus,1,536,,,PerfumeSession
1625817814.5,fixation,1,536,,,PerfumeSession
1625817814.5,fixation,2,31,,,PracticeSession
1625817816.0,stimulus,2,32,,,PracticeSession
1625817816.0,stimulus,1,537,,,PerfumeSession
1625817816.5,fixation,1,537,,,PerfumeSession
1625817816.5,fixation,2,32,,,PracticeSession
1625817818.0,stimulus,2,33,,,PracticeSession
1625817818.0,stimulus,1,538,,,PerfumeSession
1625817818.5,fixation,1,538,,,PerfumeSession
1625817818.5,fixation,2,33,,,PracticeSession
1625817820.0,stimulus,2,34,,,PracticeSession
1625817820.0,stimulus,1,539,,,PerfumeSession
1625817820.5,fixation,1,539,,,PerfumeSession
1625817820.5,fixation,2,34,,,PracticeSession
1625817822.0,stimulus,2,35,,,PracticeSession
1625817822.0,stimulus,1,540,,,PerfumeSession
1625817822.5,fixation,1,540,,,PerfumeSession
1625817822.5,fixation,2,35,,,PracticeSession
1625817824.0,stimulus,2,36,,,PracticeSession
1625817824.0,stimulus,1,541,,,PerfumeSession
1625817824.5,fixation,1,541,,,PerfumeSession
1625817824.5,fixation,2,36,,,PracticeSession
1625817826.0,stimulus,2,37,,,PracticeSession
1625817826.0,stimulus,1,542,,,PerfumeSession
1625817826.5,fixation,2,37,,,PracticeSession
1625817826.5,fixation,1,542,,,PerfumeSession
1625817828.0,stimulus,2,38,,,PracticeSession
1625817828.0,stimulus,1,543,,,PerfumeSession
1625817828.5,fixation,1,543,,,PerfumeSession
1625817828.5,fixation,2,38,,,PracticeSession
1625817830.0,stimulus,2,39,,,PracticeSession
1625817830.0,stimulus,1,544,,,PerfumeSession
1625817830.5,fixation,1,544,,,PerfumeSession
1625817830.5,fixation,2,39,,,PracticeSession
1625817832.0,stimulus,2,40,,,PracticeSession
1625817832.0,stimulus,1,545,,,PerfumeSession
1625817832.5,fixation,1,545,,,PerfumeSession
1625817832.5,fixation,2,40,,,PracticeSession
1625817834.0,stimulus,2,41,,,PracticeSession
1625817834.0,stimulus,1,546,,,PerfumeSession
1625817834.5,fixation,1,546,,,PerfumeSession
1625817834.5,fixation,2,41,,,PracticeSession
1625817836.0,stimulus,2,42,,,PracticeSession
1625817836.0,stimulus,1,547,,,PerfumeSession
1625817836.5,fixation,1,547,,,PerfumeSession
1625817836.5,fixation,2,42,,,PracticeSession
1625817838.0,stimulus,2,43,,,PracticeSession
1625817838.0,stimulus,1,548,,,PerfumeSession
1625817838.5,fixation,1,548,,,PerfumeSession
1625817838.5,fixation,2,43,,,PracticeSession
1625817840.0,stimulus,1,549,,,PerfumeSession
1625817840.0,stimulus,2,44,,,PracticeSession
1625817840.5,fixation,2,44,,,PracticeSession
1625817840.5,fixation,1,549,,,PerfumeSession
1625817842.0,stimulus,1,550,,,PerfumeSession
1625817842.0,stimulus,2,45,,,NoAct
1625817842.5,fixation,2,45,,,NoAct
1625817842.5,fixation,1,550,,,PerfumeSession
1625817844.0,stimulus,1,551,,,PerfumeSession
1625817844.0,stimulus,2,46,,,NoAct
1625817844.5,fixation,2,46,,,NoAct
1625817844.5,fixation,1,551,,,PerfumeSession
1625817846.0,stimulus,2,47,,,NoAct
1625817846.0,stimulus,1,552,,,PerfumeSession
1625817846.5,fixation,1,552,,,PerfumeSession
1625817846.5,fixation,2,47,,,NoAct
1625817848.0,stimulus,2,48,,,NoAct
1625817848.0,stimulus,1,553,,,PerfumeSession
1625817848.5,fixation,2,48,,,NoAct
1625817848.5,fixation,1,553,,,PerfumeSession
1625817850.0,stimulus,2,49,,,NoAct
1625817850.0,stimulus,1,554,,,PerfumeSession
1625817850.5,fixation,1,554,,,PerfumeSession
1625817850.5,fixation,2,49,,,NoAct
1625817852.0,stimulus,2,50,,,NoAct
1625817852.0,stimulus,1,555,,,PerfumeSession
1625817852.5,fixation,2,50,,,NoAct
1625817852.5,fixation,1,555,,,PerfumeSession
1625817854.0,stimulus,2,51,,,NoAct
1625817854.0,stimulus,1,556,,,PerfumeSession
1625817854.5,fixation,1,556,,,PerfumeSession
1625817854.5,fixation,2,51,,,NoAct
1625817856.0,stimulus,1,557,,,PerfumeSession
1625817856.0,stimulus,2,52,,,NoAct
1625817856.5,fixation,2,52,,,NoAct
1625817856.5,fixation,1,557,,,PerfumeSession
1625817858.0,stimulus,1,558,,,PerfumeSession
1625817858.0,stimulus,2,53,,,NoAct
1625817858.5,fixation,2,53,,,NoAct
1625817858.5,fixation,1,558,,,PerfumeSession
1625817860.0,stimulus,1,559,,,PerfumeSession
1625817860.0,stimulus,2,54,,,NoAct
1625817860.5,fixation,2,54,,,NoAct
1625817860.5,fixation,1,559,,,PerfumeSession
1625817862.0,stimulus,1,560,,,PerfumeSession
1625817862.0,stimulus,2,55,,,NoAct
1625817862.5,fixation,2,55,,,NoAct
1625817862.5,fixation,1,560,,,PerfumeSession
1625817864.0,stimulus,1,561,,,PerfumeSession
1625817864.0,stimulus,2,56,,,NoAct
1625817864.5,fixation,2,56,,,NoAct
1625817864.5,fixation,1,561,,,PerfumeSession
1625817866.0,stimulus,1,562,,,PerfumeSession
1625817866.0,stimulus,2,57,,,NoAct
1625817866.5,fixation,2,57,,,NoAct
1625817866.5,fixation,1,562,,,PerfumeSession
1625817868.0,stimulus,1,563,,,PerfumeSession
1625817868.0,stimulus,2,58,,,NoAct
1625817868.5,fixation,1,563,,,PerfumeSession
1625817868.5,fixation,2,58,,,NoAct
1625817870.0,stimulus,2,59,,,NoAct
1625817870.0,stimulus,1,564,,,PerfumeSession
1625817870.5,fixation,2,59,,,NoAct
1625817870.5,fixation,1,564,,,PerfumeSession
1625817872.0,stimulus,1,565,,,PerfumeSession
1625817872.0,stimulus,2,60,,,NoAct
1625817872.5,fixation,2,60,,,NoAct
1625817872.5,fixation,1,565,,,PerfumeSession
1625817874.0,stimulus,1,566,,,PerfumeSession
1625817874.0,stimulus,2,61,,,NoAct
1625817874.5,fixation,2,61,,,NoAct
1625817874.5,fixation,1,566,,,PerfumeSession
1625817876.0,stimulus,1,567,,,PerfumeSession
1625817876.0,stimulus,2,62,,,NoAct
1625817876.5,fixation,2,62,,,NoAct
1625817876.5,fixation,1,567,,,PerfumeSession
1625817878.0,stimulus,1,568,,,PerfumeSession
1625817878.0,stimulus,2,63,,,NoAct
1625817878.5,fixation,1,568,,,PerfumeSession
1625817878.5,fixation,2,63,,,NoAct
1625817880.0,stimulus,2,64,,,NoAct
1625817880.0,stimulus,1,569,,,PerfumeSession
1625817880.5,fixation,1,569,,,PerfumeSession
1625817880.5,fixation,2,64,,,NoAct
1625817882.0,stimulus,2,65,,,NoAct
1625817882.0,stimulus,1,570,,,PerfumeSession
1625817882.5,fixation,1,570,,,PerfumeSession
1625817882.5,fixation,2,65,,,NoAct
1625817884.0,stimulus,2,66,,,NoAct
1625817884.0,stimulus,1,571,,,PerfumeSession
1625817884.5,fixation,2,66,,,NoAct
1625817884.5,fixation,1,571,,,PerfumeSession
1625817886.0,stimulus,1,572,,,PerfumeSession
1625817886.0,stimulus,2,67,,,NoAct
1625817886.5,fixation,2,67,,,NoAct
1625817886.5,fixation,1,572,,,PerfumeSession
1625817888.0,stimulus,1,573,,,PerfumeSession
1625817888.0,stimulus,2,68,,,NoAct
1625817888.5,fixation,2,68,,,NoAct
1625817888.5,fixation,1,573,,,PerfumeSession
1625817890.0,stimulus,1,574,,,PerfumeSession
1625817890.0,stimulus,2,69,,,NoAct
1625817890.5,fixation,2,69,,,NoAct
1625817890.5,fixation,1,574,,,PerfumeSession
1625817892.0,stimulus,1,575,,,PerfumeSession
1625817892.0,stimulus,2,70,,,NoAct
1625817892.5,fixation,2,70,,,NoAct
1625817892.5,fixation,1,575,,,PerfumeSession
1625817894.0,stimulus,2,71,,,NoAct
1625817894.0,stimulus,1,576,,,PerfumeSession
1625817894.5,fixation,1,576,,,PerfumeSession
1625817894.5,fixation,2,71,,,NoAct
1625817896.0,stimulus,2,72,,,NoAct
1625817896.0,stimulus,1,577,,,PerfumeSession
1625817896.5,fixation,2,72,,,NoAct
1625817896.5,fixation,1,577,,,PerfumeSession
1625817898.0,stimulus,1,578,,,PerfumeSession
1625817898.0,stimulus,2,73,,,NoAct
1625817898.5,fixation,2,73,,,NoAct
1625817898.5,fixation,1,578,,,PerfumeSession
1625817900.0,stimulus,1,579,,,PerfumeSession
1625817900.0,stimulus,2,74,,,NoAct
1625817900.5,fixation,2,74,,,NoAct
1625817900.5,fixation,1,579,,,PerfumeSession
1625817902.0,stimulus,1,580,,,PerfumeSession
1625817902.0,stimulus,2,75,,,NoAct
1625817902.5,fixation,2,75,,,NoAct
1625817902.5,fixation,1,580,,,PerfumeSession
1625817904.0,stimulus,1,581,,,PerfumeSession
1625817904.0,stimulus,2,76,,,NoAct
1625817904.5,fixation,2,76,,,NoAct
1625817904.5,fixation,1,581,,,PerfumeSession
1625817906.0,stimulus,2,77,,,NoAct
1625817906.0,stimulus,1,582,,,PerfumeSession
1625817906.5,fixation,1,582,,,PerfumeSession
1625817906.5,fixation,2,77,,,NoAct
1625817908.0,stimulus,2,78,,,NoAct
1625817908.0,stimulus,1,583,,,PerfumeSession
1625817908.5,fixation,1,583,,,PerfumeSession
1625817908.5,fixation,2,78,,,NoAct
1625817910.0,stimulus,2,79,,,NoAct
1625817910.0,stimulus,1,584,,,PerfumeSession
1625817910.5,fixation,1,584,,,PerfumeSession
1625817910.5,fixation,2,79,,,NoAct
1625817912.0,stimulus,2,80,,,NoAct
1625817912.0,stimulus,1,585,,,PerfumeSession
1625817912.5,fixation,1,585,,,PerfumeSession
1625817912.5,fixation,2,80,,,NoAct
1625817914.0,stimulus,2,81,,,NoAct
1625817914.0,stimulus,1,586,,,PerfumeSession
1625817914.5,fixation,1,586,,,PerfumeSession
1625817914.5,fixation,2,81,,,NoAct
1625817916.0,stimulus,2,82,,,NoAct
1625817916.0,stimulus,1,587,,,PerfumeSession
1625817916.5,fixation,2,82,,,NoAct
1625817916.5,fixation,1,587,,,PerfumeSession
1625817918.0,stimulus,1,588,,,PerfumeSession
1625817918.0,stimulus,2,83,,,NoAct
1625817918.5,fixation,1,588,,,PerfumeSession
1625817918.5,fixation,2,83,,,NoAct
1625817920.0,stimulus,2,84,,,NoAct
1625817920.0,stimulus,1,589,,,PerfumeSession
1625817920.5,fixation,1,589,,,PerfumeSession
1625817920.5,fixation,2,84,,,NoAct
1625817922.0,stimulus,2,85,,,NoAct
1625817922.0,stimulus,1,590,,,PerfumeSession
1625817922.5,fixation,1,590,,,PerfumeSession
1625817922.5,fixation,2,85,,,NoAct
1625817924.0,stimulus,2,86,,,NoAct
1625817924.0,stimulus,1,591,,,PerfumeSession
1625817924.5,fixation,1,591,,,PerfumeSession
1625817924.5,fixation,2,86,,,NoAct
1625817926.0,stimulus,2,87,,,NoAct
1625817926.0,stimulus,1,592,,,PerfumeSession
1625817926.5,fixation,1,592,,,PerfumeSession
1625817926.5,fixation,2,87,,,NoAct
1625817928.0,stimulus,2,88,,,NoAct
1625817928.0,stimulus,1,593,,,PerfumeSession
1625817928.5,fixation,1,593,,,PerfumeSession
1625817928.5,fixation,2,88,,,NoAct
1625817930.0,stimulus,2,89,,,NoAct
1625817930.0,stimulus,1,594,,,PerfumeSession
1625817930.5,fixation,1,594,,,PerfumeSession
1625817930.5,fixation,2,89,,,NoAct
1625817932.0,stimulus,2,90,,,NoAct
1625817932.0,stimulus,1,595,,,PerfumeSession
1625817932.5,fixation,1,595,,,PerfumeSession
1625817932.5,fixation,2,90,,,NoAct
1625817934.0,stimulus,2,91,,,NoAct
1625817934.0,stimulus,1,596,,,PerfumeSession
1625817934.5,fixation,1,596,,,PerfumeSession
1625817934.5,fixation,2,91,,,NoAct
1625817936.0,stimulus,2,92,,,NoAct
1625817936.0,stimulus,1,597,,,PerfumeSession
1625817936.5,fixation,1,597,,,PerfumeSession
1625817936.5,fixation,2,92,,,NoAct
1625817938.0,stimulus,2,93,,,NoAct
1625817938.0,stimulus,1,598,,,PerfumeSession
1625817938.5,fixation,1,598,,,PerfumeSession
1625817938.5,fixation,2,93,,,NoAct
1625817940.0,stimulus,2,94,,,NoAct
1625817940.0,stimulus,1,599,,,PerfumeSession
1625817940.5,fixation,1,599,,,PerfumeSession
1625817940.5,fixation,2,94,,,NoAct
1625817942.0,stimulus,2,95,,,NoAct
1625817942.0,stimulus,1,600,,,PerfumeSession
1625817942.5,fixation,1,600,,,PerfumeSession
1625817942.5,fixation,2,95,,,NoAct
1625817944.0,stimulus,2,96,,,NoAct
1625817944.0,stimulus,1,601,,,PerfumeSession
1625817944.5,fixation,1,601,,,PerfumeSession
1625817944.5,fixation,2,96,,,NoAct
1625817946.0,stimulus,2,97,,,NoAct
1625817946.0,stimulus,1,602,,,PerfumeSession
1625817946.5,fixation,1,602,,,PerfumeSession
1625817946.5,fixation,2,97,,,NoAct
1625817948.0,stimulus,2,98,,,NoAct
1625817948.0,stimulus,1,603,,,PerfumeSession
1625817948.5,fixation,1,603,,,PerfumeSession
1625817948.5,fixation,2,98,,,NoAct
1625817950.0,stimulus,2,99,,,NoAct
1625817950.0,stimulus,1,604,,,PerfumeSession
1625817950.5,fixation,1,604,,,PerfumeSession
1625817950.5,fixation,2,99,,,NoAct
1625817952.0,stimulus,2,100,,,NoAct
1625817952.0,stimulus,1,605,,,PerfumeSession
1625817952.5,fixation,1,605,,,PerfumeSession
1625817952.5,fixation,2,100,,,NoAct
1625817954.0,stimulus,2,101,,,NoAct
1625817954.0,stimulus,1,606,,,PerfumeSession
1625817954.5,fixation,1,606,,,PerfumeSession
1625817954.5,fixation,2,101,,,NoAct
1625817956.0,stimulus,2,102,,,NoAct
1625817956.0,stimulus,1,607,,,PerfumeSession
1625817956.5,fixation,1,607,,,PerfumeSession
1625817956.5,fixation,2,102,,,NoAct
1625817958.0,stimulus,2,103,,,NoAct
1625817958.0,stimulus,1,608,,,PerfumeSession
1625817958.5,fixation,1,608,,,PerfumeSession
1625817958.5,fixation,2,103,,,NoAct
1625817960.0,stimulus,2,104,,,NoAct
1625817960.0,stimulus,1,609,,,PerfumeSession
1625817960.5,fixation,1,609,,,PerfumeSession
1625817960.5,fixation,2,104,,,NoAct
1625817962.0,stimulus,1,610,,,PerfumeSession
1625817962.0,stimulus,2,105,,,NoAct
1625817962.5,fixation,2,105,,,NoAct
1625817962.5,fixation,1,610,,,PerfumeSession
1625817964.0,stimulus,1,611,,,PerfumeSession
1625817964.0,stimulus,2,106,,,NoAct
1625817964.5,fixation,1,611,,,PerfumeSession
1625817964.5,fixation,2,106,,,NoAct
1625817966.0,stimulus,1,612,,,PerfumeSession
1625817966.0,stimulus,2,107,,,NoAct
1625817966.5,fixation,2,107,,,NoAct
1625817966.5,fixation,1,612,,,PerfumeSession
1625817968.0,stimulus,1,613,,,PerfumeSession
1625817968.0,stimulus,2,108,,,NoAct
1625817968.5,fixation,2,108,,,NoAct
1625817968.5,fixation,1,613,,,PerfumeSession
1625817970.0,stimulus,1,614,,,PerfumeSession
1625817970.0,stimulus,2,109,,,NoAct
1625817970.5,fixation,2,109,,,NoAct
1625817970.5,fixation,1,614,,,PerfumeSession
1625817972.0,stimulus,1,615,,,PerfumeSession
1625817972.0,stimulus,2,110,,,NoAct
1625817972.5,fixation,2,110,,,NoAct
1625817972.5,fixation,1,615,,,PerfumeSession
1625817974.0,stimulus,1,616,,,PerfumeSession
1625817974.0,stimulus,2,111,,,NoAct
1625817974.5,fixation,2,111,,,NoAct
1625817974.5,fixation,1,616,,,PerfumeSession
1625817976.0,stimulus,1,617,,,PerfumeSession
1625817976.0,stimulus,2,112,,,NoAct
1625817976.5,fixation,1,617,,,PerfumeSession
1625817976.5,fixation,2,112,,,NoAct
1625817978.0,stimulus,2,113,,,NoAct
1625817978.0,stimulus,1,618,,,PerfumeSession
1625817978.5,fixation,1,618,,,PerfumeSession
1625817978.5,fixation,2,113,,,NoAct
1625817980.0,stimulus,2,114,,,NoAct
1625817980.0,stimulus,1,619,,,PerfumeSession
1625817980.5,fixation,1,619,,,PerfumeSession
1625817980.5,fixation,2,114,,,NoAct
1625817982.0,stimulus,2,115,,,NoAct
1625817982.0,stimulus,1,620,,,PerfumeSession
1625817982.5,fixation,1,620,,,PerfumeSession
1625817982.5,fixation,2,115,,,NoAct
1625817984.0,stimulus,1,621,,,PerfumeSession
1625817984.0,stimulus,2,116,,,NoAct
1625817984.5,fixation,2,116,,,NoAct
1625817984.5,fixation,1,621,,,PerfumeSession
1625817986.0,stimulus,2,117,,,NoAct
1625817986.0,stimulus,1,622,,,PerfumeSession
1625817986.5,fixation,1,622,,,PerfumeSession
1625817986.5,fixation,2,117,,,NoAct
1625817988.0,stimulus,2,118,,,NoAct
1625817988.0,stimulus,1,623,,,PerfumeSession
1625817988.5,fixation,1,623,,,PerfumeSession
1625817988.5,fixation,2,118,,,NoAct
1625817990.0,stimulus,1,624,,,PerfumeSession
1625817990.0,stimulus,2,119,,,NoAct
1625817990.5,fixation,2,119,,,NoAct
1625817990.5,fixation,1,624,,,PerfumeSession
1625817992.0,stimulus,2,120,,,NoAct
1625817992.0,stimulus,1,625,,,PerfumeSession
1625817992.5,fixation,1,625,,,PerfumeSession
1625817992.5,fixation,2,120,,,NoAct
1625817994.0,stimulus,1,626,,,PerfumeSession
1625817994.0,stimulus,2,121,,,NoAct
1625817994.5,fixation,1,626,,,PerfumeSession
1625817994.5,fixation,2,121,,,NoAct
1625817996.0,stimulus,1,627,,,PerfumeSession
1625817996.0,stimulus,2,122,,,NoAct
1625817996.5,fixation,1,627,,,PerfumeSession
1625817996.5,fixation,2,122,,,NoAct
1625817998.0,stimulus,1,628,,,PerfumeSession
1625817998.0,stimulus,2,123,,,NoAct
1625817998.5,fixation,2,123,,,NoAct
1625817998.5,fixation,1,628,,,PerfumeSession
1625818000.0,stimulus,1,629,,,PerfumeSession
1625818000.0,stimulus,2,124,,,NoAct
1625818000.5,fixation,2,124,,,NoAct
1625818000.5,fixation,1,629,,,PerfumeSession
1625818002.0,stimulus,2,125,,,NoAct
1625818002.0,stimulus,1,630,,,PerfumeSession
1625818002.5,fixation,1,630,,,PerfumeSession
1625818002.5,fixation,2,125,,,NoAct
1625818004.0,stimulus,2,126,,,NoAct
1625818004.0,stimulus,1,631,,,PerfumeSession
1625818004.5,fixation,1,631,,,PerfumeSession
1625818004.5,fixation,2,126,,,NoAct
1625818006.0,stimulus,1,632,,,PerfumeSession
1625818006.0,stimulus,2,127,,,NoAct
1625818006.5,fixation,2,127,,,NoAct
1625818006.5,fixation,1,632,,,PerfumeSession
1625818008.0,stimulus,1,633,,,PerfumeSession
1625818008.0,stimulus,2,128,,,NoAct
1625818008.5,fixation,2,128,,,NoAct
1625818008.5,fixation,1,633,,,PerfumeSession
1625818010.0,stimulus,1,634,,,PerfumeSession
1625818010.0,stimulus,2,129,,,NoAct
1625818010.5,fixation,2,129,,,NoAct
1625818010.5,fixation,1,634,,,PerfumeSession
1625818012.0,stimulus,2,130,,,NoAct
1625818012.0,stimulus,1,635,,,PerfumeSession
1625818012.5,fixation,1,635,,,PerfumeSession
1625818012.5,fixation,2,130,,,NoAct
1625818014.0,stimulus,2,131,,,NoAct
1625818014.0,stimulus,1,636,,,PerfumeSession
1625818014.5,fixation,1,636,,,PerfumeSession
1625818014.5,fixation,2,131,,,NoAct
1625818016.0,stimulus,2,132,,,NoAct
1625818016.0,stimulus,1,637,,,PerfumeSession
1625818016.5,fixation,1,637,,,PerfumeSession
1625818016.5,fixation,2,132,,,NoAct
1625818018.0,stimulus,1,638,,,PerfumeSession
1625818018.0,stimulus,2,133,,,NoAct
1625818018.5,fixation,2,133,,,NoAct
1625818018.5,fixation,1,638,,,PerfumeSession
1625818020.0,stimulus,1,639,,,PerfumeSession
1625818020.0,stimulus,2,134,,,NoAct
1625818020.5,fixation,2,134,,,NoAct
1625818020.5,fixation,1,639,,,PerfumeSession
1625818022.0,stimulus,1,640,,,PerfumeSession
1625818022.0,stimulus,2,135,,,NoAct
1625818022.5,fixation,2,135,,,NoAct
1625818022.5,fixation,1,640,,,PerfumeSession
1625818024.0,stimulus,1,641,,,PerfumeSession
1625818024.0,stimulus,2,136,,,NoAct
1625818024.5,fixation,2,136,,,NoAct
1625818024.5,fixation,1,641,,,PerfumeSession
1625818026.0,stimulus,1,642,,,PerfumeSession
1625818026.0,stimulus,2,137,,,NoAct
1625818026.5,fixation,2,137,,,NoAct
1625818026.5,fixation,1,642,,,PerfumeSession
1625818028.0,stimulus,1,643,,,PerfumeSession
1625818028.0,stimulus,2,138,,,NoAct
1625818028.5,fixation,2,138,,,NoAct
1625818028.5,fixation,1,643,,,PerfumeSession
1625818030.0,stimulus,1,644,,,PerfumeSession
1625818030.0,stimulus,2,139,,,NoAct
1625818030.5,fixation,2,139,,,NoAct
1625818030.5,fixation,1,644,,,PerfumeSession
1625818032.0,stimulus,1,645,,,PerfumeSession
1625818032.0,stimulus,2,140,,,NoAct
1625818032.5,fixation,2,140,,,NoAct
1625818032.5,fixation,1,645,,,PerfumeSession
1625818034.0,stimulus,1,646,,,PerfumeSession
1625818034.0,stimulus,2,141,,,NoAct
1625818034.5,fixation,1,646,,,PerfumeSession
1625818034.5,fixation,2,141,,,NoAct
1625818036.0,stimulus,2,142,,,NoAct
1625818036.0,stimulus,1,647,,,PerfumeSession
1625818036.5,fixation,2,142,,,NoAct
1625818036.5,fixation,1,647,,,PerfumeSession
1625818038.0,stimulus,1,648,,,PerfumeSession
1625818038.0,stimulus,2,143,,,NoAct
1625818038.5,fixation,2,143,,,NoAct
1625818038.5,fixation,1,648,,,PerfumeSession
1625818040.0,stimulus,1,649,,,PerfumeSession
1625818040.0,stimulus,2,144,,,NoAct
1625818040.5,fixation,2,144,,,NoAct
1625818040.5,fixation,1,649,,,PerfumeSession
1625818042.0,stimulus,2,145,,,NoAct
1625818042.0,stimulus,1,650,,,PerfumeSession
1625818042.5,fixation,1,650,,,PerfumeSession
1625818042.5,fixation,2,145,,,NoAct
1625818044.0,stimulus,2,146,,,NoAct
1625818044.0,stimulus,1,651,,,PerfumeSession
1625818044.5,fixation,1,651,,,PerfumeSession
1625818044.5,fixation,2,146,,,NoAct
1625818046.0,stimulus,2,147,,,NoAct
1625818046.0,stimulus,1,652,,,PerfumeSession
1625818046.5,fixation,1,652,,,PerfumeSession
1625818046.5,fixation,2,147,,,NoAct
1625818048.0,stimulus,2,148,,,NoAct
1625818048.0,stimulus,1,653,,,PerfumeSession
1625818048.5,fixation,1,653,,,PerfumeSession
1625818048.5,fixation,2,148,,,NoAct
1625818050.0,stimulus,2,149,,,NoAct
1625818050.0,stimulus,1,654,,,PerfumeSession
1625818050.5,fixation,1,654,,,PerfumeSession
1625818050.5,fixation,2,149,,,NoAct
1625818052.0,stimulus,2,150,,,NoAct
1625818052.0,stimulus,1,655,,,PerfumeSession
1625818052.5,fixation,1,655,,,PerfumeSession
1625818052.5,fixation,2,150,,,NoAct
1625818054.0,stimulus,2,151,,,NoAct
1625818054.0,stimulus,1,656,,,PerfumeSession
1625818054.5,fixation,1,656,,,PerfumeSession
1625818054.5,fixation,2,151,,,NoAct
1625818056.0,stimulus,2,152,,,NoAct
1625818056.0,stimulus,1,657,,,PerfumeSession
1625818056.5,fixation,2,152,,,NoAct
1625818056.5,fixation,1,657,,,PerfumeSession
1625818058.0,stimulus,1,658,,,PerfumeSession
1625818058.0,stimulus,2,153,,,NoAct
1625818058.5,fixation,2,153,,,NoAct
1625818058.5,fixation,1,658,,,PerfumeSession
1625818060.0,stimulus,1,659,,,PerfumeSession
1625818060.0,stimulus,2,154,,,NoAct
1625818060.5,fixation,2,154,,,NoAct
1625818060.5,fixation,1,659,,,PerfumeSession
1625818062.0,stimulus,1,660,,,PerfumeSession
1625818062.0,stimulus,2,155,,,NoAct
1625818062.5,fixation,2,155,,,NoAct
1625818062.5,fixation,1,660,,,PerfumeSession
1625818064.0,stimulus,1,661,,,PerfumeSession
1625818064.0,stimulus,2,156,,,NoAct
1625818064.5,fixation,1,661,,,PerfumeSession
1625818064.5,fixation,2,156,,,NoAct
1625818066.0,stimulus,2,157,,,NoAct
1625818066.0,stimulus,1,662,,,PerfumeSession
1625818066.5,fixation,1,662,,,PerfumeSession
1625818066.5,fixation,2,157,,,NoAct
1625818068.0,stimulus,2,158,,,NoAct
1625818068.0,stimulus,1,663,,,PerfumeSession
1625818068.5,fixation,1,663,,,PerfumeSession
1625818068.5,fixation,2,158,,,NoAct
1625818070.0,stimulus,1,664,,,PerfumeSession
1625818070.0,stimulus,2,159,,,NoAct
1625818070.5,fixation,2,159,,,NoAct
1625818070.5,fixation,1,664,,,PerfumeSession
1625818072.0,stimulus,1,665,,,PerfumeSession
1625818072.0,stimulus,2,160,,,NoAct
1625818072.5,fixation,2,160,,,NoAct
1625818072.5,fixation,1,665,,,PerfumeSession
1625818074.0,stimulus,1,666,,,PerfumeSession
1625818074.0,stimulus,2,161,,,NoAct
1625818074.5,fixation,2,161,,,NoAct
1625818074.5,fixation,1,666,,,PerfumeSession
1625818076.0,stimulus,1,667,,,PerfumeSession
1625818076.0,stimulus,2,162,,,NoAct
1625818076.5,fixation,2,162,,,NoAct
1625818076.5,fixation,1,667,,,PerfumeSession
1625818078.0,stimulus,1,668,,,PerfumeSession
1625818078.0,stimulus,2,163,,,NoAct
1625818078.5,fixation,2,163,,,NoAct
1625818078.5,fixation,1,668,,,PerfumeSession
1625818080.0,stimulus,1,669,,,PerfumeSession
1625818080.0,stimulus,2,164,,,NoAct
1625818080.5,fixation,2,164,,,NoAct
1625818080.5,fixation,1,669,,,PerfumeSession
1625818082.0,stimulus,2,165,,,NoAct
1625818082.0,stimulus,1,670,,,PerfumeSession
1625818082.5,fixation,1,670,,,PerfumeSession
1625818082.5,fixation,2,165,,,NoAct
1625818084.0,stimulus,2,166,,,NoAct
1625818084.0,stimulus,1,671,,,PerfumeSession
1625818084.5,fixation,1,671,,,PerfumeSession
1625818084.5,fixation,2,166,,,NoAct
1625818086.0,stimulus,1,672,,,PerfumeSession
1625818086.0,stimulus,2,167,,,NoAct
1625818086.5,fixation,2,167,,,NoAct
1625818086.5,fixation,1,672,,,PerfumeSession
1625818088.0,stimulus,1,673,,,PerfumeSession
1625818088.0,stimulus,2,168,,,NoAct
1625818088.5,fixation,2,168,,,NoAct
1625818088.5,fixation,1,673,,,PerfumeSession
1625818090.0,stimulus,1,674,,,PerfumeSession
1625818090.0,stimulus,2,169,,,NoAct
1625818090.5,fixation,2,169,,,NoAct
1625818090.5,fixation,1,674,,,PerfumeSession
1625818092.0,stimulus,1,675,,,PerfumeSession
1625818092.0,stimulus,2,170,,,NoAct
1625818092.5,fixation,2,170,,,NoAct
1625818092.5,fixation,1,675,,,PerfumeSession
1625818094.0,stimulus,1,676,,,PerfumeSession
1625818094.0,stimulus,2,171,,,NoAct
1625818094.5,fixation,2,171,,,NoAct
1625818094.5,fixation,1,676,,,PerfumeSession
1625818096.0,stimulus,1,677,,,PerfumeSession
1625818096.0,stimulus,2,172,,,NoAct
1625818096.5,fixation,2,172,,,NoAct
1625818096.5,fixation,1,677,,,PerfumeSession
1625818098.0,stimulus,1,678,,,PerfumeSession
1625818098.0,stimulus,2,173,,,NoAct
1625818098.5,fixation,2,173,,,NoAct
1625818098.5,fixation,1,678,,,PerfumeSession
1625818100.0,stimulus,1,679,,,PerfumeSession
1625818100.0,stimulus,2,174,,,NoAct
1625818100.5,fixation,2,174,,,NoAct
1625818100.5,fixation,1,679,,,PerfumeSession
1625818102.0,stimulus,1,680,,,PerfumeSession
1625818102.0,stimulus,2,175,,,NoAct
1625818102.5,fixation,2,175,,,NoAct
1625818102.5,fixation,1,680,,,PerfumeSession
1625818104.0,stimulus,1,681,,,PerfumeSession
1625818104.0,stimulus,2,176,,,NoAct
1625818104.5,fixation,2,176,,,NoAct
1625818104.5,fixation,1,681,,,PerfumeSession
1625818106.0,stimulus,1,682,,,PerfumeSession
1625818106.0,stimulus,2,177,,,NoAct
1625818106.5,fixation,2,177,,,NoAct
1625818106.5,fixation,1,682,,,PerfumeSession
1625818108.0,stimulus,1,683,,,PerfumeSession
1625818108.0,stimulus,2,178,,,NoAct
1625818108.5,fixation,2,178,,,NoAct
1625818108.5,fixation,1,683,,,PerfumeSession
1625818110.0,stimulus,1,684,,,PerfumeSession
1625818110.0,stimulus,2,179,,,NoAct
1625818110.5,fixation,2,179,,,NoAct
1625818110.5,fixation,1,684,,,PerfumeSession
1625818112.0,stimulus,1,685,,,PerfumeSession
1625818112.0,stimulus,2,180,,,NoAct
1625818112.5,fixation,2,180,,,NoAct
1625818112.5,fixation,1,685,,,PerfumeSession
1625818114.0,stimulus,1,686,,,PerfumeSession
1625818114.0,stimulus,2,181,,,NoAct
1625818114.5,fixation,2,181,,,NoAct
1625818114.5,fixation,1,686,,,PerfumeSession
1625818116.0,stimulus,1,687,,,PerfumeSession
1625818116.0,stimulus,2,182,,,NoAct
1625818116.5,fixation,2,182,,,NoAct
1625818116.5,fixation,1,687,,,PerfumeSession
1625818118.0,stimulus,1,688,,,PerfumeSession
1625818118.0,stimulus,2,183,,,NoAct
1625818118.5,fixation,2,183,,,NoAct
1625818118.5,fixation,1,688,,,PerfumeSession
1625818120.0,stimulus,1,689,,,PerfumeSession
1625818120.0,stimulus,3,1,,,PracticeSession
1625818120.0,stimulus,2,184,,,NoAct
1625818120.5,fixation,3,1,,,PracticeSession
1625818120.5,fixation,2,184,,,NoAct
1625818120.5,fixation,1,689,,,PerfumeSession
1625818122.0,stimulus,3,2,,,PracticeSession
1625818122.0,stimulus,2,185,,,NoAct
1625818122.0,stimulus,1,690,,,PerfumeSession
1625818122.5,fixation,3,2,,,PracticeSession
1625818122.5,fixation,1,690,,,PerfumeSession
1625818122.5,fixation,2,185,,,NoAct
1625818124.0,stimulus,2,186,,,NoAct
1625818124.0,stimulus,1,691,,,PerfumeSession
1625818124.0,stimulus,3,3,,,PracticeSession
1625818124.5,fixation,2,186,,,NoAct
1625818124.5,fixation,1,691,,,PerfumeSession
1625818124.5,fixation,3,3,,,PracticeSession
1625818126.0,stimulus,3,4,,,PracticeSession
1625818126.0,stimulus,1,692,,,PerfumeSession
1625818126.0,stimulus,2,187,,,NoAct
1625818126.5,fixation,3,4,,,PracticeSession
1625818126.5,fixation,1,692,,,PerfumeSession
1625818126.5,fixation,2,187,,,NoAct
1625818128.0,stimulus,2,188,,,NoAct
1625818128.0,stimulus,1,693,,,PerfumeSession
1625818128.0,stimulus,3,5,,,PracticeSession
1625818128.5,fixation,1,693,,,PerfumeSession
1625818128.5,fixation,2,188,,,NoAct
1625818128.5,fixation,3,5,,,PracticeSession
1625818130.0,stimulus,3,6,,,PracticeSession
1625818130.0,stimulus,2,189,,,NoAct
1625818130.0,stimulus,1,694,,,PerfumeSession
1625818130.5,fixation,1,694,,,PerfumeSession
1625818130.5,fixation,2,189,,,NoAct
1625818130.5,fixation,3,6,,,PracticeSession
1625818132.0,stimulus,2,190,,,NoAct
1625818132.0,stimulus,1,695,,,PerfumeSession
1625818132.0,stimulus,3,7,,,PracticeSession
1625818132.5,fixation,1,695,,,PerfumeSession
1625818132.5,fixation,2,190,,,NoAct
1625818132.5,fixation,3,7,,,PracticeSession
1625818134.0,stimulus,1,696,,,PerfumeSession
1625818134.0,stimulus,2,191,,,NoAct
1625818134.0,stimulus,3,8,,,PracticeSession
1625818134.5,fixation,1,696,,,PerfumeSession
1625818134.5,fixation,3,8,,,PracticeSession
1625818134.5,fixation,2,191,,,NoAct
1625818136.0,stimulus,3,9,,,PracticeSession
1625818136.0,stimulus,1,697,,,PerfumeSession
1625818136.0,stimulus,2,192,,,NoAct
1625818136.5,fixation,2,192,,,NoAct
1625818136.5,fixation,3,9,,,PracticeSession
1625818136.5,fixation,1,697,,,PerfumeSession
1625818138.0,stimulus,1,698,,,PerfumeSession
1625818138.0,stimulus,3,10,,,PracticeSession
1625818138.0,stimulus,2,193,,,NoAct
1625818138.5,fixation,2,193,,,NoAct
1625818138.5,fixation,3,10,,,PracticeSession
1625818138.5,fixation,1,698,,,PerfumeSession
1625818140.0,stimulus,2,194,,,NoAct
1625818140.0,stimulus,3,11,,,PracticeSession
1625818140.0,stimulus,1,699,,,PerfumeSession
1625818140.5,fixation,2,194,,,NoAct
1625818140.5,fixation,3,11,,,PracticeSession
1625818140.5,fixation,1,699,,,PerfumeSession
1625818142.0,stimulus,2,195,,,NoAct
1625818142.0,stimulus,1,700,,,PerfumeSession
1625818142.0,stimulus,3,12,,,PracticeSession
1625818142.5,fixation,2,195,,,NoAct
1625818142.5,fixation,3,12,,,PracticeSession
1625818142.5,fixation,1,700,,,PerfumeSession
1625818144.0,stimulus,2,196,,,NoAct
1625818144.0,stimulus,3,13,,,PracticeSession
1625818144.0,stimulus,1,701,,,PerfumeSession
1625818144.5,fixation,3,13,,,PracticeSession
1625818144.5,fixation,1,701,,,PerfumeSession
1625818144.5,fixation,2,196,,,NoAct
1625818146.0,stimulus,2,197,,,NoAct
1625818146.0,stimulus,1,702,,,PerfumeSession
1625818146.0,stimulus,3,14,,,PracticeSession
1625818146.5,fixation,2,197,,,NoAct
1625818146.5,fixation,3,14,,,PracticeSession
1625818146.5,fixation,1,702,,,PerfumeSession
1625818148.0,stimulus,1,703,,,PerfumeSession
1625818148.0,stimulus,3,15,,,PracticeSession
1625818148.0,stimulus,2,198,,,NoAct
1625818148.5,fixation,2,198,,,NoAct
1625818148.5,fixation,1,703,,,PerfumeSession
1625818148.5,fixation,3,15,,,PracticeSession
1625818150.0,stimulus,3,16,,,PracticeSession
1625818150.0,stimulus,1,704,,,PerfumeSession
1625818150.0,stimulus,2,199,,,NoAct
1625818150.5,fixation,3,16,,,PracticeSession
1625818150.5,fixation,2,199,,,NoAct
1625818150.5,fixation,1,704,,,PerfumeSession
1625818152.0,stimulus,3,17,,,PracticeSession
1625818152.0,stimulus,2,200,,,NoAct
1625818152.0,stimulus,1,705,,,PerfumeSession
1625818152.5,fixation,1,705,,,PerfumeSession
1625818152.5,fixation,3,17,,,PracticeSession
1625818152.5,fixation,2,200,,,NoAct
1625818154.0,stimulus,2,201,,,NoAct
1625818154.0,stimulus,1,706,,,PerfumeSession
1625818154.0,stimulus,3,18,,,PracticeSession
1625818154.5,fixation,1,706,,,PerfumeSession
1625818154.5,fixation,3,18,,,PracticeSession
1625818154.5,fixation,2,201,,,NoAct
1625818156.0,stimulus,2,202,,,NoAct
1625818156.0,stimulus,1,707,,,PerfumeSession
1625818156.0,stimulus,3,19,,,PracticeSession
1625818156.5,fixation,1,707,,,PerfumeSession
1625818156.5,fixation,3,19,,,PracticeSession
1625818156.5,fixation,2,202,,,NoAct
1625818158.0,stimulus,3,20,,,PracticeSession
1625818158.0,stimulus,1,708,,,PerfumeSession
1625818158.0,stimulus,2,203,,,NoAct
1625818158.5,fixation,3,20,,,PracticeSession
1625818158.5,fixation,2,203,,,NoAct
1625818158.5,fixation,1,708,,,PerfumeSession
1625818160.0,stimulus,3,21,,,PracticeSession
1625818160.0,stimulus,2,204,,,NoAct
1625818160.0,stimulus,1,709,,,PerfumeSession
1625818160.5,fixation,3,21,,,PracticeSession
1625818160.5,fixation,2,204,,,NoAct
1625818160.5,fixation,1,709,,,PerfumeSession
1625818162.0,stimulus,3,22,,,PracticeSession
1625818162.0,stimulus,1,710,,,PerfumeSession
1625818162.0,stimulus,2,205,,,NoAct
1625818162.5,fixation,1,710,,,PerfumeSession
1625818162.5,fixation,2,205,,,NoAct
1625818162.5,fixation,3,22,,,PracticeSession
1625818164.0,stimulus,3,23,,,PracticeSession
1625818164.0,stimulus,1,711,,,PerfumeSession
1625818164.0,stimulus,2,206,,,NoAct
1625818164.5,fixation,2,206,,,NoAct
1625818164.5,fixation,1,711,,,PerfumeSession
1625818164.5,fixation,3,23,,,PracticeSession
1625818166.0,stimulus,2,207,,,NoAct
1625818166.0,stimulus,1,712,,,PerfumeSession
1625818166.0,stimulus,3,24,,,PracticeSession
1625818166.5,fixation,3,24,,,PracticeSession
1625818166.5,fixation,1,712,,,PerfumeSession
1625818166.5,fixation,2,207,,,NoAct
1625818168.0,stimulus,1,713,,,PerfumeSession
1625818168.0,stimulus,2,208,,,NoAct
1625818168.0,stimulus,3,25,,,PracticeSession
1625818168.5,fixation,2,208,,,NoAct
1625818168.5,fixation,3,25,,,PracticeSession
1625818168.5,fixation,1,713,,,PerfumeSession
1625818170.0,stimulus,1,714,,,PerfumeSession
1625818170.0,stimulus,3,26,,,PracticeSession
1625818170.0,stimulus,2,209,,,NoAct
1625818170.5,fixation,3,26,,,PracticeSession
1625818170.5,fixation,2,209,,,NoAct
1625818170.5,fixation,1,714,,,PerfumeSession
1625818172.0,stimulus,1,715,,,PerfumeSession
1625818172.0,stimulus,3,27,,,PracticeSession
1625818172.0,stimulus,2,210,,,NoAct
1625818172.5,fixation,2,210,,,NoAct
1625818172.5,fixation,3,27,,,PracticeSession
1625818172.5,fixation,1,715,,,PerfumeSession
1625818174.0,stimulus,1,716,,,PerfumeSession
1625818174.0,stimulus,2,211,,,NoAct
1625818174.0,stimulus,3,28,,,PracticeSession
1625818174.5,fixation,1,716,,,PerfumeSession
1625818174.5,fixation,2,211,,,NoAct
1625818174.5,fixation,3,28,,,PracticeSession
1625818176.0,stimulus,1,717,,,PerfumeSession
1625818176.0,stimulus,2,212,,,NoAct
1625818176.0,stimulus,3,29,,,PracticeSession
1625818176.5,fixation,3,29,,,PracticeSession
1625818176.5,fixation,2,212,,,NoAct
1625818176.5,fixation,1,717,,,PerfumeSession
1625818178.0,stimulus,1,718,,,PerfumeSession
1625818178.0,stimulus,3,30,,,PracticeSession
1625818178.0,stimulus,2,213,,,NoAct
1625818178.5,fixation,3,30,,,PracticeSession
1625818178.5,fixation,2,213,,,NoAct
1625818178.5,fixation,1,718,,,PerfumeSession
1625818180.0,stimulus,1,719,,,PerfumeSession
1625818180.0,stimulus,2,214,,,NoAct
1625818180.0,stimulus,3,31,,,PracticeSession
1625818180.5,fixation,2,214,,,NoAct
1625818180.5,fixation,3,31,,,PracticeSession
1625818180.5,fixation,1,719,,,PerfumeSession
1625818182.0,stimulus,1,720,,,PerfumeSession
1625818182.0,stimulus,3,32,,,PracticeSession
1625818182.0,stimulus,2,215,,,NoAct
1625818182.5,fixation,1,720,,,PerfumeSession
1625818182.5,fixation,2,215,,,NoAct
1625818182.5,fixation,3,32,,,PracticeSession
1625818184.0,stimulus,1,721,,,PerfumeSession
1625818184.0,stimulus,2,216,,,NoAct
1625818184.0,stimulus,3,33,,,PracticeSession
1625818184.5,fixation,3,33,,,PracticeSession
1625818184.5,fixation,2,216,,,NoAct
1625818184.5,fixation,1,721,,,PerfumeSession
1625818186.0,stimulus,3,34,,,PracticeSession
1625818186.0,stimulus,2,217,,,NoAct
1625818186.0,stimulus,1,722,,,PerfumeSession
1625818186.5,fixation,3,34,,,PracticeSession
1625818186.5,fixation,2,217,,,NoAct
1625818186.5,fixation,1,722,,,PerfumeSession
1625818188.0,stimulus,1,723,,,PerfumeSession
1625818188.0,stimulus,3,35,,,PracticeSession
1625818188.0,stimulus,2,218,,,NoAct
1625818188.5,fixation,2,218,,,NoAct
1625818188.5,fixation,3,35,,,PracticeSession
1625818188.5,fixation,1,723,,,PerfumeSession
1625818190.0,stimulus,1,724,,,PerfumeSession
1625818190.0,stimulus,3,36,,,PracticeSession
1625818190.0,stimulus,2,219,,,NoAct
1625818190.5,fixation,2,219,,,NoAct
1625818190.5,fixation,3,36,,,PracticeSession
1625818190.5,fixation,1,724,,,PerfumeSession
1625818192.0,stimulus,1,725,,,PerfumeSession
1625818192.0,stimulus,2,220,,,NoAct
1625818192.0,stimulus,3,37,,,PracticeSession
1625818192.5,fixation,3,37,,,PracticeSession
1625818192.5,fixation,1,725,,,PerfumeSession
1625818192.5,fixation,2,220,,,NoAct
1625818194.0,stimulus,1,726,,,PerfumeSession
1625818194.0,stimulus,3,38,,,PracticeSession
1625818194.0,stimulus,2,221,,,NoAct
1625818194.5,fixation,3,38,,,PracticeSession
1625818194.5,fixation,2,221,,,NoAct
1625818194.5,fixation,1,726,,,PerfumeSession
1625818196.0,stimulus,2,222,,,NoAct
1625818196.0,stimulus,3,39,,,PracticeSession
1625818196.0,stimulus,1,727,,,PerfumeSession
1625818196.5,fixation,2,222,,,NoAct
1625818196.5,fixation,1,727,,,PerfumeSession
1625818196.5,fixation,3,39,,,PracticeSession
1625818198.0,stimulus,2,223,,,NoAct
1625818198.0,stimulus,3,40,,,PracticeSession
1625818198.0,stimulus,1,728,,,PerfumeSession
1625818198.5,fixation,2,223,,,NoAct
1625818198.5,fixation,3,40,,,PracticeSession
1625818198.5,fixation,1,728,,,PerfumeSession
1625818200.0,stimulus,1,729,,,PerfumeSession
1625818200.0,stimulus,3,41,,,PracticeSession
1625818200.0,stimulus,2,224,,,NoAct
1625818200.5,fixation,3,41,,,PracticeSession
1625818200.5,fixation,1,729,,,PerfumeSession
1625818200.5,fixation,2,224,,,NoAct
1625818202.0,stimulus,1,730,,,PerfumeSession
1625818202.0,stimulus,3,42,,,PracticeSession
1625818202.0,stimulus,2,225,,,NoAct
1625818202.5,fixation,3,42,,,PracticeSession
1625818202.5,fixation,2,225,,,NoAct
1625818202.5,fixation,1,730,,,PerfumeSession
1625818204.0,stimulus,2,226,,,NoAct
1625818204.0,stimulus,3,43,,,PracticeSession
1625818204.0,stimulus,1,731,,,PerfumeSession
1625818204.5,fixation,3,43,,,PracticeSession
1625818204.5,fixation,2,226,,,NoAct
1625818204.5,fixation,1,731,,,PerfumeSession
1625818206.0,stimulus,1,732,,,PerfumeSession
1625818206.0,stimulus,3,44,,,PracticeSession
1625818206.0,stimulus,2,227,,,NoAct
1625818206.5,fixation,1,732,,,PerfumeSession
1625818206.5,fixation,3,44,,,PracticeSession
1625818206.5,fixation,2,227,,,NoAct
1625818208.0,stimulus,2,228,,,NoAct
1625818208.0,stimulus,3,45,,,NoAct
1625818208.0,stimulus,1,733,,,PerfumeSession
1625818208.5,fixation,2,228,,,NoAct
1625818208.5,fixation,1,733,,,PerfumeSession
1625818208.5,fixation,3,45,,,NoAct
1625818210.0,stimulus,3,46,,,NoAct
1625818210.0,stimulus,2,229,,,NoAct
1625818210.0,stimulus,1,734,,,PerfumeSession
1625818210.5,fixation,3,46,,,NoAct
1625818210.5,fixation,1,734,,,PerfumeSession
1625818210.5,fixation,2,229,,,NoAct
1625818212.0,stimulus,1,735,,,PerfumeSession
1625818212.0,stimulus,3,47,,,NoAct
1625818212.0,stimulus,2,230,,,NoAct
1625818212.5,fixation,2,230,,,NoAct
1625818212.5,fixation,3,47,,,NoAct
1625818212.5,fixation,1,735,,,PerfumeSession
1625818214.0,stimulus,2,231,,,NoAct
1625818214.0,stimulus,1,736,,,PerfumeSession
1625818214.0,stimulus,3,48,,,NoAct
1625818214.5,fixation,1,736,,,PerfumeSession
1625818214.5,fixation,3,48,,,NoAct
1625818214.5,fixation,2,231,,,NoAct
1625818216.0,stimulus,2,232,,,NoAct
1625818216.0,stimulus,1,737,,,PerfumeSession
1625818216.0,stimulus,3,49,,,NoAct
1625818216.5,fixation,1,737,,,PerfumeSession
1625818216.5,fixation,2,232,,,NoAct
1625818216.5,fixation,3,49,,,NoAct
1625818218.0,stimulus,3,50,,,NoAct
1625818218.0,stimulus,1,738,,,PerfumeSession
1625818218.0,stimulus,2,233,,,NoAct
1625818218.5,fixation,2,233,,,NoAct
1625818218.5,fixation,1,738,,,PerfumeSession
1625818218.5,fixation,3,50,,,NoAct
1625818220.0,stimulus,2,234,,,NoAct
1625818220.0,stimulus,1,739,,,PerfumeSession
1625818220.0,stimulus,3,51,,,NoAct
1625818220.5,fixation,3,51,,,NoAct
1625818220.5,fixation,2,234,,,NoAct
1625818220.5,fixation,1,739,,,PerfumeSession
1625818222.0,stimulus,3,52,,,NoAct
1625818222.0,stimulus,1,740,,,PerfumeSession
1625818222.0,stimulus,2,235,,,NoAct
1625818222.5,fixation,3,52,,,NoAct
1625818222.5,fixation,1,740,,,PerfumeSession
1625818222.5,fixation,2,235,,,NoAct
1625818224.0,stimulus,1,741,,,PerfumeSession
1625818224.0,stimulus,2,236,,,NoAct
1625818224.0,stimulus,3,53,,,NoAct
1625818224.5,fixation,3,53,,,NoAct
1625818224.5,fixation,2,236,,,NoAct
1625818224.5,fixation,1,741,,,PerfumeSession
1625818226.0,stimulus,1,742,,,PerfumeSession
1625818226.0,stimulus,2,237,,,NoAct
1625818226.0,stimulus,3,54,,,NoAct
1625818226.5,fixation,2,237,,,NoAct
1625818226.5,fixation,3,54,,,NoAct
1625818226.5,fixation,1,742,,,PerfumeSession
1625818228.0,stimulus,3,55,,,NoAct
1625818228.0,stimulus,2,238,,,NoAct
1625818228.0,stimulus,1,743,,,PerfumeSession
1625818228.5,fixation,3,55,,,NoAct
1625818228.5,fixation,2,238,,,NoAct
1625818228.5,fixation,1,743,,,PerfumeSession
1625818230.0,stimulus,2,239,,,NoAct
1625818230.0,stimulus,3,56,,,NoAct
1625818230.0,stimulus,1,744,,,PerfumeSession
1625818230.5,fixation,1,744,,,PerfumeSession
1625818230.5,fixation,2,239,,,NoAct
1625818230.5,fixation,3,56,,,NoAct
1625818232.0,stimulus,3,57,,,NoAct
1625818232.0,stimulus,1,745,,,PerfumeSession
1625818232.0,stimulus,2,240,,,NoAct
1625818232.5,fixation,3,57,,,NoAct
1625818232.5,fixation,1,745,,,PerfumeSession
1625818232.5,fixation,2,240,,,NoAct
1625818234.0,stimulus,2,241,,,NoAct
1625818234.0,stimulus,1,746,,,PerfumeSession
1625818234.0,stimulus,3,58,,,NoAct
1625818234.5,fixation,3,58,,,NoAct
1625818234.5,fixation,2,241,,,NoAct
1625818234.5,fixation,1,746,,,PerfumeSession
1625818236.0,stimulus,3,59,,,NoAct
1625818236.0,stimulus,2,242,,,NoAct
1625818236.0,stimulus,1,747,,,PerfumeSession
1625818236.5,fixation,1,747,,,PerfumeSession
1625818236.5,fixation,2,242,,,NoAct
1625818236.5,fixation,3,59,,,NoAct
1625818238.0,stimulus,2,243,,,NoAct
1625818238.0,stimulus,3,60,,,NoAct
1625818238.0,stimulus,1,748,,,PerfumeSession
1625818238.5,fixation,2,243,,,NoAct
1625818238.5,fixation,3,60,,,NoAct
1625818238.5,fixation,1,748,,,PerfumeSession
1625818240.0,stimulus,1,749,,,PerfumeSession
1625818240.0,stimulus,3,61,,,NoAct
1625818240.0,stimulus,2,244,,,NoAct
1625818240.5,fixation,1,749,,,PerfumeSession
1625818240.5,fixation,3,61,,,NoAct
1625818240.5,fixation,2,244,,,NoAct
1625818242.0,stimulus,2,245,,,NoAct
1625818242.0,stimulus,3,62,,,NoAct
1625818242.0,stimulus,1,750,,,PerfumeSession
1625818242.5,fixation,1,750,,,PerfumeSession
1625818242.5,fixation,3,62,,,NoAct
1625818242.5,fixation,2,245,,,NoAct
1625818244.0,stimulus,2,246,,,NoAct
1625818244.0,stimulus,3,63,,,NoAct
1625818244.0,stimulus,1,751,,,CoffeeSession
1625818244.5,fixation,1,751,,,CoffeeSession
1625818244.5,fixation,2,246,,,NoAct
1625818244.5,fixation,3,63,,,NoAct
1625818246.0,stimulus,2,247,,,NoAct
1625818246.0,stimulus,3,64,,,NoAct
1625818246.0,stimulus,1,752,,,CoffeeSession
1625818246.5,fixation,2,247,,,NoAct
1625818246.5,fixation,3,64,,,NoAct
1625818246.5,fixation,1,752,,,CoffeeSession
1625818248.0,stimulus,2,248,,,NoAct
1625818248.0,stimulus,3,65,,,NoAct
1625818248.0,stimulus,1,753,,,CoffeeSession
1625818248.5,fixation,2,248,,,NoAct
1625818248.5,fixation,1,753,,,CoffeeSession
1625818248.5,fixation,3,65,,,NoAct
1625818250.0,stimulus,1,754,,,CoffeeSession
1625818250.0,stimulus,3,66,,,NoAct
1625818250.0,stimulus,2,249,,,NoAct
1625818250.5,fixation,2,249,,,NoAct
1625818250.5,fixation,1,754,,,CoffeeSession
1625818250.5,fixation,3,66,,,NoAct
1625818252.0,stimulus,2,250,,,NoAct
1625818252.0,stimulus,1,755,,,CoffeeSession
1625818252.0,stimulus,3,67,,,NoAct
1625818252.5,fixation,2,250,,,NoAct
1625818252.5,fixation,3,67,,,NoAct
1625818252.5,fixation,1,755,,,CoffeeSession
1625818254.0,stimulus,1,756,,,CoffeeSession
1625818254.0,stimulus,3,68,,,NoAct
1625818254.0,stimulus,2,251,,,NoAct
1625818254.5,fixation,2,251,,,NoAct
1625818254.5,fixation,1,756,,,CoffeeSession
1625818254.5,fixation,3,68,,,NoAct
1625818256.0,stimulus,1,757,,,CoffeeSession
1625818256.0,stimulus,3,69,,,NoAct
1625818256.0,stimulus,2,252,,,NoAct
1625818256.5,fixation,2,252,,,NoAct
1625818256.5,fixation,3,69,,,NoAct
1625818256.5,fixation,1,757,,,CoffeeSession
1625818258.0,stimulus,1,758,,,CoffeeSession
1625818258.0,stimulus,3,70,,,NoAct
1625818258.0,stimulus,2,253,,,NoAct
1625818258.5,fixation,3,70,,,NoAct
1625818258.5,fixation,1,758,,,CoffeeSession
1625818258.5,fixation,2,253,,,NoAct
1625818260.0,stimulus,2,254,,,NoAct
1625818260.0,stimulus,1,759,,,CoffeeSession
1625818260.0,stimulus,3,71,,,NoAct
1625818260.5,fixation,3,71,,,NoAct
1625818260.5,fixation,1,759,,,CoffeeSession
1625818260.5,fixation,2,254,,,NoAct
1625818262.0,stimulus,1,760,,,CoffeeSession
1625818262.0,stimulus,2,255,,,NoAct
1625818262.0,stimulus,3,72,,,NoAct
1625818262.5,fixation,3,72,,,NoAct
1625818262.5,fixation,2,255,,,NoAct
1625818262.5,fixation,1,760,,,CoffeeSession
1625818264.0,stimulus,1,761,,,CoffeeSession
1625818264.0,stimulus,2,256,,,NoAct
1625818264.0,stimulus,3,73,,,NoAct
1625818264.5,fixation,3,73,,,NoAct
1625818264.5,fixation,2,256,,,NoAct
1625818264.5,fixation,1,761,,,CoffeeSession
1625818266.0,stimulus,1,762,,,CoffeeSession
1625818266.0,stimulus,3,74,,,NoAct
1625818266.0,stimulus,2,257,,,NoAct
1625818266.5,fixation,2,257,,,NoAct
1625818266.5,fixation,1,762,,,CoffeeSession
1625818266.5,fixation,3,74,,,NoAct
1625818268.0,stimulus,3,75,,,NoAct
1625818268.0,stimulus,1,763,,,CoffeeSession
1625818268.0,stimulus,2,258,,,NoAct
1625818268.5,fixation,2,258,,,NoAct
1625818268.5,fixation,1,763,,,CoffeeSession
1625818268.5,fixation,3,75,,,NoAct
1625818270.0,stimulus,1,764,,,CoffeeSession
1625818270.0,stimulus,3,76,,,NoAct
1625818270.0,stimulus,2,259,,,NoAct
1625818270.5,fixation,2,259,,,NoAct
1625818270.5,fixation,3,76,,,NoAct
1625818270.5,fixation,1,764,,,CoffeeSession
1625818272.0,stimulus,3,77,,,NoAct
1625818272.0,stimulus,1,765,,,CoffeeSession
1625818272.0,stimulus,2,260,,,NoAct
1625818272.5,fixation,2,260,,,NoAct
1625818272.5,fixation,1,765,,,CoffeeSession
1625818272.5,fixation,3,77,,,NoAct
1625818274.0,stimulus,1,766,,,CoffeeSession
1625818274.0,stimulus,3,78,,,NoAct
1625818274.0,stimulus,2,261,,,NoAct
1625818274.5,fixation,2,261,,,NoAct
1625818274.5,fixation,3,78,,,NoAct
1625818274.5,fixation,1,766,,,CoffeeSession
1625818276.0,stimulus,3,79,,,NoAct
1625818276.0,stimulus,1,767,,,CoffeeSession
1625818276.0,stimulus,2,262,,,NoAct
1625818276.5,fixation,2,262,,,NoAct
1625818276.5,fixation,1,767,,,CoffeeSession
1625818276.5,fixation,3,79,,,NoAct
1625818278.0,stimulus,3,80,,,NoAct
1625818278.0,stimulus,2,263,,,NoAct
1625818278.0,stimulus,1,768,,,CoffeeSession
1625818278.5,fixation,2,263,,,NoAct
1625818278.5,fixation,3,80,,,NoAct
1625818278.5,fixation,1,768,,,CoffeeSession
1625818280.0,stimulus,3,81,,,NoAct
1625818280.0,stimulus,1,769,,,CoffeeSession
1625818280.0,stimulus,2,264,,,NoAct
1625818280.5,fixation,2,264,,,NoAct
1625818280.5,fixation,1,769,,,CoffeeSession
1625818280.5,fixation,3,81,,,NoAct
1625818282.0,stimulus,1,770,,,CoffeeSession
1625818282.0,stimulus,3,82,,,NoAct
1625818282.0,stimulus,2,265,,,NoAct
1625818282.5,fixation,2,265,,,NoAct
1625818282.5,fixation,1,770,,,CoffeeSession
1625818282.5,fixation,3,82,,,NoAct
1625818284.0,stimulus,3,83,,,NoAct
1625818284.0,stimulus,1,771,,,CoffeeSession
1625818284.0,stimulus,2,266,,,NoAct
1625818284.5,fixation,2,266,,,NoAct
1625818284.5,fixation,1,771,,,CoffeeSession
1625818284.5,fixation,3,83,,,NoAct
1625818286.0,stimulus,1,772,,,CoffeeSession
1625818286.0,stimulus,3,84,,,NoAct
1625818286.0,stimulus,2,267,,,NoAct
1625818286.5,fixation,2,267,,,NoAct
1625818286.5,fixation,3,84,,,NoAct
1625818286.5,fixation,1,772,,,CoffeeSession
1625818288.0,stimulus,3,85,,,NoAct
1625818288.0,stimulus,1,773,,,CoffeeSession
1625818288.0,stimulus,2,268,,,NoAct
1625818288.5,fixation,2,268,,,NoAct
1625818288.5,fixation,1,773,,,CoffeeSession
1625818288.5,fixation,3,85,,,NoAct
1625818290.0,stimulus,2,269,,,NoAct
1625818290.0,stimulus,1,774,,,CoffeeSession
1625818290.0,stimulus,3,86,,,NoAct
1625818290.5,fixation,3,86,,,NoAct
1625818290.5,fixation,1,774,,,CoffeeSession
1625818290.5,fixation,2,269,,,NoAct
1625818292.0,stimulus,2,270,,,NoAct
1625818292.0,stimulus,3,87,,,NoAct
1625818292.0,stimulus,1,775,,,CoffeeSession
1625818292.5,fixation,3,87,,,NoAct
1625818292.5,fixation,1,775,,,CoffeeSession
1625818292.5,fixation,2,270,,,NoAct
1625818294.0,stimulus,1,776,,,CoffeeSession
1625818294.0,stimulus,2,271,,,NoAct
1625818294.0,stimulus,3,88,,,NoAct
1625818294.5,fixation,3,88,,,NoAct
1625818294.5,fixation,1,776,,,CoffeeSession
1625818294.5,fixation,2,271,,,NoAct
1625818296.0,stimulus,1,777,,,CoffeeSession
1625818296.0,stimulus,3,89,,,NoAct
1625818296.0,stimulus,2,272,,,NoAct
1625818296.5,fixation,3,89,,,NoAct
1625818296.5,fixation,1,777,,,CoffeeSession
1625818296.5,fixation,2,272,,,NoAct
1625818298.0,stimulus,2,273,,,NoAct
1625818298.0,stimulus,1,778,,,CoffeeSession
1625818298.0,stimulus,3,90,,,NoAct
1625818298.5,fixation,3,90,,,NoAct
1625818298.5,fixation,2,273,,,NoAct
1625818298.5,fixation,1,778,,,CoffeeSession
1625818300.0,stimulus,1,779,,,CoffeeSession
1625818300.0,stimulus,2,274,,,NoAct
1625818300.0,stimulus,3,91,,,NoAct
1625818300.5,fixation,3,91,,,NoAct
1625818300.5,fixation,2,274,,,NoAct
1625818300.5,fixation,1,779,,,CoffeeSession
1625818302.0,stimulus,3,92,,,NoAct
1625818302.0,stimulus,2,275,,,NoAct
1625818302.0,stimulus,1,780,,,CoffeeSession
1625818302.5,fixation,3,92,,,NoAct
1625818302.5,fixation,2,275,,,NoAct
1625818302.5,fixation,1,780,,,CoffeeSession
1625818304.0,stimulus,3,93,,,NoAct
1625818304.0,stimulus,2,276,,,NoAct
1625818304.0,stimulus,1,781,,,CoffeeSession
1625818304.5,fixation,2,276,,,NoAct
1625818304.5,fixation,1,781,,,CoffeeSession
1625818304.5,fixation,3,93,,,NoAct
1625818306.0,stimulus,1,782,,,CoffeeSession
1625818306.0,stimulus,3,94,,,NoAct
1625818306.0,stimulus,2,277,,,NoAct
1625818306.5,fixation,3,94,,,NoAct
1625818306.5,fixation,1,782,,,CoffeeSession
1625818306.5,fixation,2,277,,,NoAct
1625818308.0,stimulus,3,95,,,NoAct
1625818308.0,stimulus,1,783,,,CoffeeSession
1625818308.0,stimulus,2,278,,,NoAct
1625818308.5,fixation,2,278,,,NoAct
1625818308.5,fixation,1,783,,,CoffeeSession
1625818308.5,fixation,3,95,,,NoAct
1625818310.0,stimulus,2,279,,,NoAct
1625818310.0,stimulus,3,96,,,NoAct
1625818310.0,stimulus,1,784,,,CoffeeSession
1625818310.5,fixation,3,96,,,NoAct
1625818310.5,fixation,1,784,,,CoffeeSession
1625818310.5,fixation,2,279,,,NoAct
1625818312.0,stimulus,2,280,,,NoAct
1625818312.0,stimulus,1,785,,,CoffeeSession
1625818312.0,stimulus,3,97,,,NoAct
1625818312.5,fixation,1,785,,,CoffeeSession
1625818312.5,fixation,3,97,,,NoAct
1625818312.5,fixation,2,280,,,NoAct
1625818314.0,stimulus,2,281,,,NoAct
1625818314.0,stimulus,3,98,,,NoAct
1625818314.0,stimulus,1,786,,,CoffeeSession
1625818314.5,fixation,2,281,,,NoAct
1625818314.5,fixation,3,98,,,NoAct
1625818314.5,fixation,1,786,,,CoffeeSession
1625818316.0,stimulus,2,282,,,NoAct
1625818316.0,stimulus,1,787,,,CoffeeSession
1625818316.0,stimulus,3,99,,,NoAct
1625818316.5,fixation,3,99,,,NoAct
1625818316.5,fixation,1,787,,,CoffeeSession
1625818316.5,fixation,2,282,,,NoAct
1625818318.0,stimulus,2,283,,,NoAct
1625818318.0,stimulus,3,100,,,NoAct
1625818318.0,stimulus,1,788,,,CoffeeSession
1625818318.5,fixation,1,788,,,CoffeeSession
1625818318.5,fixation,3,100,,,NoAct
1625818318.5,fixation,2,283,,,NoAct
1625818320.0,stimulus,2,284,,,NoAct
1625818320.0,stimulus,1,789,,,CoffeeSession
1625818320.0,stimulus,3,101,,,NoAct
1625818320.5,fixation,3,101,,,NoAct
1625818320.5,fixation,2,284,,,NoAct
1625818320.5,fixation,1,789,,,CoffeeSession
1625818322.0,stimulus,1,790,,,CoffeeSession
1625818322.0,stimulus,3,102,,,NoAct
1625818322.0,stimulus,2,285,,,NoAct
1625818322.5,fixation,3,102,,,NoAct
1625818322.5,fixation,1,790,,,CoffeeSession
1625818322.5,fixation,2,285,,,NoAct
1625818324.0,stimulus,2,286,,,NoAct
1625818324.0,stimulus,3,103,,,NoAct
1625818324.0,stimulus,1,791,,,CoffeeSession
1625818324.5,fixation,3,103,,,NoAct
1625818324.5,fixation,2,286,,,NoAct
1625818324.5,fixation,1,791,,,CoffeeSession
1625818326.0,stimulus,1,792,,,CoffeeSession
1625818326.0,stimulus,2,287,,,NoAct
1625818326.0,stimulus,3,104,,,NoAct
1625818326.5,fixation,2,287,,,NoAct
1625818326.5,fixation,1,792,,,CoffeeSession
1625818326.5,fixation,3,104,,,NoAct
1625818328.0,stimulus,3,105,,,NoAct
1625818328.0,stimulus,1,793,,,CoffeeSession
1625818328.0,stimulus,2,288,,,NoAct
1625818328.5,fixation,2,288,,,NoAct
1625818328.5,fixation,1,793,,,CoffeeSession
1625818328.5,fixation,3,105,,,NoAct
1625818330.0,stimulus,3,106,,,NoAct
1625818330.0,stimulus,1,794,,,CoffeeSession
1625818330.0,stimulus,2,289,,,NoAct
1625818330.5,fixation,3,106,,,NoAct
1625818330.5,fixation,1,794,,,CoffeeSession
1625818330.5,fixation,2,289,,,NoAct
1625818332.0,stimulus,2,290,,,NoAct
1625818332.0,stimulus,1,795,,,CoffeeSession
1625818332.0,stimulus,3,107,,,NoAct
1625818332.5,fixation,3,107,,,NoAct
1625818332.5,fixation,1,795,,,CoffeeSession
1625818332.5,fixation,2,290,,,NoAct
1625818334.0,stimulus,3,108,,,NoAct
1625818334.0,stimulus,1,796,,,CoffeeSession
1625818334.0,stimulus,2,291,,,NoAct
1625818334.5,fixation,3,108,,,NoAct
1625818334.5,fixation,2,291,,,NoAct
1625818334.5,fixation,1,796,,,CoffeeSession
1625818336.0,stimulus,1,797,,,CoffeeSession
1625818336.0,stimulus,2,292,,,NoAct
1625818336.0,stimulus,3,109,,,NoAct
1625818336.5,fixation,2,292,,,NoAct
1625818336.5,fixation,3,109,,,NoAct
1625818336.5,fixation,1,797,,,CoffeeSession
1625818338.0,stimulus,1,798,,,CoffeeSession
1625818338.0,stimulus,2,293,,,NoAct
1625818338.0,stimulus,3,110,,,NoAct
1625818338.5,fixation,3,110,,,NoAct
