event_time_s,trial_type,session_idx,trial_idx,RT_s,ACC,session_type
1630317562.0,stimulus,1,1,,,PracticeSession
1630317562.5,fixation,1,1,,,PracticeSession
1630317564.0,stimulus,1,2,,,PracticeSession
1630317564.5,fixation,1,2,,,PracticeSession
1630317566.0,stimulus,1,3,,,PracticeSession
1630317566.5,fixation,1,3,,,PracticeSession
1630317568.0,stimulus,1,4,,,PracticeSession
1630317568.5,fixation,1,4,,,PracticeSession
1630317570.0,stimulus,1,5,,,PracticeSession
1630317570.5,fixation,1,5,,,PracticeSession
1630317572.0,stimulus,1,6,,,PracticeSession
1630317572.5,fixation,1,6,,,PracticeSession
1630317574.0,stimulus,1,7,,,PracticeSession
1630317574.5,fixation,1,7,,,PracticeSession
1630317576.0,stimulus,1,8,,,PracticeSession
1630317576.5,fixation,1,8,,,PracticeSession
1630317578.0,stimulus,1,9,,,PracticeSession
1630317578.5,fixation,1,9,,,PracticeSession
1630317580.0,stimulus,1,10,,,PracticeSession
1630317580.5,fixation,1,10,,,PracticeSession
1630317582.0,stimulus,1,11,,,PracticeSession
1630317582.5,fixation,1,11,,,PracticeSession
1630317584.0,stimulus,1,12,,,PracticeSession
1630317584.5,fixation,1,12,,,PracticeSession
1630317586.0,stimulus,1,13,,,PracticeSession
1630317586.5,fixation,1,13,,,PracticeSession
1630317588.0,stimulus,1,14,,,PracticeSession
1630317588.5,fixation,1,14,,,PracticeSession
1630317590.0,stimulus,1,15,,,PracticeSession
1630317590.5,fixation,1,15,,,PracticeSession
1630317592.0,stimulus,1,16,,,PracticeSession
1630317592.5,fixation,1,16,,,PracticeSession
1630317594.0,stimulus,1,17,,,PracticeSession
1630317594.5,fixation,1,17,,,PracticeSession
1630317596.0,stimulus,1,18,,,PracticeSession
1630317596.5,fixation,1,18,,,PracticeSession
1630317598.0,stimulus,1,19,,,PracticeSession
1630317598.5,fixation,1,19,,,PracticeSession
1630317600.0,stimulus,1,20,,,PracticeSession
1630317600.5,fixation,1,20,,,PracticeSession
1630317602.0,stimulus,1,21,,,PracticeSession
1630317602.5,fixation,1,21,,,PracticeSession
1630317604.0,stimulus,1,22,,,PracticeSession
1630317604.5,fixation,1,22,,,PracticeSession
1630317606.0,stimulus,1,23,,,PracticeSession
1630317606.5,fixation,1,23,,,PracticeSession
1630317608.0,stimulus,1,24,,,PracticeSession
1630317608.5,fixation,1,24,,,PracticeSession
1630317610.0,stimulus,1,25,,,PracticeSession
1630317610.5,fixation,1,25,,,PracticeSession
1630317612.0,stimulus,1,26,,,PracticeSession
1630317612.5,fixation,1,26,,,PracticeSession
1630317614.0,stimulus,1,27,,,PracticeSession
1630317614.5,fixation,1,27,,,PracticeSession
1630317616.0,stimulus,1,28,,,PracticeSession
1630317616.5,fixation,1,28,,,PracticeSession
1630317618.0,stimulus,1,29,,,PracticeSession
1630317618.5,fixation,1,29,,,PracticeSession
1630317620.0,stimulus,1,30,,,PracticeSession
1630317620.5,fixation,1,30,,,PracticeSession
1630317622.0,stimulus,1,31,,,PracticeSession
1630317622.5,fixation,1,31,,,PracticeSession
1630317624.0,stimulus,1,32,,,PracticeSession
1630317624.5,fixation,1,32,,,PracticeSession
1630317626.0,stimulus,1,33,,,PracticeSession
1630317626.5,fixation,1,33,,,PracticeSession
1630317628.0,stimulus,1,34,,,PracticeSession
1630317628.5,fixation,1,34,,,PracticeSession
1630317630.0,stimulus,1,35,,,PracticeSession
1630317630.5,fixation,1,35,,,PracticeSession
1630317632.0,stimulus,1,36,,,PracticeSession
1630317632.5,fixation,1,36,,,PracticeSession
1630317634.0,stimulus,1,37,,,PracticeSession
1630317634.5,fixation,1,37,,,PracticeSession
1630317636.0,stimulus,1,38,,,PracticeSession
1630317636.5,fixation,1,38,,,PracticeSession
1630317638.0,stimulus,1,39,,,PracticeSession
1630317638.5,fixation,1,39,,,PracticeSession
1630317640.0,stimulus,1,40,,,PracticeSession
1630317640.5,fixation,1,40,,,PracticeSession
1630317642.0,stimulus,1,41,,,PracticeSession
1630317642.5,fixation,1,41,,,PracticeSession
1630317644.0,stimulus,1,42,,,PracticeSession
1630317644.5,fixation,1,42,,,PracticeSession
1630317646.0,stimulus,1,43,,,PracticeSession
1630317646.5,fixation,1,43,,,PracticeSession
1630317648.0,stimulus,1,44,,,PracticeSession
1630317648.5,fixation,1,44,,,PracticeSession
1630317650.0,stimulus,1,45,,0.0,NoAct
1630317651.052,fixation,1,45,0.552,1.0,NoAct
1630317652.0,stimulus,1,46,,0.0,NoAct
1630317653.062,fixation,1,46,0.562,1.0,NoAct
1630317654.0,stimulus,1,47,,0.0,NoAct
1630317655.222,fixation,1,47,0.722,1.0,NoAct
1630317656.0,stimulus,1,48,,0.0,NoAct
1630317656.882,fixation,1,48,0.382,1.0,NoAct
1630317658.0,stimulus,1,49,,0.0,NoAct
1630317658.872,fixation,1,49,0.372,1.0,NoAct
1630317660.0,stimulus,1,50,,0.0,NoAct
1630317660.912,fixation,1,50,0.412,1.0,NoAct
1630317662.0,stimulus,1,51,,0.0,NoAct
1630317662.912,fixation,1,51,0.412,0.0,NoAct
1630317664.0,stimulus,1,52,,0.0,NoAct
1630317664.869,fixation,1,52,0.369,1.0,NoAct
1630317666.0,stimulus,1,53,,0.0,NoAct
1630317666.837,fixation,1,53,0.337,1.0,NoAct
1630317668.0,stimulus,1,54,,0.0,NoAct
1630317668.915,fixation,1,54,0.415,1.0,NoAct
1630317670.0,stimulus,1,55,,0.0,NoAct
1630317670.962,fixation,1,55,0.462,1.0,NoAct
1630317672.0,stimulus,1,56,,0.0,NoAct
1630317672.913,fixation,1,56,0.413,1.0,NoAct
1630317674.0,stimulus,1,57,,0.0,NoAct
1630317675.078,fixation,1,57,0.578,1.0,NoAct
1630317676.0,stimulus,1,58,,0.0,NoAct
1630317676.883,fixation,1,58,0.383,1.0,NoAct
1630317678.0,stimulus,1,59,,0.0,NoAct
1630317678.849,fixation,1,59,0.349,1.0,NoAct
1630317680.0,stimulus,1,60,,0.0,NoAct
1630317680.605,fixation,1,60,0.105,1.0,NoAct
1630317682.0,stimulus,1,61,,0.0,NoAct
1630317682.965,fixation,1,61,0.465,1.0,NoAct
1630317684.0,stimulus,1,62,,0.0,NoAct
1630317685.011,fixation,1,62,0.511,1.0,NoAct
1630317686.0,stimulus,1,63,,0.0,NoAct
1630317686.958,fixation,1,63,0.458,1.0,NoAct
1630317688.0,stimulus,1,64,,0.0,NoAct
1630317689.132,fixation,1,64,0.632,1.0,NoAct
1630317690.0,stimulus,1,65,,0.0,NoAct
1630317690.95,fixation,1,65,0.45,1.0,NoAct
1630317692.0,stimulus,1,66,,0.0,NoAct
1630317692.992,fixation,1,66,0.492,1.0,NoAct
1630317694.0,stimulus,1,67,,0.0,NoAct
1630317694.973,fixation,1,67,0.473,1.0,NoAct
1630317696.0,stimulus,1,68,,0.0,NoAct
1630317696.846,fixation,1,68,0.346,1.0,NoAct
1630317698.0,stimulus,1,69,,0.0,NoAct
1630317698.744,fixation,1,69,0.244,1.0,NoAct
1630317700.0,stimulus,1,70,,0.0,NoAct
1630317700.98,fixation,1,70,0.48,1.0,NoAct
1630317702.0,stimulus,1,71,,0.0,NoAct
1630317703.043,fixation,1,71,0.543,1.0,NoAct
1630317704.0,stimulus,1,72,,0.0,NoAct
1630317705.648,fixation,1,72,1.148,1.0,NoAct
1630317706.0,stimulus,1,73,,0.0,NoAct
1630317707.215,fixation,1,73,0.715,1.0,NoAct
1630317708.0,stimulus,1,74,,0.0,NoAct
1630317708.916,fixation,1,74,0.416,0.0,NoAct
1630317710.0,stimulus,1,75,,0.0,NoAct
1630317711.164,fixation,1,75,0.664,1.0,NoAct
1630317712.0,stimulus,1,76,,0.0,NoAct
1630317713.713,fixation,1,76,1.213,0.0,NoAct
1630317714.0,stimulus,1,77,,0.0,NoAct
1630317715.03,fixation,1,77,0.53,1.0,NoAct
1630317716.0,stimulus,1,78,,0.0,NoAct
1630317717.591,fixation,1,78,1.091,1.0,NoAct
1630317718.0,stimulus,1,79,,0.0,NoAct
1630317719.353,fixation,1,79,0.853,0.0,NoAct
1630317720.0,stimulus,1,80,,0.0,NoAct
1630317721.687,fixation,1,80,1.187,1.0,NoAct
1630317722.0,stimulus,1,81,,0.0,NoAct
1630317723.61,fixation,1,81,1.11,1.0,NoAct
1630317724.0,stimulus,1,82,,0.0,NoAct
1630317725.098,fixation,1,82,0.598,1.0,NoAct
1630317726.0,stimulus,1,83,,0.0,NoAct
1630317727.17,fixation,1,83,0.67,1.0,NoAct
1630317728.0,stimulus,1,84,,0.0,NoAct
1630317729.028,fixation,1,84,0.528,1.0,NoAct
1630317730.0,stimulus,1,85,,0.0,NoAct
1630317731.179,fixation,1,85,0.679,1.0,NoAct
1630317732.0,stimulus,1,86,,0.0,NoAct
1630317733.035,fixation,1,86,0.535,1.0,NoAct
1630317734.0,stimulus,1,87,,0.0,NoAct
1630317734.966,fixation,1,87,0.466,1.0,NoAct
1630317736.0,stimulus,1,88,,0.0,NoAct
1630317737.067,fixation,1,88,0.567,1.0,NoAct
1630317738.0,stimulus,1,89,,0.0,NoAct
1630317738.967,fixation,1,89,0.467,1.0,NoAct
1630317740.0,stimulus,1,90,,0.0,NoAct
1630317740.875,fixation,1,90,0.375,1.0,NoAct
1630317742.0,stimulus,1,91,,0.0,NoAct
1630317742.741,fixation,1,91,0.241,1.0,NoAct
1630317744.0,stimulus,1,92,,0.0,NoAct
1630317744.751,fixation,1,92,0.251,1.0,NoAct
1630317746.0,stimulus,1,93,,0.0,NoAct
1630317747.092,fixation,1,93,0.592,0.0,NoAct
1630317748.0,stimulus,1,94,,0.0,NoAct
1630317749.58,fixation,1,94,1.08,0.0,NoAct
1630317750.0,stimulus,1,95,,0.0,NoAct
1630317750.5,fixation,1,95,,0.0,NoAct
1630317752.0,stimulus,1,96,,0.0,NoAct
1630317753.677,fixation,1,96,1.177,1.0,NoAct
1630317754.0,stimulus,1,97,,0.0,NoAct
1630317755.088,fixation,1,97,0.588,1.0,NoAct
1630317756.0,stimulus,1,98,,0.0,NoAct
1630317756.92,fixation,1,98,0.42,1.0,NoAct
1630317758.0,stimulus,1,99,,0.0,NoAct
1630317759.239,fixation,1,99,0.739,1.0,NoAct
1630317760.0,stimulus,1,100,,0.0,NoAct
1630317761.069,fixation,1,100,0.569,1.0,NoAct
1630317762.0,stimulus,1,101,,0.0,NoAct
1630317763.361,fixation,1,101,0.861,1.0,NoAct
1630317764.0,stimulus,1,102,,0.0,NoAct
1630317764.991,fixation,1,102,0.491,1.0,NoAct
1630317766.0,stimulus,1,103,,0.0,NoAct
1630317767.012,fixation,1,103,0.512,1.0,NoAct
1630317768.0,stimulus,1,104,,0.0,NoAct
1630317769.132,fixation,1,104,0.632,1.0,NoAct
1630317770.0,stimulus,1,105,,0.0,NoAct
1630317771.016,fixation,1,105,0.516,1.0,NoAct
1630317772.0,stimulus,1,106,,0.0,NoAct
1630317772.939,fixation,1,106,0.439,1.0,NoAct
1630317774.0,stimulus,1,107,,0.0,NoAct
1630317775.747,fixation,1,107,1.247,1.0,NoAct
1630317776.0,stimulus,1,108,,0.0,NoAct
1630317777.254,fixation,1,108,0.754,1.0,NoAct
1630317778.0,stimulus,1,109,,0.0,NoAct
1630317779.398,fixation,1,109,0.898,1.0,NoAct
1630317780.0,stimulus,1,110,,0.0,NoAct
1630317781.337,fixation,1,110,0.837,1.0,NoAct
1630317782.0,stimulus,1,111,,0.0,NoAct
1630317783.058,fixation,1,111,0.558,1.0,NoAct
1630317784.0,stimulus,1,112,,0.0,NoAct
1630317784.783,fixation,1,112,0.283,1.0,NoAct
1630317786.0,stimulus,1,113,,0.0,NoAct
1630317786.749,fixation,1,113,0.249,1.0,NoAct
1630317788.0,stimulus,1,114,,0.0,NoAct
1630317788.766,fixation,1,114,0.266,1.0,NoAct
1630317790.0,stimulus,1,115,,0.0,NoAct
1630317790.866,fixation,1,115,0.366,1.0,NoAct
1630317792.0,stimulus,1,116,,0.0,NoAct
1630317792.863,fixation,1,116,0.363,1.0,NoAct
1630317794.0,stimulus,1,117,,0.0,NoAct
1630317794.921,fixation,1,117,0.421,1.0,NoAct
1630317796.0,stimulus,1,118,,0.0,NoAct
1630317796.882,fixation,1,118,0.382,1.0,NoAct
1630317798.0,stimulus,1,119,,0.0,NoAct
1630317798.925,fixation,1,119,0.425,1.0,NoAct
1630317800.0,stimulus,1,120,,0.0,NoAct
1630317800.866,fixation,1,120,0.366,1.0,NoAct
1630317802.0,stimulus,1,121,,0.0,NoAct
1630317802.928,fixation,1,121,0.428,1.0,NoAct
1630317804.0,stimulus,1,122,,0.0,NoAct
1630317804.982,fixation,1,122,0.482,1.0,NoAct
1630317806.0,stimulus,1,123,,0.0,NoAct
1630317807.033,fixation,1,123,0.533,1.0,NoAct
1630317808.0,stimulus,1,124,,0.0,NoAct
1630317808.986,fixation,1,124,0.486,1.0,NoAct
1630317810.0,stimulus,1,125,,0.0,NoAct
1630317811.055,fixation,1,125,0.555,1.0,NoAct
1630317812.0,stimulus,1,126,,0.0,NoAct
1630317812.965,fixation,1,126,0.465,1.0,NoAct
1630317814.0,stimulus,1,127,,0.0,NoAct
1630317814.98,fixation,1,127,0.48,1.0,NoAct
1630317816.0,stimulus,1,128,,0.0,NoAct
1630317816.96,fixation,1,128,0.46,1.0,NoAct
1630317818.0,stimulus,1,129,,0.0,NoAct
1630317818.922,fixation,1,129,0.422,1.0,NoAct
1630317820.0,stimulus,1,130,,0.0,NoAct
1630317820.836,fixation,1,130,0.336,1.0,NoAct
1630317822.0,stimulus,1,131,,0.0,NoAct
1630317822.85,fixation,1,131,0.35,1.0,NoAct
1630317824.0,stimulus,1,132,,0.0,NoAct
1630317825.069,fixation,1,132,0.569,1.0,NoAct
1630317826.0,stimulus,1,133,,0.0,NoAct
1630317827.126,fixation,1,133,0.626,1.0,NoAct
1630317828.0,stimulus,1,134,,0.0,NoAct
1630317828.947,fixation,1,134,0.447,1.0,NoAct
1630317830.0,stimulus,1,135,,0.0,NoAct
1630317830.713,fixation,1,135,0.213,1.0,NoAct
1630317832.0,stimulus,1,136,,0.0,NoAct
1630317832.863,fixation,1,136,0.363,1.0,NoAct
1630317834.0,stimulus,1,137,,0.0,NoAct
1630317835.218,fixation,1,137,0.718,1.0,NoAct
1630317836.0,stimulus,1,138,,0.0,NoAct
1630317837.167,fixation,1,138,0.667,1.0,NoAct
1630317838.0,stimulus,1,139,,0.0,NoAct
1630317839.094,fixation,1,139,0.594,1.0,NoAct
1630317840.0,stimulus,1,140,,0.0,NoAct
1630317840.952,fixation,1,140,0.452,1.0,NoAct
1630317842.0,stimulus,1,141,,0.0,NoAct
1630317843.145,fixation,1,141,0.645,1.0,NoAct
1630317844.0,stimulus,1,142,,0.0,NoAct
1630317845.132,fixation,1,142,0.632,1.0,NoAct
1630317846.0,stimulus,1,143,,0.0,NoAct
1630317847.071,fixation,1,143,0.571,1.0,NoAct
1630317848.0,stimulus,1,144,,0.0,NoAct
1630317849.033,fixation,1,144,0.533,1.0,NoAct
1630317850.0,stimulus,1,145,,0.0,NoAct
1630317851.271,fixation,1,145,0.771,0.0,NoAct
1630317852.0,stimulus,1,146,,0.0,NoAct
1630317853.4,fixation,1,146,0.9,1.0,NoAct
1630317854.0,stimulus,1,147,,0.0,NoAct
1630317854.987,fixation,1,147,0.487,0.0,NoAct
1630317856.0,stimulus,1,148,,0.0,NoAct
1630317857.3,fixation,1,148,0.8,1.0,NoAct
1630317858.0,stimulus,1,149,,0.0,NoAct
1630317859.058,fixation,1,149,0.558,1.0,NoAct
1630317860.0,stimulus,1,150,,0.0,NoAct
1630317861.386,fixation,1,150,0.886,1.0,NoAct
1630317862.0,stimulus,1,151,,0.0,NoAct
1630317863.575,fixation,1,151,1.075,0.0,NoAct
1630317864.0,stimulus,1,152,,0.0,NoAct
1630317864.5,fixation,1,152,,0.0,NoAct
1630317866.022,stimulus,1,153,0.022,1.0,NoAct
1630317866.5,fixation,1,153,,0.0,NoAct
1630317868.0,stimulus,1,154,,0.0,NoAct
1630317869.256,fixation,1,154,0.756,1.0,NoAct
1630317870.0,stimulus,1,155,,0.0,NoAct
1630317870.903,fixation,1,155,0.403,1.0,NoAct
1630317872.0,stimulus,1,156,,0.0,NoAct
1630317872.852,fixation,1,156,0.352,1.0,NoAct
1630317874.0,stimulus,1,157,,0.0,NoAct
1630317874.754,fixation,1,157,0.254,1.0,NoAct
1630317876.0,stimulus,1,158,,0.0,NoAct
1630317876.646,fixation,1,158,0.146,1.0,NoAct
1630317878.0,stimulus,1,159,,0.0,NoAct
1630317878.71,fixation,1,159,0.21,1.0,NoAct
1630317880.0,stimulus,1,160,,0.0,NoAct
1630317880.831,fixation,1,160,0.331,1.0,NoAct
1630317882.0,stimulus,1,161,,0.0,NoAct
1630317882.924,fixation,1,161,0.424,1.0,NoAct
1630317884.0,stimulus,1,162,,0.0,NoAct
1630317884.929,fixation,1,162,0.429,1.0,NoAct
1630317886.0,stimulus,1,163,,0.0,NoAct
1630317886.969,fixation,1,163,0.469,1.0,NoAct
1630317888.0,stimulus,1,164,,0.0,NoAct
1630317889.051,fixation,1,164,0.551,1.0,NoAct
1630317890.0,stimulus,1,165,,0.0,NoAct
1630317890.903,fixation,1,165,0.403,1.0,NoAct
1630317892.0,stimulus,1,166,,0.0,NoAct
1630317892.89,fixation,1,166,0.39,1.0,NoAct
1630317894.0,stimulus,1,167,,0.0,NoAct
1630317895.026,fixation,1,167,0.526,1.0,NoAct
1630317896.0,stimulus,1,168,,0.0,NoAct
1630317896.918,fixation,1,168,0.418,1.0,NoAct
1630317898.0,stimulus,1,169,,0.0,NoAct
1630317899.051,fixation,1,169,0.551,1.0,NoAct
1630317900.0,stimulus,1,170,,0.0,NoAct
1630317901.084,fixation,1,170,0.584,1.0,NoAct
1630317902.0,stimulus,1,171,,0.0,NoAct
1630317903.228,fixation,1,171,0.728,1.0,NoAct
1630317904.0,stimulus,1,172,,0.0,NoAct
1630317904.94,fixation,1,172,0.44,1.0,NoAct
1630317906.0,stimulus,1,173,,0.0,NoAct
1630317906.988,fixation,1,173,0.488,1.0,NoAct
1630317908.0,stimulus,1,174,,0.0,NoAct
1630317908.991,fixation,1,174,0.491,1.0,NoAct
1630317910.0,stimulus,1,175,,0.0,NoAct
1630317911.141,fixation,1,175,0.641,0.0,NoAct
1630317912.0,stimulus,1,176,,0.0,NoAct
1630317913.116,fixation,1,176,0.616,1.0,NoAct
1630317914.0,stimulus,1,177,,0.0,NoAct
1630317914.937,fixation,1,177,0.437,1.0,NoAct
1630317916.0,stimulus,1,178,,0.0,NoAct
1630317916.805,fixation,1,178,0.305,1.0,NoAct
1630317918.0,stimulus,1,179,,0.0,NoAct
1630317918.94,fixation,1,179,0.44,1.0,NoAct
1630317920.0,stimulus,1,180,,0.0,NoAct
1630317920.959,fixation,1,180,0.459,1.0,NoAct
1630317922.0,stimulus,1,181,,0.0,NoAct
1630317922.933,fixation,1,181,0.433,1.0,NoAct
1630317924.0,stimulus,1,182,,0.0,NoAct
1630317924.994,fixation,1,182,0.494,1.0,NoAct
1630317926.0,stimulus,1,183,,0.0,NoAct
1630317927.108,fixation,1,183,0.608,1.0,NoAct
1630317928.0,stimulus,1,184,,0.0,NoAct
1630317929.037,fixation,1,184,0.537,1.0,NoAct
1630317930.0,stimulus,1,185,,0.0,NoAct
1630317931.052,fixation,1,185,0.552,1.0,NoAct
1630317932.0,stimulus,1,186,,0.0,NoAct
1630317932.947,fixation,1,186,0.447,1.0,NoAct
1630317934.0,stimulus,1,187,,0.0,NoAct
1630317934.962,fixation,1,187,0.462,1.0,NoAct
1630317936.0,stimulus,1,188,,0.0,NoAct
1630317937.016,fixation,1,188,0.516,1.0,NoAct
1630317938.0,stimulus,1,189,,0.0,NoAct
1630317938.929,fixation,1,189,0.429,1.0,NoAct
1630317940.0,stimulus,1,190,,0.0,NoAct
1630317940.998,fixation,1,190,0.498,1.0,NoAct
1630317942.0,stimulus,1,191,,0.0,NoAct
1630317942.945,fixation,1,191,0.445,1.0,NoAct
1630317944.0,stimulus,1,192,,0.0,NoAct
1630317944.898,fixation,1,192,0.398,1.0,NoAct
1630317946.0,stimulus,1,193,,0.0,NoAct
1630317946.826,fixation,1,193,0.326,1.0,NoAct
1630317948.0,stimulus,1,194,,0.0,NoAct
1630317948.905,fixation,1,194,0.405,1.0,NoAct
1630317950.0,stimulus,1,195,,0.0,NoAct
1630317950.961,fixation,1,195,0.461,1.0,NoAct
1630317952.0,stimulus,1,196,,0.0,NoAct
1630317952.927,fixation,1,196,0.427,1.0,NoAct
1630317954.0,stimulus,1,197,,0.0,NoAct
1630317955.049,fixation,1,197,0.549,1.0,NoAct
1630317956.0,stimulus,1,198,,0.0,NoAct
1630317957.066,fixation,1,198,0.566,1.0,NoAct
1630317958.0,stimulus,1,199,,0.0,NoAct
1630317959.38,fixation,1,199,0.88,1.0,NoAct
1630317960.0,stimulus,1,200,,0.0,NoAct
1630317960.871,fixation,1,200,0.371,1.0,NoAct
1630317962.49,stimulus,1,201,0.49,1.0,NoAct
1630317962.5,fixation,1,201,,0.0,NoAct
1630317964.0,stimulus,1,202,,0.0,NoAct
1630317965.003,fixation,1,202,0.503,1.0,NoAct
1630317966.0,stimulus,1,203,,0.0,NoAct
1630317966.909,fixation,1,203,0.409,1.0,NoAct
1630317968.0,stimulus,1,204,,0.0,NoAct
1630317968.953,fixation,1,204,0.453,1.0,NoAct
1630317970.0,stimulus,1,205,,0.0,NoAct
1630317971.216,fixation,1,205,0.716,1.0,NoAct
1630317972.0,stimulus,1,206,,0.0,NoAct
1630317973.132,fixation,1,206,0.632,1.0,NoAct
1630317974.0,stimulus,1,207,,0.0,NoAct
1630317974.906,fixation,1,207,0.406,0.0,NoAct
1630317976.0,stimulus,1,208,,0.0,NoAct
1630317976.867,fixation,1,208,0.367,1.0,NoAct
1630317978.0,stimulus,1,209,,0.0,NoAct
1630317978.965,fixation,1,209,0.465,1.0,NoAct
1630317980.0,stimulus,1,210,,0.0,NoAct
1630317981.096,fixation,1,210,0.596,1.0,NoAct
1630317982.0,stimulus,1,211,,0.0,NoAct
1630317983.024,fixation,1,211,0.524,1.0,NoAct
1630317984.0,stimulus,1,212,,0.0,NoAct
1630317984.895,fixation,1,212,0.395,1.0,NoAct
1630317986.0,stimulus,1,213,,0.0,NoAct
1630317987.089,fixation,1,213,0.589,1.0,NoAct
1630317988.0,stimulus,1,214,,0.0,NoAct
1630317989.091,fixation,1,214,0.591,1.0,NoAct
1630317990.0,stimulus,1,215,,0.0,NoAct
1630317990.834,fixation,1,215,0.334,1.0,NoAct
1630317992.0,stimulus,1,216,,0.0,NoAct
1630317992.746,fixation,1,216,0.246,1.0,NoAct
1630317994.0,stimulus,1,217,,0.0,NoAct
1630317994.873,fixation,1,217,0.373,0.0,NoAct
1630317996.0,stimulus,1,218,,0.0,NoAct
1630317997.117,fixation,1,218,0.617,1.0,NoAct
1630317998.0,stimulus,1,219,,0.0,NoAct
1630317998.962,fixation,1,219,0.462,1.0,NoAct
1630318000.0,stimulus,1,220,,0.0,NoAct
1630318000.898,fixation,1,220,0.398,1.0,NoAct
1630318002.0,stimulus,1,221,,,NoAct
1630318002.5,fixation,1,221,,,NoAct
1630318004.0,stimulus,1,222,,0.0,NoAct
1630318005.149,fixation,1,222,0.649,1.0,NoAct
1630318006.0,stimulus,1,223,,0.0,NoAct
1630318006.909,fixation,1,223,0.409,1.0,NoAct
1630318008.0,stimulus,1,224,,0.0,NoAct
1630318008.873,fixation,1,224,0.373,1.0,NoAct
1630318010.0,stimulus,1,225,,0.0,NoAct
1630318011.25,fixation,1,225,0.75,1.0,NoAct
1630318012.0,stimulus,1,226,,0.0,NoAct
1630318013.047,fixation,1,226,0.547,1.0,NoAct
1630318014.0,stimulus,1,227,,0.0,NoAct
1630318015.024,fixation,1,227,0.524,1.0,NoAct
1630318016.0,stimulus,1,228,,0.0,NoAct
1630318017.07,fixation,1,228,0.57,1.0,NoAct
1630318018.0,stimulus,1,229,,0.0,NoAct
1630318018.957,fixation,1,229,0.457,1.0,NoAct
1630318020.0,stimulus,1,230,,0.0,NoAct
1630318020.797,fixation,1,230,0.297,0.0,NoAct
1630318022.0,stimulus,1,231,,0.0,NoAct
1630318022.913,fixation,1,231,0.413,1.0,NoAct
1630318024.0,stimulus,1,232,,0.0,NoAct
1630318025.109,fixation,1,232,0.609,1.0,NoAct
1630318026.0,stimulus,1,233,,0.0,NoAct
1630318026.896,fixation,1,233,0.396,0.0,NoAct
1630318028.0,stimulus,1,234,,0.0,NoAct
1630318029.082,fixation,1,234,0.582,1.0,NoAct
1630318030.0,stimulus,1,235,,0.0,NoAct
1630318031.204,fixation,1,235,0.704,0.0,NoAct
1630318032.0,stimulus,1,236,,0.0,NoAct
1630318033.086,fixation,1,236,0.586,1.0,NoAct
1630318034.0,stimulus,1,237,,0.0,NoAct
1630318035.247,fixation,1,237,0.747,1.0,NoAct
1630318036.0,stimulus,1,238,,0.0,NoAct
1630318036.933,fixation,1,238,0.433,1.0,NoAct
1630318038.0,stimulus,1,239,,0.0,NoAct
1630318039.175,fixation,1,239,0.675,1.0,NoAct
1630318040.0,stimulus,1,240,,0.0,NoAct
1630318041.029,fixation,1,240,0.529,0.0,NoAct
1630318042.0,stimulus,1,241,,0.0,NoAct
1630318043.009,fixation,1,241,0.509,1.0,NoAct
1630318044.0,stimulus,1,242,,0.0,NoAct
1630318045.393,fixation,1,242,0.893,1.0,NoAct
1630318046.0,stimulus,1,243,,0.0,NoAct
1630318047.236,fixation,1,243,0.736,1.0,NoAct
1630318048.0,stimulus,1,244,,0.0,NoAct
1630318049.083,fixation,1,244,0.583,1.0,NoAct
1630318050.0,stimulus,1,245,,0.0,NoAct
1630318050.791,fixation,1,245,0.291,1.0,NoAct
1630318052.0,stimulus,1,246,,0.0,NoAct
1630318053.013,fixation,1,246,0.513,1.0,NoAct
1630318054.0,stimulus,1,247,,0.0,NoAct
1630318055.017,fixation,1,247,0.517,1.0,NoAct
1630318056.0,stimulus,1,248,,0.0,NoAct
1630318056.858,fixation,1,248,0.358,1.0,NoAct
1630318058.0,stimulus,1,249,,0.0,NoAct
1630318058.879,fixation,1,249,0.379,1.0,NoAct
1630318060.0,stimulus,1,250,,0.0,NoAct
1630318060.909,fixation,1,250,0.409,1.0,NoAct
1630318062.0,stimulus,1,251,,0.0,NoAct
1630318062.863,fixation,1,251,0.363,1.0,NoAct
1630318064.0,stimulus,1,252,,0.0,NoAct
1630318064.884,fixation,1,252,0.384,1.0,NoAct
1630318066.0,stimulus,1,253,,0.0,NoAct
1630318066.906,fixation,1,253,0.406,1.0,NoAct
1630318068.0,stimulus,1,254,,0.0,NoAct
1630318069.036,fixation,1,254,0.536,1.0,NoAct
1630318070.0,stimulus,1,255,,0.0,NoAct
1630318070.97,fixation,1,255,0.47,1.0,NoAct
1630318072.0,stimulus,1,256,,0.0,NoAct
1630318073.005,fixation,1,256,0.505,1.0,NoAct
1630318074.0,stimulus,1,257,,0.0,NoAct
1630318074.984,fixation,1,257,0.484,1.0,NoAct
1630318076.0,stimulus,1,258,,0.0,NoAct
1630318077.036,fixation,1,258,0.536,1.0,NoAct
1630318078.0,stimulus,1,259,,0.0,NoAct
1630318079.001,fixation,1,259,0.501,1.0,NoAct
1630318080.0,stimulus,1,260,,0.0,NoAct
1630318080.953,fixation,1,260,0.453,1.0,NoAct
1630318082.0,stimulus,1,261,,0.0,NoAct
1630318082.798,fixation,1,261,0.298,1.0,NoAct
1630318084.0,stimulus,1,262,,0.0,NoAct
1630318084.936,fixation,1,262,0.436,1.0,NoAct
1630318086.0,stimulus,1,263,,0.0,NoAct
1630318086.904,fixation,1,263,0.404,1.0,NoAct
1630318088.0,stimulus,1,264,,0.0,NoAct
1630318088.956,fixation,1,264,0.456,1.0,NoAct
1630318090.0,stimulus,1,265,,0.0,NoAct
1630318090.964,fixation,1,265,0.464,1.0,NoAct
1630318092.0,stimulus,1,266,,0.0,NoAct
1630318093.318,fixation,1,266,0.818,1.0,NoAct
1630318094.0,stimulus,1,267,,0.0,NoAct
1630318095.05,fixation,1,267,0.55,1.0,NoAct
1630318096.0,stimulus,1,268,,0.0,NoAct
1630318096.994,fixation,1,268,0.494,1.0,NoAct
1630318098.0,stimulus,1,269,,0.0,NoAct
1630318098.96,fixation,1,269,0.46,1.0,NoAct
1630318100.0,stimulus,1,270,,0.0,NoAct
1630318100.853,fixation,1,270,0.353,1.0,NoAct
1630318102.0,stimulus,1,271,,0.0,NoAct
1630318102.92,fixation,1,271,0.42,1.0,NoAct
1630318104.0,stimulus,1,272,,0.0,NoAct
1630318104.97,fixation,1,272,0.47,1.0,NoAct
1630318106.0,stimulus,1,273,,0.0,NoAct
1630318106.914,fixation,1,273,0.414,1.0,NoAct
1630318108.0,stimulus,1,274,,0.0,NoAct
1630318108.829,fixation,1,274,0.329,1.0,NoAct
1630318110.0,stimulus,1,275,,0.0,NoAct
1630318110.926,fixation,1,275,0.426,1.0,NoAct
1630318112.0,stimulus,1,276,,0.0,NoAct
1630318112.965,fixation,1,276,0.465,1.0,NoAct
1630318114.0,stimulus,1,277,,0.0,NoAct
1630318114.994,fixation,1,277,0.494,1.0,NoAct
1630318116.0,stimulus,1,278,,0.0,NoAct
1630318117.018,fixation,1,278,0.518,1.0,NoAct
1630318118.0,stimulus,1,279,,0.0,NoAct
1630318118.992,fixation,1,279,0.492,1.0,NoAct
1630318120.0,stimulus,1,280,,0.0,NoAct
1630318120.991,fixation,1,280,0.491,1.0,NoAct
1630318122.0,stimulus,1,281,,0.0,NoAct
1630318123.014,fixation,1,281,0.514,1.0,NoAct
1630318124.0,stimulus,1,282,,0.0,NoAct
1630318125.052,fixation,1,282,0.552,1.0,NoAct
1630318126.0,stimulus,1,283,,0.0,NoAct
1630318127.007,fixation,1,283,0.507,1.0,NoAct
1630318128.0,stimulus,1,284,,0.0,NoAct
1630318128.939,fixation,1,284,0.439,1.0,NoAct
1630318130.0,stimulus,1,285,,0.0,NoAct
1630318130.937,fixation,1,285,0.437,1.0,NoAct
1630318132.0,stimulus,1,286,,0.0,NoAct
1630318132.845,fixation,1,286,0.345,1.0,NoAct
1630318134.0,stimulus,1,287,,0.0,NoAct
1630318134.983,fixation,1,287,0.483,1.0,NoAct
1630318136.0,stimulus,1,288,,0.0,NoAct
1630318136.998,fixation,1,288,0.498,1.0,NoAct
1630318138.0,stimulus,1,289,,0.0,NoAct
1630318138.796,fixation,1,289,0.296,1.0,NoAct
1630318140.0,stimulus,1,290,,0.0,NoAct
1630318140.603,fixation,1,290,0.103,1.0,NoAct
1630318142.0,stimulus,1,291,,0.0,NoAct
1630318142.729,fixation,1,291,0.229,1.0,NoAct
1630318144.0,stimulus,1,292,,0.0,NoAct
1630318144.884,fixation,1,292,0.384,1.0,NoAct
1630318146.0,stimulus,1,293,,0.0,NoAct
1630318146.843,fixation,1,293,0.343,1.0,NoAct
1630318148.0,stimulus,1,294,,0.0,NoAct
1630318148.947,fixation,1,294,0.447,0.0,NoAct
1630318150.0,stimulus,1,295,,0.0,NoAct
1630318150.892,fixation,1,295,0.392,1.0,NoAct
1630318152.0,stimulus,1,296,,0.0,NoAct
1630318152.964,fixation,1,296,0.464,1.0,NoAct
1630318154.0,stimulus,1,297,,0.0,NoAct
1630318155.188,fixation,1,297,0.688,1.0,NoAct
1630318156.0,stimulus,1,298,,0.0,NoAct
1630318156.945,fixation,1,298,0.445,1.0,NoAct
1630318158.0,stimulus,1,299,,0.0,NoAct
1630318158.858,fixation,1,299,0.358,1.0,NoAct
1630318160.0,stimulus,1,300,,0.0,NoAct
1630318161.015,fixation,1,300,0.515,1.0,NoAct
1630318162.0,stimulus,1,301,,0.0,NoAct
1630318163.21,fixation,1,301,0.71,1.0,NoAct
1630318164.0,stimulus,1,302,,0.0,NoAct
1630318165.053,fixation,1,302,0.553,1.0,NoAct
1630318166.0,stimulus,1,303,,0.0,NoAct
1630318167.005,fixation,1,303,0.505,1.0,NoAct
1630318168.0,stimulus,1,304,,0.0,NoAct
1630318168.836,fixation,1,304,0.336,1.0,NoAct
1630318170.0,stimulus,1,305,,0.0,NoAct
1630318170.781,fixation,1,305,0.281,1.0,NoAct
1630318172.0,stimulus,1,306,,0.0,NoAct
1630318172.894,fixation,1,306,0.394,1.0,NoAct
1630318174.0,stimulus,1,307,,0.0,NoAct
1630318174.915,fixation,1,307,0.415,1.0,NoAct
1630318176.0,stimulus,1,308,,0.0,NoAct
1630318177.031,fixation,1,308,0.531,1.0,NoAct
1630318178.0,stimulus,1,309,,0.0,NoAct
1630318179.115,fixation,1,309,0.615,1.0,NoAct
1630318180.0,stimulus,1,310,,0.0,NoAct
1630318180.903,fixation,1,310,0.403,1.0,NoAct
1630318182.0,stimulus,1,311,,0.0,NoAct
1630318182.678,fixation,1,311,0.178,1.0,NoAct
1630318184.0,stimulus,1,312,,0.0,NoAct
1630318184.571,fixation,1,312,0.071,1.0,NoAct
1630318186.0,stimulus,1,313,,0.0,NoAct
1630318186.885,fixation,1,313,0.385,1.0,NoAct
1630318188.0,stimulus,1,314,,0.0,NoAct
1630318188.875,fixation,1,314,0.375,1.0,NoAct
1630318190.0,stimulus,1,315,,0.0,NoAct
1630318191.113,fixation,1,315,0.613,1.0,NoAct
1630318192.0,stimulus,1,316,,0.0,NoAct
1630318193.146,fixation,1,316,0.646,1.0,NoAct
1630318194.0,stimulus,1,317,,0.0,NoAct
1630318195.194,fixation,1,317,0.694,1.0,NoAct
1630318196.0,stimulus,1,318,,0.0,NoAct
1630318197.1,fixation,1,318,0.6,1.0,NoAct
1630318198.0,stimulus,1,319,,0.0,NoAct
1630318199.245,fixation,1,319,0.745,0.0,NoAct
1630318200.0,stimulus,1,320,,0.0,NoAct
1630318200.993,fixation,1,320,0.493,1.0,NoAct
1630318202.0,stimulus,1,321,,0.0,NoAct
1630318203.259,fixation,1,321,0.759,1.0,NoAct
1630318204.0,stimulus,1,322,,0.0,NoAct
1630318205.149,fixation,1,322,0.649,1.0,NoAct
1630318206.0,stimulus,1,323,,0.0,NoAct
1630318206.934,fixation,1,323,0.434,1.0,NoAct
1630318208.0,stimulus,1,324,,0.0,NoAct
1630318208.884,fixation,1,324,0.384,1.0,NoAct
1630318210.0,stimulus,1,325,,0.0,NoAct
1630318210.912,fixation,1,325,0.412,1.0,NoAct
1630318212.0,stimulus,1,326,,0.0,NoAct
1630318213.177,fixation,1,326,0.677,1.0,NoAct
1630318214.0,stimulus,1,327,,0.0,NoAct
1630318215.105,fixation,1,327,0.605,1.0,NoAct
1630318216.0,stimulus,1,328,,0.0,NoAct
1630318216.96,fixation,1,328,0.46,1.0,NoAct
1630318218.0,stimulus,1,329,,0.0,NoAct
1630318219.09,fixation,1,329,0.59,1.0,NoAct
1630318220.0,stimulus,1,330,,0.0,NoAct
1630318221.07,fixation,1,330,0.57,1.0,NoAct
1630318222.0,stimulus,1,331,,0.0,NoAct
1630318222.975,fixation,1,331,0.475,1.0,NoAct
1630318224.0,stimulus,1,332,,0.0,NoAct
1630318225.026,fixation,1,332,0.526,1.0,NoAct
1630318226.0,stimulus,1,333,,0.0,NoAct
1630318226.848,fixation,1,333,0.348,1.0,NoAct
1630318228.0,stimulus,1,334,,0.0,NoAct
1630318228.744,fixation,1,334,0.244,1.0,NoAct
1630318230.0,stimulus,1,335,,0.0,NoAct
1630318231.026,fixation,1,335,0.526,1.0,NoAct
1630318232.0,stimulus,1,336,,0.0,NoAct
1630318232.928,fixation,1,336,0.428,1.0,NoAct
1630318234.0,stimulus,1,337,,0.0,NoAct
1630318234.961,fixation,1,337,0.461,1.0,NoAct
1630318236.0,stimulus,1,338,,0.0,NoAct
1630318237.003,fixation,1,338,0.503,1.0,NoAct
1630318238.0,stimulus,1,339,,0.0,NoAct
1630318238.895,fixation,1,339,0.395,0.0,NoAct
1630318240.0,stimulus,1,340,,0.0,NoAct
1630318240.828,fixation,1,340,0.328,1.0,NoAct
1630318242.0,stimulus,1,341,,0.0,NoAct
1630318242.821,fixation,1,341,0.321,1.0,NoAct
1630318244.0,stimulus,1,342,,0.0,NoAct
1630318244.872,fixation,1,342,0.372,1.0,NoAct
1630318246.0,stimulus,1,343,,0.0,NoAct
1630318247.094,fixation,1,343,0.594,1.0,NoAct
1630318248.0,stimulus,1,344,,0.0,NoAct
1630318248.978,fixation,1,344,0.478,1.0,NoAct
1630318250.0,stimulus,1,345,,0.0,NoAct
1630318251.376,fixation,1,345,0.876,1.0,NoAct
1630318252.0,stimulus,1,346,,0.0,NoAct
1630318253.084,fixation,1,346,0.584,1.0,NoAct
1630318254.0,stimulus,1,347,,0.0,NoAct
1630318254.921,fixation,1,347,0.421,1.0,NoAct
1630318256.0,stimulus,1,348,,0.0,NoAct
1630318256.966,fixation,1,348,0.466,1.0,NoAct
1630318258.0,stimulus,1,349,,0.0,NoAct
1630318258.961,fixation,1,349,0.461,1.0,NoAct
1630318260.0,stimulus,1,350,,0.0,NoAct
1630318260.991,fixation,1,350,0.491,1.0,NoAct
1630318262.0,stimulus,1,351,,0.0,NoAct
1630318263.184,fixation,1,351,0.684,1.0,NoAct
1630318264.0,stimulus,1,352,,0.0,NoAct
1630318265.077,fixation,1,352,0.577,1.0,NoAct
1630318266.0,stimulus,1,353,,0.0,NoAct
1630318266.876,fixation,1,353,0.376,1.0,NoAct
1630318268.0,stimulus,1,354,,0.0,NoAct
1630318269.151,fixation,1,354,0.651,1.0,NoAct
1630318270.0,stimulus,1,355,,0.0,NoAct
1630318270.792,fixation,1,355,0.292,1.0,NoAct
1630318272.0,stimulus,1,356,,0.0,NoAct
1630318272.597,fixation,1,356,0.097,1.0,NoAct
1630318274.0,stimulus,1,357,,0.0,NoAct
1630318274.954,fixation,1,357,0.454,1.0,NoAct
1630318276.0,stimulus,1,358,,0.0,NoAct
1630318277.061,fixation,1,358,0.561,1.0,NoAct
1630318278.0,stimulus,1,359,,0.0,NoAct
1630318279.494,fixation,1,359,0.994,1.0,NoAct
1630318280.0,stimulus,1,360,,0.0,NoAct
1630318281.317,fixation,1,360,0.817,1.0,NoAct
1630318282.0,stimulus,1,361,,0.0,NoAct
1630318283.068,fixation,1,361,0.568,1.0,NoAct
1630318284.0,stimulus,1,362,,0.0,NoAct
1630318285.074,fixation,1,362,0.574,1.0,NoAct
1630318286.0,stimulus,1,363,,0.0,NoAct
1630318286.882,fixation,1,363,0.382,1.0,NoAct
1630318288.0,stimulus,1,364,,0.0,NoAct
1630318288.905,fixation,1,364,0.405,0.0,NoAct
1630318290.0,stimulus,1,365,,0.0,NoAct
1630318291.171,fixation,1,365,0.671,1.0,NoAct
1630318292.0,stimulus,1,366,,0.0,NoAct
1630318292.974,fixation,1,366,0.474,1.0,NoAct
1630318294.0,stimulus,1,367,,0.0,NoAct
1630318294.933,fixation,1,367,0.433,1.0,NoAct
1630318296.0,stimulus,1,368,,0.0,NoAct
1630318296.869,fixation,1,368,0.369,1.0,NoAct
1630318298.0,stimulus,1,369,,0.0,NoAct
1630318298.979,fixation,1,369,0.479,1.0,NoAct
1630318300.0,stimulus,1,370,,0.0,NoAct
1630318301.046,fixation,1,370,0.546,1.0,NoAct
1630318302.0,stimulus,1,371,,0.0,NoAct
1630318303.328,fixation,1,371,0.828,1.0,NoAct
1630318304.0,stimulus,1,372,,0.0,NoAct
1630318305.336,fixation,1,372,0.836,1.0,NoAct
1630318306.0,stimulus,1,373,,0.0,NoAct
1630318307.197,fixation,1,373,0.697,1.0,NoAct
1630318308.0,stimulus,1,374,,0.0,NoAct
1630318309.347,fixation,1,374,0.847,1.0,NoAct
1630318310.0,stimulus,1,375,,0.0,NoAct
1630318311.051,fixation,1,375,0.551,1.0,NoAct
1630318312.0,stimulus,1,376,,0.0,NoAct
1630318312.999,fixation,1,376,0.499,1.0,NoAct
1630318314.0,stimulus,1,377,,0.0,NoAct
1630318315.055,fixation,1,377,0.555,1.0,NoAct
1630318316.0,stimulus,1,378,,0.0,NoAct
1630318317.042,fixation,1,378,0.542,1.0,NoAct
1630318318.0,stimulus,1,379,,0.0,NoAct
1630318318.901,fixation,1,379,0.401,1.0,NoAct
1630318320.0,stimulus,1,380,,0.0,NoAct
1630318321.047,fixation,1,380,0.547,1.0,NoAct
1630318322.0,stimulus,1,381,,0.0,NoAct
1630318323.092,fixation,1,381,0.592,1.0,NoAct
1630318324.0,stimulus,1,382,,0.0,NoAct
1630318324.852,fixation,1,382,0.352,1.0,NoAct
1630318326.0,stimulus,1,383,,0.0,NoAct
1630318326.799,fixation,1,383,0.299,1.0,NoAct
1630318328.0,stimulus,1,384,,0.0,NoAct
1630318328.853,fixation,1,384,0.353,1.0,NoAct
1630318330.0,stimulus,1,385,,0.0,NoAct
1630318331.011,fixation,1,385,0.511,1.0,NoAct
1630318332.0,stimulus,1,386,,0.0,NoAct
1630318332.899,fixation,1,386,0.399,1.0,NoAct
1630318334.0,stimulus,1,387,,0.0,NoAct
1630318334.905,fixation,1,387,0.405,1.0,NoAct
1630318336.0,stimulus,1,388,,0.0,NoAct
1630318337.203,fixation,1,388,0.703,1.0,NoAct
1630318338.0,stimulus,1,389,,0.0,NoAct
1630318339.159,fixation,1,389,0.659,1.0,NoAct
1630318340.0,stimulus,1,390,,0.0,NoAct
1630318341.059,fixation,1,390,0.559,1.0,NoAct
1630318342.0,stimulus,1,391,,0.0,NoAct
1630318342.978,fixation,1,391,0.478,1.0,NoAct
1630318344.0,stimulus,1,392,,0.0,NoAct
1630318344.99,fixation,1,392,0.49,1.0,NoAct
1630318346.0,stimulus,1,393,,0.0,NoAct
1630318347.079,fixation,1,393,0.579,1.0,NoAct
1630318348.0,stimulus,1,394,,0.0,NoAct
1630318349.14,fixation,1,394,0.64,1.0,NoAct
1630318350.0,stimulus,1,395,,0.0,NoAct
1630318351.217,fixation,1,395,0.717,1.0,NoAct
1630318352.0,stimulus,1,396,,0.0,NoAct
1630318353.017,fixation,1,396,0.517,1.0,NoAct
1630318354.0,stimulus,1,397,,0.0,NoAct
1630318354.86,fixation,1,397,0.36,1.0,NoAct
1630318356.0,stimulus,1,398,,,PerfumeSession
1630318356.5,fixation,1,398,,,PerfumeSession
1630318358.0,stimulus,1,399,,,PerfumeSession
1630318358.5,fixation,1,399,,,PerfumeSession
1630318360.0,stimulus,1,400,,,PerfumeSession
1630318360.5,fixation,1,400,,,PerfumeSession
1630318362.0,stimulus,1,401,,,PerfumeSession
1630318362.5,fixation,1,401,,,PerfumeSession
1630318364.0,stimulus,1,402,,,PerfumeSession
1630318364.5,fixation,1,402,,,PerfumeSession
1630318366.0,stimulus,1,403,,,PerfumeSession
1630318366.5,fixation,1,403,,,PerfumeSession
1630318368.0,stimulus,1,404,,,PerfumeSession
1630318368.5,fixation,1,404,,,PerfumeSession
1630318370.0,stimulus,1,405,,,PerfumeSession
1630318370.5,fixation,1,405,,,PerfumeSession
1630318372.0,stimulus,1,406,,,PerfumeSession
1630318372.5,fixation,1,406,,,PerfumeSession
1630318374.0,stimulus,1,407,,,PerfumeSession
1630318374.5,fixation,1,407,,,PerfumeSession
1630318376.0,stimulus,1,408,,,PerfumeSession
1630318376.5,fixation,1,408,,,PerfumeSession
1630318378.0,stimulus,1,409,,,PerfumeSession
1630318378.5,fixation,1,409,,,PerfumeSession
1630318380.0,stimulus,1,410,,,PerfumeSession
1630318380.5,fixation,1,410,,,PerfumeSession
1630318382.0,stimulus,1,411,,,PerfumeSession
1630318382.5,fixation,1,411,,,PerfumeSession
1630318384.0,stimulus,1,412,,,PerfumeSession
1630318384.5,fixation,1,412,,,PerfumeSession
1630318386.0,stimulus,1,413,,,PerfumeSession
1630318386.5,fixation,1,413,,,PerfumeSession
1630318388.0,stimulus,1,414,,,PerfumeSession
1630318388.5,fixation,1,414,,,PerfumeSession
1630318390.0,stimulus,1,415,,,PerfumeSession
1630318390.5,fixation,1,415,,,PerfumeSession
1630318392.0,stimulus,1,416,,,PerfumeSession
1630318392.5,fixation,1,416,,,PerfumeSession
1630318394.0,stimulus,1,417,,,PerfumeSession
1630318394.5,fixation,1,417,,,PerfumeSession
1630318396.0,stimulus,1,418,,,PerfumeSession
1630318396.5,fixation,1,418,,,PerfumeSession
1630318398.0,stimulus,1,419,,,PerfumeSession
1630318398.5,fixation,1,419,,,PerfumeSession
1630318400.0,stimulus,1,420,,,PerfumeSession
1630318400.5,fixation,1,420,,,PerfumeSession
1630318402.0,stimulus,1,421,,,PerfumeSession
1630318402.5,fixation,1,421,,,PerfumeSession
1630318404.0,stimulus,1,422,,,PerfumeSession
1630318404.5,fixation,1,422,,,PerfumeSession
1630318406.0,stimulus,1,423,,,PerfumeSession
1630318406.5,fixation,1,423,,,PerfumeSession
1630318408.0,stimulus,1,424,,,PerfumeSession
1630318408.5,fixation,1,424,,,PerfumeSession
1630318410.0,stimulus,1,425,,,PerfumeSession
1630318410.5,fixation,1,425,,,PerfumeSession
1630318412.0,stimulus,1,426,,,PerfumeSession
1630318412.5,fixation,1,426,,,PerfumeSession
1630318414.0,stimulus,1,427,,,PerfumeSession
1630318414.5,fixation,1,427,,,PerfumeSession
1630318416.0,stimulus,1,428,,,PerfumeSession
1630318416.5,fixation,1,428,,,PerfumeSession
1630318418.0,stimulus,1,429,,,PerfumeSession
1630318418.5,fixation,1,429,,,PerfumeSession
1630318420.0,stimulus,1,430,,,PerfumeSession
1630318420.5,fixation,1,430,,,PerfumeSession
1630318422.0,stimulus,1,431,,,PerfumeSession
1630318422.5,fixation,1,431,,,PerfumeSession
1630318424.0,stimulus,1,432,,,PerfumeSession
1630318424.5,fixation,1,432,,,PerfumeSession
1630318426.0,stimulus,1,433,,,PerfumeSession
1630318426.5,fixation,1,433,,,PerfumeSession
1630318428.0,stimulus,1,434,,,PerfumeSession
1630318428.5,fixation,1,434,,,PerfumeSession
1630318430.0,stimulus,1,435,,,PerfumeSession
1630318430.5,fixation,1,435,,,PerfumeSession
1630318432.0,stimulus,1,436,,,PerfumeSession
1630318432.5,fixation,1,436,,,PerfumeSession
1630318434.0,stimulus,1,437,,,PerfumeSession
1630318434.5,fixation,1,437,,,PerfumeSession
1630318436.0,stimulus,1,438,,,PerfumeSession
1630318436.5,fixation,1,438,,,PerfumeSession
1630318438.0,stimulus,1,439,,,PerfumeSession
1630318438.5,fixation,1,439,,,PerfumeSession
1630318440.0,stimulus,1,440,,,PerfumeSession
1630318440.5,fixation,1,440,,,PerfumeSession
1630318442.0,stimulus,1,441,,,PerfumeSession
1630318442.5,fixation,1,441,,,PerfumeSession
1630318444.0,stimulus,1,442,,,PerfumeSession
1630318444.5,fixation,1,442,,,PerfumeSession
1630318446.0,stimulus,1,443,,,PerfumeSession
1630318446.5,fixation,1,443,,,PerfumeSession
1630318448.0,stimulus,1,444,,,PerfumeSession
1630318448.5,fixation,1,444,,,PerfumeSession
1630318450.0,stimulus,1,445,,,PerfumeSession
1630318450.5,fixation,1,445,,,PerfumeSession
1630318452.0,stimulus,1,446,,,PerfumeSession
1630318452.5,fixation,1,446,,,PerfumeSession
1630318454.0,stimulus,1,447,,,PerfumeSession
1630318454.5,fixation,1,447,,,PerfumeSession
1630318456.0,stimulus,1,448,,,PerfumeSession
1630318456.5,fixation,1,448,,,PerfumeSession
1630318458.0,stimulus,1,449,,,PerfumeSession
1630318458.5,fixation,1,449,,,PerfumeSession
1630318460.0,stimulus,1,450,,,PerfumeSession
1630318460.5,fixation,1,450,,,PerfumeSession
1630318462.0,stimulus,1,451,,,PerfumeSession
1630318462.5,fixation,1,451,,,PerfumeSession
1630318464.0,stimulus,1,452,,,PerfumeSession
1630318464.5,fixation,1,452,,,PerfumeSession
1630318466.0,stimulus,1,453,,,PerfumeSession
1630318466.5,fixation,1,453,,,PerfumeSession
1630318468.0,stimulus,1,454,,,PerfumeSession
1630318468.5,fixation,1,454,,,PerfumeSession
1630318470.0,stimulus,1,455,,,PerfumeSession
1630318470.5,fixation,1,455,,,PerfumeSession
1630318472.0,stimulus,1,456,,,PerfumeSession
1630318472.5,fixation,1,456,,,PerfumeSession
1630318474.0,stimulus,1,457,,,PerfumeSession
1630318474.5,fixation,1,457,,,PerfumeSession
1630318476.0,stimulus,1,458,,,PerfumeSession
1630318476.5,fixation,1,458,,,PerfumeSession
1630318478.0,stimulus,1,459,,,PerfumeSession
1630318478.5,fixation,1,459,,,PerfumeSession
1630318480.0,stimulus,1,460,,,PerfumeSession
1630318480.5,fixation,1,460,,,PerfumeSession
1630318482.0,stimulus,1,461,,,PerfumeSession
1630318482.5,fixation,1,461,,,PerfumeSession
1630318484.0,stimulus,1,462,,,PerfumeSession
1630318484.5,fixation,1,462,,,PerfumeSession
1630318486.0,stimulus,1,463,,,PerfumeSession
1630318486.5,fixation,1,463,,,PerfumeSession
1630318488.0,stimulus,1,464,,,PerfumeSession
1630318488.5,fixation,1,464,,,PerfumeSession
1630318490.0,stimulus,1,465,,,PerfumeSession
1630318490.5,fixation,1,465,,,PerfumeSession
1630318492.0,stimulus,1,466,,,PerfumeSession
1630318492.5,fixation,1,466,,,PerfumeSession
1630318494.0,stimulus,1,467,,,PerfumeSession
1630318494.5,fixation,1,467,,,PerfumeSession
1630318496.0,stimulus,1,468,,,PerfumeSession
1630318496.5,fixation,1,468,,,PerfumeSession
1630318498.0,stimulus,1,469,,,PerfumeSession
1630318498.5,fixation,1,469,,,PerfumeSession
1630318500.0,stimulus,1,470,,,PerfumeSession
1630318500.5,fixation,1,470,,,PerfumeSession
1630318502.0,stimulus,1,471,,,PerfumeSession
1630318502.5,fixation,1,471,,,PerfumeSession
1630318504.0,stimulus,1,472,,,PerfumeSession
1630318504.5,fixation,1,472,,,PerfumeSession
1630318506.0,stimulus,1,473,,,PerfumeSession
1630318506.5,fixation,1,473,,,PerfumeSession
1630318508.0,stimulus,1,474,,,PerfumeSession
1630318508.5,fixation,1,474,,,PerfumeSession
1630318510.0,stimulus,1,475,,,PerfumeSession
1630318510.5,fixation,1,475,,,PerfumeSession
1630318512.0,stimulus,1,476,,,PerfumeSession
1630318512.5,fixation,1,476,,,PerfumeSession
1630318514.0,stimulus,1,477,,,PerfumeSession
1630318514.5,fixation,1,477,,,PerfumeSession
1630318516.0,stimulus,1,478,,,PerfumeSession
1630318516.5,fixation,1,478,,,PerfumeSession
1630318518.0,stimulus,1,479,,,PerfumeSession
1630318518.5,fixation,1,479,,,PerfumeSession
1630318520.0,stimulus,1,480,,,PerfumeSession
1630318520.5,fixation,1,480,,,PerfumeSession
1630318522.0,stimulus,1,481,,,PerfumeSession
1630318522.5,fixation,1,481,,,PerfumeSession
1630318524.0,stimulus,1,482,,,PerfumeSession
1630318524.5,fixation,1,482,,,PerfumeSession
1630318526.0,stimulus,1,483,,,PerfumeSession
1630318526.5,fixation,1,483,,,PerfumeSession
1630318528.0,stimulus,1,484,,,PerfumeSession
1630318528.5,fixation,1,484,,,PerfumeSession
1630318530.0,stimulus,1,485,,,PerfumeSession
1630318530.5,fixation,1,485,,,PerfumeSession
1630318532.0,stimulus,1,486,,,PerfumeSession
1630318532.5,fixation,1,486,,,PerfumeSession
1630318534.0,stimulus,1,487,,,PerfumeSession
1630318534.5,fixation,1,487,,,PerfumeSession
1630318536.0,stimulus,1,488,,,PerfumeSession
1630318536.5,fixation,1,488,,,PerfumeSession
1630318537.61,stimulus,2,1,,,PracticeSession
1630318538.0,stimulus,1,489,,,PerfumeSession
1630318538.11,fixation,2,1,,,PracticeSession
1630318538.5,fixation,1,489,,,PerfumeSession
1630318539.61,stimulus,2,2,,,PracticeSession
1630318540.0,stimulus,1,490,,,PerfumeSession
1630318540.11,fixation,2,2,,,PracticeSession
1630318540.5,fixation,1,490,,,PerfumeSession
1630318541.61,stimulus,2,3,,,PracticeSession
1630318542.0,stimulus,1,491,,,PerfumeSession
1630318542.11,fixation,2,3,,,PracticeSession
1630318542.5,fixation,1,491,,,PerfumeSession
1630318543.61,stimulus,2,4,,,PracticeSession
1630318544.0,stimulus,1,492,,,PerfumeSession
1630318544.11,fixation,2,4,,,PracticeSession
1630318544.5,fixation,1,492,,,PerfumeSession
1630318545.61,stimulus,2,5,,,PracticeSession
1630318546.0,stimulus,1,493,,,PerfumeSession
1630318546.11,fixation,2,5,,,PracticeSession
1630318546.5,fixation,1,493,,,PerfumeSession
1630318547.61,stimulus,2,6,,,PracticeSession
1630318548.0,stimulus,1,494,,,PerfumeSession
1630318548.11,fixation,2,6,,,PracticeSession
1630318548.5,fixation,1,494,,,PerfumeSession
1630318549.61,stimulus,2,7,,,PracticeSession
1630318550.0,stimulus,1,495,,,PerfumeSession
1630318550.11,fixation,2,7,,,PracticeSession
1630318550.5,fixation,1,495,,,PerfumeSession
1630318551.61,stimulus,2,8,,,PracticeSession
1630318552.0,stimulus,1,496,,,PerfumeSession
1630318552.11,fixation,2,8,,,PracticeSession
1630318552.5,fixation,1,496,,,PerfumeSession
1630318553.61,stimulus,2,9,,,PracticeSession
1630318554.0,stimulus,1,497,,,PerfumeSession
1630318554.11,fixation,2,9,,,PracticeSession
1630318554.5,fixation,1,497,,,PerfumeSession
1630318555.61,stimulus,2,10,,,PracticeSession
1630318556.0,stimulus,1,498,,,PerfumeSession
1630318556.11,fixation,2,10,,,PracticeSession
1630318556.5,fixation,1,498,,,PerfumeSession
1630318557.61,stimulus,2,11,,,PracticeSession
1630318558.0,stimulus,1,499,,,PerfumeSession
1630318558.11,fixation,2,11,,,PracticeSession
1630318558.5,fixation,1,499,,,PerfumeSession
1630318559.61,stimulus,2,12,,,PracticeSession
1630318560.0,stimulus,1,500,,,PerfumeSession
1630318560.11,fixation,2,12,,,PracticeSession
1630318560.5,fixation,1,500,,,PerfumeSession
1630318561.61,stimulus,2,13,,,PracticeSession
1630318562.0,stimulus,1,501,,,PerfumeSession
1630318562.11,fixation,2,13,,,PracticeSession
1630318562.5,fixation,1,501,,,PerfumeSession
1630318563.61,stimulus,2,14,,,PracticeSession
1630318564.0,stimulus,1,502,,,PerfumeSession
1630318564.11,fixation,2,14,,,PracticeSession
1630318564.5,fixation,1,502,,,PerfumeSession
1630318565.61,stimulus,2,15,,,PracticeSession
1630318566.0,stimulus,1,503,,,PerfumeSession
1630318566.11,fixation,2,15,,,PracticeSession
1630318566.5,fixation,1,503,,,PerfumeSession
1630318567.61,stimulus,2,16,,,PracticeSession
1630318568.0,stimulus,1,504,,,PerfumeSession
1630318568.11,fixation,2,16,,,PracticeSession
1630318568.5,fixation,1,504,,,PerfumeSession
1630318569.61,stimulus,2,17,,,PracticeSession
1630318570.0,stimulus,1,505,,,PerfumeSession
1630318570.11,fixation,2,17,,,PracticeSession
1630318570.5,fixation,1,505,,,PerfumeSession
1630318571.61,stimulus,2,18,,,PracticeSession
1630318572.0,stimulus,1,506,,,PerfumeSession
1630318572.11,fixation,2,18,,,PracticeSession
1630318572.5,fixation,1,506,,,PerfumeSession
1630318573.61,stimulus,2,19,,,PracticeSession
1630318574.0,stimulus,1,507,,,PerfumeSession
1630318574.11,fixation,2,19,,,PracticeSession
1630318574.5,fixation,1,507,,,PerfumeSession
1630318575.61,stimulus,2,20,,,PracticeSession
1630318576.0,stimulus,1,508,,,PerfumeSession
1630318576.11,fixation,2,20,,,PracticeSession
1630318576.5,fixation,1,508,,,PerfumeSession
1630318577.61,stimulus,2,21,,,PracticeSession
1630318578.0,stimulus,1,509,,,PerfumeSession
1630318578.11,fixation,2,21,,,PracticeSession
1630318578.5,fixation,1,509,,,PerfumeSession
1630318579.61,stimulus,2,22,,,PracticeSession
1630318580.0,stimulus,1,510,,,PerfumeSession
1630318580.11,fixation,2,22,,,PracticeSession
1630318580.5,fixation,1,510,,,PerfumeSession
1630318581.61,stimulus,2,23,,,PracticeSession
1630318582.0,stimulus,1,511,,,PerfumeSession
1630318582.11,fixation,2,23,,,PracticeSession
1630318582.5,fixation,1,511,,,PerfumeSession
1630318583.61,stimulus,2,24,,,PracticeSession
1630318584.0,stimulus,1,512,,,PerfumeSession
1630318584.11,fixation,2,24,,,PracticeSession
1630318584.5,fixation,1,512,,,PerfumeSession
1630318585.61,stimulus,2,25,,,PracticeSession
1630318586.0,stimulus,1,513,,,PerfumeSession
1630318586.11,fixation,2,25,,,PracticeSession
1630318586.5,fixation,1,513,,,PerfumeSession
1630318587.61,stimulus,2,26,,,PracticeSession
1630318588.0,stimulus,1,514,,,PerfumeSession
1630318588.11,fixation,2,26,,,PracticeSession
1630318588.5,fixation,1,514,,,PerfumeSession
1630318589.61,stimulus,2,27,,,PracticeSession
1630318590.0,stimulus,1,515,,,PerfumeSession
1630318590.11,fixation,2,27,,,PracticeSession
1630318590.5,fixation,1,515,,,PerfumeSession
1630318591.61,stimulus,2,28,,,PracticeSession
1630318592.0,stimulus,1,516,,,PerfumeSession
1630318592.11,fixation,2,28,,,PracticeSession
1630318592.5,fixation,1,516,,,PerfumeSession
1630318593.61,stimulus,2,29,,,PracticeSession
1630318594.0,stimulus,1,517,,,PerfumeSession
1630318594.11,fixation,2,29,,,PracticeSession
1630318594.5,fixation,1,517,,,PerfumeSession
1630318595.61,stimulus,2,30,,,PracticeSession
1630318596.0,stimulus,1,518,,,PerfumeSession
1630318596.11,fixation,2,30,,,PracticeSession
1630318596.5,fixation,1,518,,,PerfumeSession
1630318597.61,stimulus,2,31,,,PracticeSession
1630318598.0,stimulus,1,519,,,PerfumeSession
1630318598.11,fixation,2,31,,,PracticeSession
1630318598.5,fixation,1,519,,,PerfumeSession
1630318599.61,stimulus,2,32,,,PracticeSession
1630318600.0,stimulus,1,520,,,PerfumeSession
1630318600.11,fixation,2,32,,,PracticeSession
1630318600.5,fixation,1,520,,,PerfumeSession
1630318601.61,stimulus,2,33,,,PracticeSession
1630318602.0,stimulus,1,521,,,PerfumeSession
1630318602.11,fixation,2,33,,,PracticeSession
1630318602.5,fixation,1,521,,,PerfumeSession
1630318603.61,stimulus,2,34,,,PracticeSession
1630318604.0,stimulus,1,522,,,PerfumeSession
1630318604.11,fixation,2,34,,,PracticeSession
1630318604.5,fixation,1,522,,,PerfumeSession
1630318605.61,stimulus,2,35,,,PracticeSession
1630318606.0,stimulus,1,523,,,PerfumeSession
1630318606.11,fixation,2,35,,,PracticeSession
1630318606.5,fixation,1,523,,,PerfumeSession
1630318607.61,stimulus,2,36,,,PracticeSession
1630318608.0,stimulus,1,524,,,PerfumeSession
1630318608.11,fixation,2,36,,,PracticeSession
1630318608.5,fixation,1,524,,,PerfumeSession
1630318609.61,stimulus,2,37,,,PracticeSession
1630318610.0,stimulus,1,525,,,PerfumeSession
1630318610.11,fixation,2,37,,,PracticeSession
1630318610.5,fixation,1,525,,,PerfumeSession
1630318611.61,stimulus,2,38,,,PracticeSession
1630318612.0,stimulus,1,526,,,PerfumeSession
1630318612.11,fixation,2,38,,,PracticeSession
1630318612.5,fixation,1,526,,,PerfumeSession
1630318613.61,stimulus,2,39,,,PracticeSession
1630318614.0,stimulus,1,527,,,PerfumeSession
1630318614.11,fixation,2,39,,,PracticeSession
1630318614.5,fixation,1,527,,,PerfumeSession
1630318615.61,stimulus,2,40,,,PracticeSession
1630318616.0,stimulus,1,528,,,PerfumeSession
1630318616.11,fixation,2,40,,,PracticeSession
1630318616.5,fixation,1,528,,,PerfumeSession
1630318617.61,stimulus,2,41,,,PracticeSession
1630318618.0,stimulus,1,529,,,PerfumeSession
1630318618.11,fixation,2,41,,,PracticeSession
1630318618.5,fixation,1,529,,,PerfumeSession
1630318619.61,stimulus,2,42,,,PracticeSession
1630318620.0,stimulus,1,530,,,PerfumeSession
1630318620.11,fixation,2,42,,,PracticeSession
1630318620.5,fixation,1,530,,,PerfumeSession
1630318621.61,stimulus,2,43,,,PracticeSession
1630318622.0,stimulus,1,531,,,PerfumeSession
1630318622.11,fixation,2,43,,,PracticeSession
1630318622.5,fixation,1,531,,,PerfumeSession
1630318623.61,stimulus,2,44,,,PracticeSession
1630318624.0,stimulus,1,532,,,PerfumeSession
1630318624.11,fixation,2,44,,,PracticeSession
1630318624.5,fixation,1,532,,,PerfumeSession
1630318625.61,stimulus,2,45,,,NoAct
1630318626.0,stimulus,1,533,,,PerfumeSession
1630318626.11,fixation,2,45,,,NoAct
1630318626.5,fixation,1,533,,,PerfumeSession
1630318627.61,stimulus,2,46,,,NoAct
1630318628.0,stimulus,1,534,,,PerfumeSession
1630318628.11,fixation,2,46,,,NoAct
1630318628.5,fixation,1,534,,,PerfumeSession
1630318629.61,stimulus,2,47,,,NoAct
1630318630.0,stimulus,1,535,,,PerfumeSession
1630318630.11,fixation,2,47,,,NoAct
1630318630.5,fixation,1,535,,,PerfumeSession
1630318631.61,stimulus,2,48,,,NoAct
1630318632.0,stimulus,1,536,,,PerfumeSession
1630318632.11,fixation,2,48,,,NoAct
1630318632.5,fixation,1,536,,,PerfumeSession
1630318633.61,stimulus,2,49,,,NoAct
1630318634.0,stimulus,1,537,,,PerfumeSession
1630318634.11,fixation,2,49,,,NoAct
1630318634.5,fixation,1,537,,,PerfumeSession
1630318635.61,stimulus,2,50,,,NoAct
1630318636.0,stimulus,1,538,,,PerfumeSession
1630318636.11,fixation,2,50,,,NoAct
1630318636.5,fixation,1,538,,,PerfumeSession
1630318637.61,stimulus,2,51,,,NoAct
1630318638.0,stimulus,1,539,,,PerfumeSession
1630318638.11,fixation,2,51,,,NoAct
1630318638.5,fixation,1,539,,,PerfumeSession
1630318639.61,stimulus,2,52,,,NoAct
1630318640.0,stimulus,1,540,,,PerfumeSession
1630318640.11,fixation,2,52,,,NoAct
1630318640.5,fixation,1,540,,,PerfumeSession
1630318641.61,stimulus,2,53,,,NoAct
1630318642.0,stimulus,1,541,,,PerfumeSession
1630318642.11,fixation,2,53,,,NoAct
1630318642.5,fixation,1,541,,,PerfumeSession
1630318643.61,stimulus,2,54,,,NoAct
1630318644.0,stimulus,1,542,,,PerfumeSession
1630318644.11,fixation,2,54,,,NoAct
1630318644.5,fixation,1,542,,,PerfumeSession
1630318645.61,stimulus,2,55,,,NoAct
1630318646.0,stimulus,1,543,,,PerfumeSession
1630318646.11,fixation,2,55,,,NoAct
1630318646.5,fixation,1,543,,,PerfumeSession
1630318647.61,stimulus,2,56,,,NoAct
1630318648.0,stimulus,1,544,,,PerfumeSession
1630318648.11,fixation,2,56,,,NoAct
1630318648.5,fixation,1,544,,,PerfumeSession
1630318649.61,stimulus,2,57,,,NoAct
1630318650.0,stimulus,1,545,,,PerfumeSession
1630318650.11,fixation,2,57,,,NoAct
1630318650.5,fixation,1,545,,,PerfumeSession
1630318651.61,stimulus,2,58,,,NoAct
1630318652.0,stimulus,1,546,,,PerfumeSession
1630318652.11,fixation,2,58,,,NoAct
1630318652.5,fixation,1,546,,,PerfumeSession
1630318653.61,stimulus,2,59,,,NoAct
1630318654.0,stimulus,1,547,,,PerfumeSession
1630318654.11,fixation,2,59,,,NoAct
1630318654.5,fixation,1,547,,,PerfumeSession
1630318655.61,stimulus,2,60,,,NoAct
1630318656.0,stimulus,1,548,,,PerfumeSession
1630318656.11,fixation,2,60,,,NoAct
1630318656.5,fixation,1,548,,,PerfumeSession
1630318657.61,stimulus,2,61,,,NoAct
1630318658.0,stimulus,1,549,,,PerfumeSession
1630318658.11,fixation,2,61,,,NoAct
1630318658.5,fixation,1,549,,,PerfumeSession
1630318659.61,stimulus,2,62,,,NoAct
1630318660.0,stimulus,1,550,,,PerfumeSession
1630318660.11,fixation,2,62,,,NoAct
1630318660.5,fixation,1,550,,,PerfumeSession
1630318661.61,stimulus,2,63,,,NoAct
1630318662.0,stimulus,1,551,,,PerfumeSession
1630318662.11,fixation,2,63,,,NoAct
1630318662.5,fixation,1,551,,,PerfumeSession
1630318663.61,stimulus,2,64,,,NoAct
1630318664.0,stimulus,1,552,,,PerfumeSession
1630318664.11,fixation,2,64,,,NoAct
1630318664.5,fixation,1,552,,,PerfumeSession
1630318665.61,stimulus,2,65,,,NoAct
1630318666.0,stimulus,1,553,,,PerfumeSession
1630318666.11,fixation,2,65,,,NoAct
1630318666.5,fixation,1,553,,,PerfumeSession
1630318667.61,stimulus,2,66,,,NoAct
1630318668.0,stimulus,1,554,,,PerfumeSession
1630318668.11,fixation,2,66,,,NoAct
1630318668.5,fixation,1,554,,,PerfumeSession
1630318669.61,stimulus,2,67,,,NoAct
1630318670.0,stimulus,1,555,,,PerfumeSession
1630318670.11,fixation,2,67,,,NoAct
1630318670.5,fixation,1,555,,,PerfumeSession
1630318671.61,stimulus,2,68,,,NoAct
1630318672.0,stimulus,1,556,,,PerfumeSession
1630318672.11,fixation,2,68,,,NoAct
1630318672.5,fixation,1,556,,,PerfumeSession
1630318673.61,stimulus,2,69,,,NoAct
1630318674.0,stimulus,1,557,,,PerfumeSession
1630318674.11,fixation,2,69,,,NoAct
1630318674.5,fixation,1,557,,,PerfumeSession
1630318675.61,stimulus,2,70,,,NoAct
1630318676.0,stimulus,1,558,,,PerfumeSession
1630318676.11,fixation,2,70,,,NoAct
1630318676.5,fixation,1,558,,,PerfumeSession
1630318677.61,stimulus,2,71,,,NoAct
1630318678.0,stimulus,1,559,,,PerfumeSession
1630318678.11,fixation,2,71,,,NoAct
1630318678.5,fixation,1,559,,,PerfumeSession
1630318679.61,stimulus,2,72,,,NoAct
1630318680.0,stimulus,1,560,,,PerfumeSession
1630318680.11,fixation,2,72,,,NoAct
1630318680.5,fixation,1,560,,,PerfumeSession
1630318681.61,stimulus,2,73,,,NoAct
1630318682.0,stimulus,1,561,,,PerfumeSession
1630318682.11,fixation,2,73,,,NoAct
1630318682.5,fixation,1,561,,,PerfumeSession
1630318683.61,stimulus,2,74,,,NoAct
1630318684.0,stimulus,1,562,,,PerfumeSession
1630318684.11,fixation,2,74,,,NoAct
1630318684.5,fixation,1,562,,,PerfumeSession
1630318685.61,stimulus,2,75,,,NoAct
1630318686.0,stimulus,1,563,,,PerfumeSession
1630318686.11,fixation,2,75,,,NoAct
1630318686.5,fixation,1,563,,,PerfumeSession
1630318687.61,stimulus,2,76,,,NoAct
1630318688.0,stimulus,1,564,,,PerfumeSession
1630318688.11,fixation,2,76,,,NoAct
1630318688.5,fixation,1,564,,,PerfumeSession
1630318689.61,stimulus,2,77,,,NoAct
1630318690.0,stimulus,1,565,,,PerfumeSession
1630318690.11,fixation,2,77,,,NoAct
1630318690.5,fixation,1,565,,,PerfumeSession
1630318691.61,stimulus,2,78,,,NoAct
1630318692.0,stimulus,1,566,,,PerfumeSession
1630318692.11,fixation,2,78,,,NoAct
1630318692.5,fixation,1,566,,,PerfumeSession
1630318693.61,stimulus,2,79,,,NoAct
1630318694.0,stimulus,1,567,,,PerfumeSession
1630318694.11,fixation,2,79,,,NoAct
1630318694.5,fixation,1,567,,,PerfumeSession
1630318695.61,stimulus,2,80,,,NoAct
1630318696.0,stimulus,1,568,,,PerfumeSession
1630318696.11,fixation,2,80,,,NoAct
1630318696.5,fixation,1,568,,,PerfumeSession
1630318697.61,stimulus,2,81,,,NoAct
1630318698.0,stimulus,1,569,,,PerfumeSession
1630318698.11,fixation,2,81,,,NoAct
1630318698.5,fixation,1,569,,,PerfumeSession
1630318699.61,stimulus,2,82,,,NoAct
1630318700.0,stimulus,1,570,,,PerfumeSession
1630318700.11,fixation,2,82,,,NoAct
1630318700.5,fixation,1,570,,,PerfumeSession
1630318701.61,stimulus,2,83,,,NoAct
1630318702.0,stimulus,1,571,,,PerfumeSession
1630318702.11,fixation,2,83,,,NoAct
1630318702.5,fixation,1,571,,,PerfumeSession
1630318703.61,stimulus,2,84,,,NoAct
1630318704.0,stimulus,1,572,,,PerfumeSession
1630318704.11,fixation,2,84,,,NoAct
1630318704.5,fixation,1,572,,,PerfumeSession
1630318705.61,stimulus,2,85,,,NoAct
1630318706.0,stimulus,1,573,,,PerfumeSession
1630318706.11,fixation,2,85,,,NoAct
1630318706.5,fixation,1,573,,,PerfumeSession
1630318707.61,stimulus,2,86,,,NoAct
1630318708.0,stimulus,1,574,,,PerfumeSession
1630318708.11,fixation,2,86,,,NoAct
1630318708.5,fixation,1,574,,,PerfumeSession
1630318709.61,stimulus,2,87,,,NoAct
1630318710.0,stimulus,1,575,,,PerfumeSession
1630318710.11,fixation,2,87,,,NoAct
1630318710.5,fixation,1,575,,,PerfumeSession
1630318711.61,stimulus,2,88,,,NoAct
1630318712.0,stimulus,1,576,,,PerfumeSession
1630318712.11,fixation,2,88,,,NoAct
1630318712.5,fixation,1,576,,,PerfumeSession
1630318713.61,stimulus,2,89,,,NoAct
1630318714.0,stimulus,1,577,,,PerfumeSession
1630318714.11,fixation,2,89,,,NoAct
1630318714.5,fixation,1,577,,,PerfumeSession
1630318715.61,stimulus,2,90,,,NoAct
1630318716.0,stimulus,1,578,,,PerfumeSession
1630318716.11,fixation,2,90,,,NoAct
1630318716.5,fixation,1,578,,,PerfumeSession
1630318717.61,stimulus,2,91,,,NoAct
1630318718.0,stimulus,1,579,,,PerfumeSession
1630318718.11,fixation,2,91,,,NoAct
1630318718.5,fixation,1,579,,,PerfumeSession
1630318719.61,stimulus,2,92,,,NoAct
1630318720.0,stimulus,1,580,,,PerfumeSession
1630318720.11,fixation,2,92,,,NoAct
1630318720.5,fixation,1,580,,,PerfumeSession
1630318721.61,stimulus,2,93,,,NoAct
1630318722.0,stimulus,1,581,,,PerfumeSession
1630318722.11,fixation,2,93,,,NoAct
1630318722.5,fixation,1,581,,,PerfumeSession
1630318723.61,stimulus,2,94,,,NoAct
1630318724.0,stimulus,1,582,,,PerfumeSession
1630318724.11,fixation,2,94,,,NoAct
1630318724.5,fixation,1,582,,,PerfumeSession
1630318725.61,stimulus,2,95,,,NoAct
1630318726.0,stimulus,1,583,,,PerfumeSession
1630318726.11,fixation,2,95,,,NoAct
1630318726.5,fixation,1,583,,,PerfumeSession
1630318727.61,stimulus,2,96,,,NoAct
1630318728.0,stimulus,1,584,,,PerfumeSession
1630318728.11,fixation,2,96,,,NoAct
1630318728.5,fixation,1,584,,,PerfumeSession
1630318729.61,stimulus,2,97,,,NoAct
1630318730.0,stimulus,1,585,,,PerfumeSession
1630318730.11,fixation,2,97,,,NoAct
1630318730.5,fixation,1,585,,,PerfumeSession
1630318731.61,stimulus,2,98,,,NoAct
1630318732.0,stimulus,1,586,,,PerfumeSession
1630318732.11,fixation,2,98,,,NoAct
1630318732.5,fixation,1,586,,,PerfumeSession
1630318733.61,stimulus,2,99,,,NoAct
1630318734.0,stimulus,1,587,,,PerfumeSession
1630318734.11,fixation,2,99,,,NoAct
1630318734.5,fixation,1,587,,,PerfumeSession
1630318735.61,stimulus,2,100,,,NoAct
1630318736.0,stimulus,1,588,,,PerfumeSession
1630318736.11,fixation,2,100,,,NoAct
1630318736.5,fixation,1,588,,,PerfumeSession
1630318737.61,stimulus,2,101,,,NoAct
1630318738.0,stimulus,1,589,,,PerfumeSession
1630318738.11,fixation,2,101,,,NoAct
1630318738.5,fixation,1,589,,,PerfumeSession
1630318739.61,stimulus,2,102,,,NoAct
1630318740.0,stimulus,1,590,,,PerfumeSession
1630318740.11,fixation,2,102,,,NoAct
1630318740.5,fixation,1,590,,,PerfumeSession
1630318741.61,stimulus,2,103,,,NoAct
1630318742.0,stimulus,1,591,,,PerfumeSession
1630318742.11,fixation,2,103,,,NoAct
1630318742.5,fixation,1,591,,,PerfumeSession
1630318743.61,stimulus,2,104,,,NoAct
1630318744.0,stimulus,1,592,,,PerfumeSession
1630318744.11,fixation,2,104,,,NoAct
1630318744.5,fixation,1,592,,,PerfumeSession
1630318745.61,stimulus,2,105,,,NoAct
1630318746.0,stimulus,1,593,,,PerfumeSession
1630318746.11,fixation,2,105,,,NoAct
1630318746.5,fixation,1,593,,,PerfumeSession
1630318747.61,stimulus,2,106,,,NoAct
1630318748.0,stimulus,1,594,,,PerfumeSession
1630318748.11,fixation,2,106,,,NoAct
1630318748.5,fixation,1,594,,,PerfumeSession
1630318749.61,stimulus,2,107,,,NoAct
1630318750.0,stimulus,1,595,,,PerfumeSession
1630318750.11,fixation,2,107,,,NoAct
1630318750.5,fixation,1,595,,,PerfumeSession
1630318751.61,stimulus,2,108,,,NoAct
1630318752.0,stimulus,1,596,,,PerfumeSession
1630318752.11,fixation,2,108,,,NoAct
1630318752.5,fixation,1,596,,,PerfumeSession
1630318753.61,stimulus,2,109,,,NoAct
1630318754.0,stimulus,1,597,,,PerfumeSession
1630318754.11,fixation,2,109,,,NoAct
1630318754.5,fixation,1,597,,,PerfumeSession
1630318755.61,stimulus,2,110,,,NoAct
1630318756.0,stimulus,1,598,,,PerfumeSession
1630318756.11,fixation,2,110,,,NoAct
1630318756.5,fixation,1,598,,,PerfumeSession
1630318757.61,stimulus,2,111,,,NoAct
1630318758.0,stimulus,1,599,,,PerfumeSession
1630318758.11,fixation,2,111,,,NoAct
1630318758.5,fixation,1,599,,,PerfumeSession
1630318759.61,stimulus,2,112,,,NoAct
1630318760.0,stimulus,1,600,,,PerfumeSession
1630318760.11,fixation,2,112,,,NoAct
1630318760.5,fixation,1,600,,,PerfumeSession
1630318761.61,stimulus,2,113,,,NoAct
1630318762.0,stimulus,1,601,,,PerfumeSession
1630318762.11,fixation,2,113,,,NoAct
1630318762.5,fixation,1,601,,,PerfumeSession
1630318763.61,stimulus,2,114,,,NoAct
1630318764.0,stimulus,1,602,,,PerfumeSession
1630318764.11,fixation,2,114,,,NoAct
1630318764.5,fixation,1,602,,,PerfumeSession
1630318765.61,stimulus,2,115,,,NoAct
1630318766.0,stimulus,1,603,,,PerfumeSession
1630318766.11,fixation,2,115,,,NoAct
1630318766.5,fixation,1,603,,,PerfumeSession
1630318767.61,stimulus,2,116,,,NoAct
1630318768.0,stimulus,1,604,,,PerfumeSession
1630318768.11,fixation,2,116,,,NoAct
1630318768.5,fixation,1,604,,,PerfumeSession
1630318769.61,stimulus,2,117,,,NoAct
1630318770.0,stimulus,1,605,,,PerfumeSession
1630318770.11,fixation,2,117,,,NoAct
1630318770.5,fixation,1,605,,,PerfumeSession
1630318771.61,stimulus,2,118,,,NoAct
1630318772.0,stimulus,1,606,,,PerfumeSession
1630318772.11,fixation,2,118,,,NoAct
1630318772.5,fixation,1,606,,,PerfumeSession
1630318773.61,stimulus,2,119,,,NoAct
1630318774.0,stimulus,1,607,,,PerfumeSession
1630318774.11,fixation,2,119,,,NoAct
1630318774.5,fixation,1,607,,,PerfumeSession
1630318775.61,stimulus,2,120,,,NoAct
1630318776.0,stimulus,1,608,,,PerfumeSession
1630318776.11,fixation,2,120,,,NoAct
1630318776.5,fixation,1,608,,,PerfumeSession
1630318777.61,stimulus,2,121,,,NoAct
1630318778.0,stimulus,1,609,,,PerfumeSession
1630318778.11,fixation,2,121,,,NoAct
1630318778.5,fixation,1,609,,,PerfumeSession
1630318779.61,stimulus,2,122,,,NoAct
1630318780.0,stimulus,1,610,,,PerfumeSession
1630318780.11,fixation,2,122,,,NoAct
1630318780.5,fixation,1,610,,,PerfumeSession
1630318781.61,stimulus,2,123,,,NoAct
1630318782.0,stimulus,1,611,,,PerfumeSession
1630318782.11,fixation,2,123,,,NoAct
1630318782.5,fixation,1,611,,,PerfumeSession
1630318783.61,stimulus,2,124,,,NoAct
1630318784.0,stimulus,1,612,,,PerfumeSession
1630318784.11,fixation,2,124,,,NoAct
1630318784.5,fixation,1,612,,,PerfumeSession
1630318785.61,stimulus,2,125,,,NoAct
1630318786.0,stimulus,1,613,,,PerfumeSession
1630318786.11,fixation,2,125,,,NoAct
1630318786.5,fixation,1,613,,,PerfumeSession
1630318787.61,stimulus,2,126,,,NoAct
1630318788.0,stimulus,1,614,,,PerfumeSession
1630318788.11,fixation,2,126,,,NoAct
1630318788.5,fixation,1,614,,,PerfumeSession
1630318789.61,stimulus,2,127,,,NoAct
1630318790.0,stimulus,1,615,,,PerfumeSession
1630318790.11,fixation,2,127,,,NoAct
1630318790.5,fixation,1,615,,,PerfumeSession
1630318791.61,stimulus,2,128,,,NoAct
1630318792.0,stimulus,1,616,,,PerfumeSession
1630318792.11,fixation,2,128,,,NoAct
1630318792.5,fixation,1,616,,,PerfumeSession
1630318793.61,stimulus,2,129,,,NoAct
1630318794.0,stimulus,1,617,,,PerfumeSession
1630318794.11,fixation,2,129,,,NoAct
1630318794.5,fixation,1,617,,,PerfumeSession
1630318795.61,stimulus,2,130,,,NoAct
1630318796.0,stimulus,1,618,,,PerfumeSession
1630318796.11,fixation,2,130,,,NoAct
1630318796.5,fixation,1,618,,,PerfumeSession
1630318797.61,stimulus,2,131,,,NoAct
1630318798.0,stimulus,1,619,,,PerfumeSession
1630318798.11,fixation,2,131,,,NoAct
1630318798.5,fixation,1,619,,,PerfumeSession
1630318799.61,stimulus,2,132,,,NoAct
1630318800.0,stimulus,1,620,,,PerfumeSession
1630318800.11,fixation,2,132,,,NoAct
1630318800.5,fixation,1,620,,,PerfumeSession
1630318801.61,stimulus,2,133,,,NoAct
1630318802.0,stimulus,1,621,,,PerfumeSession
1630318802.11,fixation,2,133,,,NoAct
1630318802.5,fixation,1,621,,,PerfumeSession
1630318803.61,stimulus,2,134,,,NoAct
1630318804.0,stimulus,1,622,,,PerfumeSession
1630318804.11,fixation,2,134,,,NoAct
1630318804.5,fixation,1,622,,,PerfumeSession
1630318805.61,stimulus,2,135,,,NoAct
1630318806.0,stimulus,1,623,,,PerfumeSession
1630318806.11,fixation,2,135,,,NoAct
1630318806.5,fixation,1,623,,,PerfumeSession
1630318807.61,stimulus,2,136,,,NoAct
1630318808.0,stimulus,1,624,,,PerfumeSession
1630318808.11,fixation,2,136,,,NoAct
1630318808.5,fixation,1,624,,,PerfumeSession
1630318809.61,stimulus,2,137,,,NoAct
1630318810.0,stimulus,1,625,,,PerfumeSession
1630318810.11,fixation,2,137,,,NoAct
1630318810.5,fixation,1,625,,,PerfumeSession
1630318811.61,stimulus,2,138,,,NoAct
1630318812.0,stimulus,1,626,,,PerfumeSession
1630318812.11,fixation,2,138,,,NoAct
1630318812.5,fixation,1,626,,,PerfumeSession
1630318813.61,stimulus,2,139,,,NoAct
1630318814.0,stimulus,1,627,,,PerfumeSession
1630318814.11,fixation,2,139,,,NoAct
1630318814.5,fixation,1,627,,,PerfumeSession
1630318815.61,stimulus,2,140,,,NoAct
1630318816.0,stimulus,1,628,,,PerfumeSession
1630318816.11,fixation,2,140,,,NoAct
1630318816.5,fixation,1,628,,,PerfumeSession
1630318817.61,stimulus,2,141,,,NoAct
1630318818.0,stimulus,1,629,,,PerfumeSession
1630318818.11,fixation,2,141,,,NoAct
1630318818.5,fixation,1,629,,,PerfumeSession
1630318819.61,stimulus,2,142,,,NoAct
1630318820.0,stimulus,1,630,,,PerfumeSession
1630318820.11,fixation,2,142,,,NoAct
1630318820.5,fixation,1,630,,,PerfumeSession
1630318821.61,stimulus,2,143,,,NoAct
1630318822.0,stimulus,1,631,,,PerfumeSession
1630318822.11,fixation,2,143,,,NoAct
1630318822.5,fixation,1,631,,,PerfumeSession
1630318823.61,stimulus,2,144,,,NoAct
1630318824.0,stimulus,1,632,,,PerfumeSession
1630318824.11,fixation,2,144,,,NoAct
1630318824.5,fixation,1,632,,,PerfumeSession
1630318825.61,stimulus,2,145,,,NoAct
1630318826.0,stimulus,1,633,,,PerfumeSession
1630318826.11,fixation,2,145,,,NoAct
1630318826.5,fixation,1,633,,,PerfumeSession
1630318827.61,stimulus,2,146,,,NoAct
1630318828.0,stimulus,1,634,,,PerfumeSession
1630318828.11,fixation,2,146,,,NoAct
1630318828.5,fixation,1,634,,,PerfumeSession
1630318829.61,stimulus,2,147,,,NoAct
1630318830.0,stimulus,1,635,,,PerfumeSession
1630318830.11,fixation,2,147,,,NoAct
1630318830.5,fixation,1,635,,,PerfumeSession
1630318831.61,stimulus,2,148,,,NoAct
1630318832.0,stimulus,1,636,,,PerfumeSession
1630318832.11,fixation,2,148,,,NoAct
1630318832.5,fixation,1,636,,,PerfumeSession
1630318833.61,stimulus,2,149,,,NoAct
1630318834.0,stimulus,1,637,,,PerfumeSession
1630318834.11,fixation,2,149,,,NoAct
1630318834.5,fixation,1,637,,,PerfumeSession
1630318835.61,stimulus,2,150,,,NoAct
1630318836.0,stimulus,1,638,,,PerfumeSession
1630318836.11,fixation,2,150,,,NoAct
1630318836.5,fixation,1,638,,,PerfumeSession
1630318837.61,stimulus,2,151,,,NoAct
1630318838.0,stimulus,1,639,,,PerfumeSession
1630318838.11,fixation,2,151,,,NoAct
1630318838.5,fixation,1,639,,,PerfumeSession
1630318839.61,stimulus,2,152,,,NoAct
1630318840.0,stimulus,1,640,,,PerfumeSession
1630318840.11,fixation,2,152,,,NoAct
1630318840.5,fixation,1,640,,,PerfumeSession
1630318841.61,stimulus,2,153,,,NoAct
1630318842.0,stimulus,1,641,,,PerfumeSession
1630318842.11,fixation,2,153,,,NoAct
1630318842.5,fixation,1,641,,,PerfumeSession
1630318843.61,stimulus,2,154,,,NoAct
1630318844.0,stimulus,1,642,,,PerfumeSession
1630318844.11,fixation,2,154,,,NoAct
1630318844.5,fixation,1,642,,,PerfumeSession
1630318845.61,stimulus,2,155,,,NoAct
1630318846.0,stimulus,1,643,,,PerfumeSession
1630318846.11,fixation,2,155,,,NoAct
1630318846.5,fixation,1,643,,,PerfumeSession
1630318847.61,stimulus,2,156,,,NoAct
1630318848.0,stimulus,1,644,,,PerfumeSession
1630318848.11,fixation,2,156,,,NoAct
1630318848.5,fixation,1,644,,,PerfumeSession
1630318849.61,stimulus,2,157,,,NoAct
1630318850.0,stimulus,1,645,,,PerfumeSession
1630318850.11,fixation,2,157,,,NoAct
1630318850.5,fixation,1,645,,,PerfumeSession
1630318851.61,stimulus,2,158,,,NoAct
1630318852.0,stimulus,1,646,,,PerfumeSession
1630318852.11,fixation,2,158,,,NoAct
1630318852.5,fixation,1,646,,,PerfumeSession
1630318853.61,stimulus,2,159,,,NoAct
1630318854.0,stimulus,1,647,,,PerfumeSession
1630318854.11,fixation,2,159,,,NoAct
1630318854.5,fixation,1,647,,,PerfumeSession
1630318855.61,stimulus,2,160,,,NoAct
1630318856.0,stimulus,1,648,,,PerfumeSession
1630318856.11,fixation,2,160,,,NoAct
1630318856.5,fixation,1,648,,,PerfumeSession
1630318857.61,stimulus,2,161,,,NoAct
1630318858.0,stimulus,1,649,,,PerfumeSession
1630318858.11,fixation,2,161,,,NoAct
1630318858.5,fixation,1,649,,,PerfumeSession
1630318859.61,stimulus,2,162,,,NoAct
1630318860.0,stimulus,1,650,,,PerfumeSession
1630318860.11,fixation,2,162,,,NoAct
1630318860.5,fixation,1,650,,,PerfumeSession
1630318861.61,stimulus,2,163,,,NoAct
1630318862.0,stimulus,1,651,,,PerfumeSession
1630318862.11,fixation,2,163,,,NoAct
1630318862.5,fixation,1,651,,,PerfumeSession
1630318863.61,stimulus,2,164,,,NoAct
1630318864.0,stimulus,1,652,,,PerfumeSession
1630318864.11,fixation,2,164,,,NoAct
1630318864.5,fixation,1,652,,,PerfumeSession
1630318865.61,stimulus,2,165,,,NoAct
1630318866.0,stimulus,1,653,,,PerfumeSession
1630318866.11,fixation,2,165,,,NoAct
1630318866.5,fixation,1,653,,,PerfumeSession
1630318867.61,stimulus,2,166,,,NoAct
1630318868.0,stimulus,1,654,,,PerfumeSession
1630318868.11,fixation,2,166,,,NoAct
1630318868.5,fixation,1,654,,,PerfumeSession
1630318869.61,stimulus,2,167,,,NoAct
1630318870.0,stimulus,1,655,,,PerfumeSession
1630318870.11,fixation,2,167,,,NoAct
1630318870.5,fixation,1,655,,,PerfumeSession
1630318871.61,stimulus,2,168,,,NoAct
1630318872.0,stimulus,1,656,,,PerfumeSession
1630318872.11,fixation,2,168,,,NoAct
1630318872.5,fixation,1,656,,,PerfumeSession
1630318873.61,stimulus,2,169,,,NoAct
1630318874.0,stimulus,1,657,,,PerfumeSession
1630318874.11,fixation,2,169,,,NoAct
1630318874.5,fixation,1,657,,,PerfumeSession
1630318875.61,stimulus,2,170,,,NoAct
1630318876.0,stimulus,1,658,,,PerfumeSession
1630318876.11,fixation,2,170,,,NoAct
1630318876.5,fixation,1,658,,,PerfumeSession
1630318877.61,stimulus,2,171,,,NoAct
1630318878.0,stimulus,1,659,,,PerfumeSession
1630318878.11,fixation,2,171,,,NoAct
1630318878.5,fixation,1,659,,,PerfumeSession
1630318879.61,stimulus,2,172,,,NoAct
1630318880.0,stimulus,1,660,,,PerfumeSession
1630318880.11,fixation,2,172,,,NoAct
1630318880.5,fixation,1,660,,,PerfumeSession
1630318881.61,stimulus,2,173,,,NoAct
1630318882.0,stimulus,1,661,,,PerfumeSession
1630318882.11,fixation,2,173,,,NoAct
1630318882.5,fixation,1,661,,,PerfumeSession
1630318883.61,stimulus,2,174,,,NoAct
1630318884.0,stimulus,1,662,,,PerfumeSession
1630318884.11,fixation,2,174,,,NoAct
1630318884.5,fixation,1,662,,,PerfumeSession
1630318885.61,stimulus,2,175,,,NoAct
1630318886.0,stimulus,1,663,,,PerfumeSession
1630318886.11,fixation,2,175,,,NoAct
1630318886.5,fixation,1,663,,,PerfumeSession
1630318887.61,stimulus,2,176,,,NoAct
1630318888.0,stimulus,1,664,,,PerfumeSession
1630318888.11,fixation,2,176,,,NoAct
1630318888.5,fixation,1,664,,,PerfumeSession
1630318889.61,stimulus,2,177,,,NoAct
1630318890.0,stimulus,1,665,,,PerfumeSession
1630318890.11,fixation,2,177,,,NoAct
1630318890.5,fixation,1,665,,,PerfumeSession
1630318891.61,stimulus,2,178,,,NoAct
1630318892.0,stimulus,1,666,,,PerfumeSession
1630318892.11,fixation,2,178,,,NoAct
1630318892.5,fixation,1,666,,,PerfumeSession
1630318893.61,stimulus,2,179,,,NoAct
1630318894.0,stimulus,1,667,,,PerfumeSession
1630318894.11,fixation,2,179,,,NoAct
1630318894.5,fixation,1,667,,,PerfumeSession
1630318895.61,stimulus,2,180,,,NoAct
1630318896.0,stimulus,1,668,,,PerfumeSession
1630318896.11,fixation,2,180,,,NoAct
1630318896.5,fixation,1,668,,,PerfumeSession
1630318897.61,stimulus,2,181,,,NoAct
1630318898.0,stimulus,1,669,,,PerfumeSession
1630318898.11,fixation,2,181,,,NoAct
1630318898.5,fixation,1,669,,,PerfumeSession
1630318899.61,stimulus,2,182,,,NoAct
1630318900.0,stimulus,1,670,,,PerfumeSession
1630318900.11,fixation,2,182,,,NoAct
1630318900.5,fixation,1,670,,,PerfumeSession
1630318901.61,stimulus,2,183,,,NoAct
1630318902.0,stimulus,1,671,,,PerfumeSession
1630318902.11,fixation,2,183,,,NoAct
1630318902.5,fixation,1,671,,,PerfumeSession
1630318903.61,stimulus,2,184,,,NoAct
1630318904.0,stimulus,1,672,,,PerfumeSession
1630318904.11,fixation,2,184,,,NoAct
1630318904.5,fixation,1,672,,,PerfumeSession
1630318905.61,stimulus,2,185,,,NoAct
1630318906.0,stimulus,1,673,,,PerfumeSession
1630318906.11,fixation,2,185,,,NoAct
1630318906.5,fixation,1,673,,,PerfumeSession
1630318907.61,stimulus,2,186,,,NoAct
1630318908.0,stimulus,1,674,,,PerfumeSession
1630318908.11,fixation,2,186,,,NoAct
1630318908.5,fixation,1,674,,,PerfumeSession
1630318909.61,stimulus,2,187,,,NoAct
1630318910.0,stimulus,1,675,,,PerfumeSession
1630318910.11,fixation,2,187,,,NoAct
1630318910.5,fixation,1,675,,,PerfumeSession
1630318911.61,stimulus,2,188,,,NoAct
1630318912.0,stimulus,1,676,,,PerfumeSession
1630318912.11,fixation,2,188,,,NoAct
1630318912.5,fixation,1,676,,,PerfumeSession
1630318913.61,stimulus,2,189,,,NoAct
1630318914.0,stimulus,1,677,,,PerfumeSession
1630318914.11,fixation,2,189,,,NoAct
1630318914.5,fixation,1,677,,,PerfumeSession
1630318915.61,stimulus,2,190,,,NoAct
1630318916.0,stimulus,1,678,,,PerfumeSession
1630318916.11,fixation,2,190,,,NoAct
1630318916.5,fixation,1,678,,,PerfumeSession
1630318917.61,stimulus,2,191,,,NoAct
1630318918.0,stimulus,1,679,,,PerfumeSession
1630318918.11,fixation,2,191,,,NoAct
1630318918.5,fixation,1,679,,,PerfumeSession
1630318919.61,stimulus,2,192,,,NoAct
1630318920.0,stimulus,1,680,,,PerfumeSession
1630318920.11,fixation,2,192,,,NoAct
1630318920.5,fixation,1,680,,,PerfumeSession
1630318921.61,stimulus,2,193,,,NoAct
1630318922.0,stimulus,1,681,,,PerfumeSession
1630318922.11,fixation,2,193,,,NoAct
1630318922.5,fixation,1,681,,,PerfumeSession
1630318923.61,stimulus,2,194,,,NoAct
1630318924.0,stimulus,1,682,,,PerfumeSession
1630318924.11,fixation,2,194,,,NoAct
1630318924.5,fixation,1,682,,,PerfumeSession
1630318925.61,stimulus,2,195,,,NoAct
1630318926.0,stimulus,1,683,,,PerfumeSession
1630318926.11,fixation,2,195,,,NoAct
1630318926.5,fixation,1,683,,,PerfumeSession
1630318927.61,stimulus,2,196,,,NoAct
1630318928.0,stimulus,1,684,,,PerfumeSession
1630318928.11,fixation,2,196,,,NoAct
1630318928.5,fixation,1,684,,,PerfumeSession
1630318929.61,stimulus,2,197,,,NoAct
1630318930.0,stimulus,1,685,,,PerfumeSession
1630318930.11,fixation,2,197,,,NoAct
1630318930.5,fixation,1,685,,,PerfumeSession
1630318931.61,stimulus,2,198,,,NoAct
1630318932.0,stimulus,1,686,,,PerfumeSession
1630318932.11,fixation,2,198,,,NoAct
1630318932.5,fixation,1,686,,,PerfumeSession
1630318933.61,stimulus,2,199,,,NoAct
1630318934.0,stimulus,1,687,,,PerfumeSession
1630318934.11,fixation,2,199,,,NoAct
1630318934.5,fixation,1,687,,,PerfumeSession
1630318935.61,stimulus,2,200,,,NoAct
1630318936.0,stimulus,1,688,,,PerfumeSession
1630318936.11,fixation,2,200,,,NoAct
1630318936.5,fixation,1,688,,,PerfumeSession
1630318937.61,stimulus,2,201,,,NoAct
1630318938.0,stimulus,1,689,,,PerfumeSession
1630318938.11,fixation,2,201,,,NoAct
1630318938.5,fixation,1,689,,,PerfumeSession
1630318939.61,stimulus,2,202,,,NoAct
1630318940.0,stimulus,1,690,,,PerfumeSession
1630318940.11,fixation,2,202,,,NoAct
1630318940.5,fixation,1,690,,,PerfumeSession
1630318941.61,stimulus,2,203,,,NoAct
1630318942.0,stimulus,1,691,,,PerfumeSession
1630318942.11,fixation,2,203,,,NoAct
1630318942.5,fixation,1,691,,,PerfumeSession
1630318943.61,stimulus,2,204,,,NoAct
1630318944.0,stimulus,1,692,,,PerfumeSession
1630318944.11,fixation,2,204,,,NoAct
1630318944.5,fixation,1,692,,,PerfumeSession
1630318945.61,stimulus,2,205,,,NoAct
1630318946.0,stimulus,1,693,,,PerfumeSession
1630318946.11,fixation,2,205,,,NoAct
1630318946.5,fixation,1,693,,,PerfumeSession
1630318947.61,stimulus,2,206,,,NoAct
1630318948.0,stimulus,1,694,,,PerfumeSession
1630318948.11,fixation,2,206,,,NoAct
1630318948.33,stimulus,3,1,,,PracticeSession
1630318948.5,fixation,1,694,,,PerfumeSession
1630318948.83,fixation,3,1,,,PracticeSession
1630318949.61,stimulus,2,207,,,NoAct
1630318950.0,stimulus,1,695,,,PerfumeSession
1630318950.11,fixation,2,207,,,NoAct
1630318950.33,stimulus,3,2,,,PracticeSession
1630318950.5,fixation,1,695,,,PerfumeSession
1630318950.83,fixation,3,2,,,PracticeSession
1630318951.61,stimulus,2,208,,,NoAct
1630318952.0,stimulus,1,696,,,PerfumeSession
1630318952.11,fixation,2,208,,,NoAct
1630318952.33,stimulus,3,3,,,PracticeSession
1630318952.5,fixation,1,696,,,PerfumeSession
1630318952.83,fixation,3,3,,,PracticeSession
1630318953.61,stimulus,2,209,,,NoAct
1630318954.0,stimulus,1,697,,,PerfumeSession
1630318954.11,fixation,2,209,,,NoAct
1630318954.33,stimulus,3,4,,,PracticeSession
1630318954.5,fixation,1,697,,,PerfumeSession
1630318954.83,fixation,3,4,,,PracticeSession
1630318955.61,stimulus,2,210,,,NoAct
1630318956.0,stimulus,1,698,,,PerfumeSession
1630318956.11,fixation,2,210,,,NoAct
1630318956.33,stimulus,3,5,,,PracticeSession
1630318956.5,fixation,1,698,,,PerfumeSession
1630318956.83,fixation,3,5,,,PracticeSession
1630318957.61,stimulus,2,211,,,NoAct
1630318958.0,stimulus,1,699,,,PerfumeSession
1630318958.11,fixation,2,211,,,NoAct
1630318958.33,stimulus,3,6,,,PracticeSession
1630318958.5,fixation,1,699,,,PerfumeSession
1630318958.83,fixation,3,6,,,PracticeSession
1630318959.61,stimulus,2,212,,,NoAct
1630318960.0,stimulus,1,700,,,PerfumeSession
1630318960.11,fixation,2,212,,,NoAct
1630318960.33,stimulus,3,7,,,PracticeSession
1630318960.5,fixation,1,700,,,PerfumeSession
1630318960.83,fixation,3,7,,,PracticeSession
1630318961.61,stimulus,2,213,,,NoAct
1630318962.0,stimulus,1,701,,,PerfumeSession
1630318962.11,fixation,2,213,,,NoAct
1630318962.33,stimulus,3,8,,,PracticeSession
1630318962.5,fixation,1,701,,,PerfumeSession
1630318962.83,fixation,3,8,,,PracticeSession
1630318963.61,stimulus,2,214,,,NoAct
1630318964.0,stimulus,1,702,,,PerfumeSession
1630318964.11,fixation,2,214,,,NoAct
1630318964.33,stimulus,3,9,,,PracticeSession
1630318964.5,fixation,1,702,,,PerfumeSession
1630318964.83,fixation,3,9,,,PracticeSession
1630318965.61,stimulus,2,215,,,NoAct
1630318966.0,stimulus,1,703,,,PerfumeSession
1630318966.11,fixation,2,215,,,NoAct
1630318966.33,stimulus,3,10,,,PracticeSession
1630318966.5,fixation,1,703,,,PerfumeSession
1630318966.83,fixation,3,10,,,PracticeSession
1630318967.61,stimulus,2,216,,,NoAct
1630318968.0,stimulus,1,704,,,PerfumeSession
1630318968.11,fixation,2,216,,,NoAct
1630318968.33,stimulus,3,11,,,PracticeSession
1630318968.5,fixation,1,704,,,PerfumeSession
1630318968.83,fixation,3,11,,,PracticeSession
1630318969.61,stimulus,2,217,,,NoAct
1630318970.0,stimulus,1,705,,,PerfumeSession
1630318970.11,fixation,2,217,,,NoAct
1630318970.33,stimulus,3,12,,,PracticeSession
1630318970.5,fixation,1,705,,,PerfumeSession
1630318970.83,fixation,3,12,,,PracticeSession
1630318971.61,stimulus,2,218,,,NoAct
1630318972.0,stimulus,1,706,,,PerfumeSession
1630318972.11,fixation,2,218,,,NoAct
1630318972.33,stimulus,3,13,,,PracticeSession
1630318972.5,fixation,1,706,,,PerfumeSession
1630318972.83,fixation,3,13,,,PracticeSession
1630318973.61,stimulus,2,219,,,NoAct
1630318974.0,stimulus,1,707,,,PerfumeSession
1630318974.11,fixation,2,219,,,NoAct
1630318974.33,stimulus,3,14,,,PracticeSession
1630318974.5,fixation,1,707,,,PerfumeSession
1630318974.83,fixation,3,14,,,PracticeSession
1630318975.61,stimulus,2,220,,,NoAct
1630318976.0,stimulus,1,708,,,PerfumeSession
1630318976.11,fixation,2,220,,,NoAct
1630318976.33,stimulus,3,15,,,PracticeSession
1630318976.5,fixation,1,708,,,PerfumeSession
1630318976.83,fixation,3,15,,,PracticeSession
1630318977.61,stimulus,2,221,,,NoAct
1630318978.0,stimulus,1,709,,,PerfumeSession
1630318978.11,fixation,2,221,,,NoAct
1630318978.33,stimulus,3,16,,,PracticeSession
1630318978.5,fixation,1,709,,,PerfumeSession
1630318978.83,fixation,3,16,,,PracticeSession
1630318979.61,stimulus,2,222,,,NoAct
1630318980.0,stimulus,1,710,,,PerfumeSession
1630318980.11,fixation,2,222,,,NoAct
1630318980.33,stimulus,3,17,,,PracticeSession
1630318980.5,fixation,1,710,,,PerfumeSession
1630318980.83,fixation,3,17,,,PracticeSession
1630318981.61,stimulus,2,223,,,NoAct
1630318982.0,stimulus,1,711,,,PerfumeSession
1630318982.11,fixation,2,223,,,NoAct
1630318982.33,stimulus,3,18,,,PracticeSession
1630318982.5,fixation,1,711,,,PerfumeSession
1630318982.83,fixation,3,18,,,PracticeSession
1630318983.61,stimulus,2,224,,,NoAct
1630318984.0,stimulus,1,712,,,PerfumeSession
1630318984.11,fixation,2,224,,,NoAct
1630318984.33,stimulus,3,19,,,PracticeSession
1630318984.5,fixation,1,712,,,PerfumeSession
1630318984.83,fixation,3,19,,,PracticeSession
1630318985.61,stimulus,2,225,,,NoAct
1630318986.0,stimulus,1,713,,,PerfumeSession
1630318986.11,fixation,2,225,,,NoAct
1630318986.33,stimulus,3,20,,,PracticeSession
1630318986.5,fixation,1,713,,,PerfumeSession
1630318986.83,fixation,3,20,,,PracticeSession
1630318987.61,stimulus,2,226,,,NoAct
1630318988.0,stimulus,1,714,,,PerfumeSession
1630318988.11,fixation,2,226,,,NoAct
1630318988.33,stimulus,3,21,,,PracticeSession
1630318988.5,fixation,1,714,,,PerfumeSession
1630318988.83,fixation,3,21,,,PracticeSession
1630318989.61,stimulus,2,227,,,NoAct
1630318990.0,stimulus,1,715,,,PerfumeSession
1630318990.11,fixation,2,227,,,NoAct
1630318990.33,stimulus,3,22,,,PracticeSession
1630318990.5,fixation,1,715,,,PerfumeSession
1630318990.83,fixation,3,22,,,PracticeSession
1630318991.61,stimulus,2,228,,,NoAct
1630318992.0,stimulus,1,716,,,PerfumeSession
1630318992.11,fixation,2,228,,,NoAct
1630318992.33,stimulus,3,23,,,PracticeSession
1630318992.5,fixation,1,716,,,PerfumeSession
1630318992.83,fixation,3,23,,,PracticeSession
1630318993.61,stimulus,2,229,,,NoAct
1630318994.0,stimulus,1,717,,,PerfumeSession
1630318994.11,fixation,2,229,,,NoAct
1630318994.33,stimulus,3,24,,,PracticeSession
1630318994.5,fixation,1,717,,,PerfumeSession
1630318994.83,fixation,3,24,,,PracticeSession
1630318995.61,stimulus,2,230,,,NoAct
1630318996.0,stimulus,1,718,,,PerfumeSession
1630318996.11,fixation,2,230,,,NoAct
1630318996.33,stimulus,3,25,,,PracticeSession
1630318996.5,fixation,1,718,,,PerfumeSession
1630318996.83,fixation,3,25,,,PracticeSession
1630318997.61,stimulus,2,231,,,NoAct
1630318998.0,stimulus,1,719,,,PerfumeSession
1630318998.11,fixation,2,231,,,NoAct
1630318998.33,stimulus,3,26,,,PracticeSession
1630318998.5,fixation,1,719,,,PerfumeSession
1630318998.83,fixation,3,26,,,PracticeSession
1630318999.61,stimulus,2,232,,,NoAct
1630319000.0,stimulus,1,720,,,PerfumeSession
1630319000.11,fixation,2,232,,,NoAct
1630319000.33,stimulus,3,27,,,PracticeSession
1630319000.5,fixation,1,720,,,PerfumeSession
1630319000.83,fixation,3,27,,,PracticeSession
1630319001.61,stimulus,2,233,,,NoAct
1630319002.0,stimulus,1,721,,,PerfumeSession
1630319002.11,fixation,2,233,,,NoAct
1630319002.33,stimulus,3,28,,,PracticeSession
1630319002.5,fixation,1,721,,,PerfumeSession
1630319002.83,fixation,3,28,,,PracticeSession
1630319003.61,stimulus,2,234,,,NoAct
1630319004.0,stimulus,1,722,,,PerfumeSession
1630319004.11,fixation,2,234,,,NoAct
1630319004.33,stimulus,3,29,,,PracticeSession
1630319004.5,fixation,1,722,,,PerfumeSession
1630319004.83,fixation,3,29,,,PracticeSession
1630319005.61,stimulus,2,235,,,NoAct
1630319006.0,stimulus,1,723,,,PerfumeSession
1630319006.11,fixation,2,235,,,NoAct
1630319006.33,stimulus,3,30,,,PracticeSession
1630319006.5,fixation,1,723,,,PerfumeSession
1630319006.83,fixation,3,30,,,PracticeSession
1630319007.61,stimulus,2,236,,,NoAct
1630319008.0,stimulus,1,724,,,PerfumeSession
1630319008.11,fixation,2,236,,,NoAct
1630319008.33,stimulus,3,31,,,PracticeSession
1630319008.5,fixation,1,724,,,PerfumeSession
1630319008.83,fixation,3,31,,,PracticeSession
1630319009.61,stimulus,2,237,,,NoAct
1630319010.0,stimulus,1,725,,,PerfumeSession
1630319010.11,fixation,2,237,,,NoAct
1630319010.33,stimulus,3,32,,,PracticeSession
1630319010.5,fixation,1,725,,,PerfumeSession
1630319010.83,fixation,3,32,,,PracticeSession
1630319011.61,stimulus,2,238,,,NoAct
1630319012.0,stimulus,1,726,,,PerfumeSession
1630319012.11,fixation,2,238,,,NoAct
1630319012.33,stimulus,3,33,,,PracticeSession
1630319012.5,fixation,1,726,,,PerfumeSession
1630319012.83,fixation,3,33,,,PracticeSession
1630319013.61,stimulus,2,239,,,NoAct
1630319014.0,stimulus,1,727,,,PerfumeSession
1630319014.11,fixation,2,239,,,NoAct
1630319014.33,stimulus,3,34,,,PracticeSession
1630319014.5,fixation,1,727,,,PerfumeSession
1630319014.83,fixation,3,34,,,PracticeSession
1630319015.61,stimulus,2,240,,,NoAct
1630319016.0,stimulus,1,728,,,PerfumeSession
1630319016.11,fixation,2,240,,,NoAct
1630319016.33,stimulus,3,35,,,PracticeSession
1630319016.5,fixation,1,728,,,PerfumeSession
1630319016.83,fixation,3,35,,,PracticeSession
1630319017.61,stimulus,2,241,,,NoAct
1630319018.0,stimulus,1,729,,,PerfumeSession
1630319018.11,fixation,2,241,,,NoAct
1630319018.33,stimulus,3,36,,,PracticeSession
1630319018.5,fixation,1,729,,,PerfumeSession
1630319018.83,fixation,3,36,,,PracticeSession
1630319019.61,stimulus,2,242,,,NoAct
1630319020.0,stimulus,1,730,,,PerfumeSession
1630319020.11,fixation,2,242,,,NoAct
1630319020.33,stimulus,3,37,,,PracticeSession
1630319020.5,fixation,1,730,,,PerfumeSession
1630319020.83,fixation,3,37,,,PracticeSession
1630319021.61,stimulus,2,243,,,NoAct
1630319022.0,stimulus,1,731,,,PerfumeSession
1630319022.11,fixation,2,243,,,NoAct
1630319022.33,stimulus,3,38,,,PracticeSession
1630319022.5,fixation,1,731,,,PerfumeSession
1630319022.83,fixation,3,38,,,PracticeSession
1630319023.61,stimulus,2,244,,,NoAct
1630319024.0,stimulus,1,732,,,PerfumeSession
1630319024.11,fixation,2,244,,,NoAct
1630319024.33,stimulus,3,39,,,PracticeSession
1630319024.5,fixation,1,732,,,PerfumeSession
1630319024.83,fixation,3,39,,,PracticeSession
1630319025.61,stimulus,2,245,,,NoAct
1630319026.0,stimulus,1,733,,,PerfumeSession
1630319026.11,fixation,2,245,,,NoAct
1630319026.33,stimulus,3,40,,,PracticeSession
1630319026.5,fixation,1,733,,,PerfumeSession
1630319026.83,fixation,3,40,,,PracticeSession
1630319027.61,stimulus,2,246,,,NoAct
1630319028.0,stimulus,1,734,,,PerfumeSession
1630319028.11,fixation,2,246,,,NoAct
1630319028.33,stimulus,3,41,,,PracticeSession
1630319028.5,fixation,1,734,,,PerfumeSession
1630319028.83,fixation,3,41,,,PracticeSession
1630319029.61,stimulus,2,247,,,NoAct
1630319030.0,stimulus,1,735,,,PerfumeSession
1630319030.11,fixation,2,247,,,NoAct
1630319030.33,stimulus,3,42,,,PracticeSession
1630319030.5,fixation,1,735,,,PerfumeSession
1630319030.83,fixation,3,42,,,PracticeSession
1630319031.61,stimulus,2,248,,,NoAct
1630319032.0,stimulus,1,736,,,PerfumeSession
1630319032.11,fixation,2,248,,,NoAct
1630319032.33,stimulus,3,43,,,PracticeSession
1630319032.5,fixation,1,736,,,PerfumeSession
1630319032.83,fixation,3,43,,,PracticeSession
1630319033.61,stimulus,2,249,,,NoAct
1630319034.0,stimulus,1,737,,,PerfumeSession
1630319034.11,fixation,2,249,,,NoAct
1630319034.33,stimulus,3,44,,,PracticeSession
1630319034.5,fixation,1,737,,,PerfumeSession
1630319034.83,fixation,3,44,,,PracticeSession
1630319035.61,stimulus,2,250,,,NoAct
1630319036.0,stimulus,1,738,,,PerfumeSession
1630319036.11,fixation,2,250,,,NoAct
1630319036.33,stimulus,3,45,,,NoAct
1630319036.5,fixation,1,738,,,PerfumeSession
1630319036.83,fixation,3,45,,,NoAct
1630319037.61,stimulus,2,251,,,NoAct
1630319038.0,stimulus,1,739,,,PerfumeSession
1630319038.11,fixation,2,251,,,NoAct
1630319038.33,stimulus,3,46,,,NoAct
1630319038.5,fixation,1,739,,,PerfumeSession
1630319038.83,fixation,3,46,,,NoAct
1630319039.61,stimulus,2,252,,,NoAct
1630319040.0,stimulus,1,740,,,PerfumeSession
1630319040.11,fixation,2,252,,,NoAct
1630319040.33,stimulus,3,47,,,NoAct
1630319040.5,fixation,1,740,,,PerfumeSession
1630319040.83,fixation,3,47,,,NoAct
1630319041.61,stimulus,2,253,,,NoAct
1630319042.0,stimulus,1,741,,,PerfumeSession
1630319042.11,fixation,2,253,,,NoAct
1630319042.33,stimulus,3,48,,,NoAct
1630319042.5,fixation,1,741,,,PerfumeSession
1630319042.83,fixation,3,48,,,NoAct
1630319043.61,stimulus,2,254,,,NoAct
1630319044.0,stimulus,1,742,,,PerfumeSession
1630319044.11,fixation,2,254,,,NoAct
1630319044.33,stimulus,3,49,,,NoAct
1630319044.5,fixation,1,742,,,PerfumeSession
1630319044.83,fixation,3,49,,,NoAct
1630319045.61,stimulus,2,255,,,NoAct
1630319046.0,stimulus,1,743,,,PerfumeSession
1630319046.11,fixation,2,255,,,NoAct
1630319046.33,stimulus,3,50,,,NoAct
1630319046.5,fixation,1,743,,,PerfumeSession
1630319046.83,fixation,3,50,,,NoAct
1630319047.61,stimulus,2,256,,,NoAct
1630319048.0,stimulus,1,744,,,PerfumeSession
1630319048.11,fixation,2,256,,,NoAct
1630319048.33,stimulus,3,51,,,NoAct
1630319048.5,fixation,1,744,,,PerfumeSession
1630319048.83,fixation,3,51,,,NoAct
1630319049.61,stimulus,2,257,,,NoAct
1630319050.0,stimulus,1,745,,,PerfumeSession
1630319050.11,fixation,2,257,,,NoAct
1630319050.33,stimulus,3,52,,,NoAct
1630319050.5,fixation,1,745,,,PerfumeSession
1630319050.83,fixation,3,52,,,NoAct
1630319051.61,stimulus,2,258,,,NoAct
1630319052.0,stimulus,1,746,,,PerfumeSession
1630319052.11,fixation,2,258,,,NoAct
1630319052.33,stimulus,3,53,,,NoAct
1630319052.5,fixation,1,746,,,PerfumeSession
1630319052.83,fixation,3,53,,,NoAct
1630319053.61,stimulus,2,259,,,NoAct
1630319054.0,stimulus,1,747,,,PerfumeSession
1630319054.11,fixation,2,259,,,NoAct
1630319054.33,stimulus,3,54,,,NoAct
1630319054.5,fixation,1,747,,,PerfumeSession
1630319054.83,fixation,3,54,,,NoAct
1630319055.61,stimulus,2,260,,,NoAct
1630319056.0,stimulus,1,748,,,PerfumeSession
1630319056.11,fixation,2,260,,,NoAct
1630319056.33,stimulus,3,55,,,NoAct
1630319056.5,fixation,1,748,,,PerfumeSession
1630319056.83,fixation,3,55,,,NoAct
1630319057.61,stimulus,2,261,,,NoAct
1630319058.0,stimulus,1,749,,,PerfumeSession
1630319058.11,fixation,2,261,,,NoAct
1630319058.33,stimulus,3,56,,,NoAct
1630319058.5,fixation,1,749,,,PerfumeSession
1630319058.83,fixation,3,56,,,NoAct
1630319059.61,stimulus,2,262,,,NoAct
1630319060.0,stimulus,1,750,,,PerfumeSession
1630319060.11,fixation,2,262,,,NoAct
1630319060.33,stimulus,3,57,,,NoAct
1630319060.5,fixation,1,750,,,PerfumeSession
1630319060.83,fixation,3,57,,,NoAct
1630319061.61,stimulus,2,263,,,NoAct
1630319062.0,stimulus,1,751,,,CoffeeSession
1630319062.11,fixation,2,263,,,NoAct
1630319062.33,stimulus,3,58,,,NoAct
1630319062.5,fixation,1,751,,,CoffeeSession
1630319062.83,fixation,3,58,,,NoAct
1630319063.61,stimulus,2,264,,,NoAct
1630319064.0,stimulus,1,752,,,CoffeeSession
1630319064.11,fixation,2,264,,,NoAct
1630319064.33,stimulus,3,59,,,NoAct
1630319064.5,fixation,1,752,,,CoffeeSession
1630319064.83,fixation,3,59,,,NoAct
1630319065.61,stimulus,2,265,,,NoAct
1630319066.0,stimulus,1,753,,,CoffeeSession
1630319066.11,fixation,2,265,,,NoAct
1630319066.33,stimulus,3,60,,,NoAct
1630319066.5,fixation,1,753,,,CoffeeSession
1630319066.83,fixation,3,60,,,NoAct
1630319067.61,stimulus,2,266,,,NoAct
1630319068.0,stimulus,1,754,,,CoffeeSession
1630319068.11,fixation,2,266,,,NoAct
1630319068.33,stimulus,3,61,,,NoAct
1630319068.5,fixation,1,754,,,CoffeeSession
1630319068.83,fixation,3,61,,,NoAct
1630319069.61,stimulus,2,267,,,NoAct
1630319070.0,stimulus,1,755,,,CoffeeSession
1630319070.11,fixation,2,267,,,NoAct
1630319070.33,stimulus,3,62,,,NoAct
1630319070.5,fixation,1,755,,,CoffeeSession
1630319070.83,fixation,3,62,,,NoAct
1630319071.61,stimulus,2,268,,,NoAct
1630319072.0,stimulus,1,756,,,CoffeeSession
1630319072.11,fixation,2,268,,,NoAct
1630319072.33,stimulus,3,63,,,NoAct
1630319072.5,fixation,1,756,,,CoffeeSession
1630319072.83,fixation,3,63,,,NoAct
1630319073.61,stimulus,2,269,,,NoAct
1630319074.0,stimulus,1,757,,,CoffeeSession
1630319074.11,fixation,2,269,,,NoAct
1630319074.33,stimulus,3,64,,,NoAct
1630319074.5,fixation,1,757,,,CoffeeSession
1630319074.83,fixation,3,64,,,NoAct
1630319075.61,stimulus,2,270,,,NoAct
1630319076.0,stimulus,1,758,,,CoffeeSession
1630319076.11,fixation,2,270,,,NoAct
1630319076.33,stimulus,3,65,,,NoAct
1630319076.5,fixation,1,758,,,CoffeeSession
1630319076.83,fixation,3,65,,,NoAct
1630319077.61,stimulus,2,271,,,NoAct
1630319078.0,stimulus,1,759,,,CoffeeSession
1630319078.11,fixation,2,271,,,NoAct
1630319078.33,stimulus,3,66,,,NoAct
1630319078.5,fixation,1,759,,,CoffeeSession
1630319078.83,fixation,3,66,,,NoAct
1630319079.61,stimulus,2,272,,,NoAct
1630319080.0,stimulus,1,760,,,CoffeeSession
1630319080.11,fixation,2,272,,,NoAct
1630319080.33,stimulus,3,67,,,NoAct
1630319080.5,fixation,1,760,,,CoffeeSession
1630319080.83,fixation,3,67,,,NoAct
1630319081.61,stimulus,2,273,,,NoAct
1630319082.0,stimulus,1,761,,,CoffeeSession
1630319082.11,fixation,2,273,,,NoAct
1630319082.33,stimulus,3,68,,,NoAct
1630319082.5,fixation,1,761,,,CoffeeSession
1630319082.83,fixation,3,68,,,NoAct
1630319083.61,stimulus,2,274,,,NoAct
1630319084.0,stimulus,1,762,,,CoffeeSession
1630319084.11,fixation,2,274,,,NoAct
1630319084.33,stimulus,3,69,,,NoAct
1630319084.5,fixation,1,762,,,CoffeeSession
1630319084.83,fixation,3,69,,,NoAct
1630319085.61,stimulus,2,275,,,NoAct
1630319086.0,stimulus,1,763,,,CoffeeSession
1630319086.11,fixation,2,275,,,NoAct
1630319086.33,stimulus,3,70,,,NoAct
1630319086.5,fixation,1,763,,,CoffeeSession
1630319086.83,fixation,3,70,,,NoAct
1630319087.61,stimulus,2,276,,,NoAct
1630319088.0,stimulus,1,764,,,CoffeeSession
1630319088.11,fixation,2,276,,,NoAct
1630319088.33,stimulus,3,71,,,NoAct
1630319088.5,fixation,1,764,,,CoffeeSession
1630319088.83,fixation,3,71,,,NoAct
1630319089.61,stimulus,2,277,,,NoAct
1630319090.0,stimulus,1,765,,,CoffeeSession
1630319090.11,fixation,2,277,,,NoAct
1630319090.33,stimulus,3,72,,,NoAct
1630319090.5,fixation,1,765,,,CoffeeSession
1630319090.83,fixation,3,72,,,NoAct
1630319091.61,stimulus,2,278,,,NoAct
1630319092.0,stimulus,1,766,,,CoffeeSession
1630319092.11,fixation,2,278,,,NoAct
1630319092.33,stimulus,3,73,,,NoAct
1630319092.5,fixation,1,766,,,CoffeeSession
1630319092.83,fixation,3,73,,,NoAct
1630319093.61,stimulus,2,279,,,NoAct
1630319094.0,stimulus,1,767,,,CoffeeSession
1630319094.11,fixation,2,279,,,NoAct
1630319094.33,stimulus,3,74,,,NoAct
1630319094.5,fixation,1,767,,,CoffeeSession
1630319094.83,fixation,3,74,,,NoAct
1630319095.61,stimulus,2,280,,,NoAct
1630319096.0,stimulus,1,768,,,CoffeeSession
1630319096.11,fixation,2,280,,,NoAct
1630319096.33,stimulus,3,75,,,NoAct
1630319096.5,fixation,1,768,,,CoffeeSession
1630319096.83,fixation,3,75,,,NoAct
1630319097.61,stimulus,2,281,,,NoAct
1630319098.0,stimulus,1,769,,,CoffeeSession
1630319098.11,fixation,2,281,,,NoAct
1630319098.33,stimulus,3,76,,,NoAct
1630319098.5,fixation,1,769,,,CoffeeSession
1630319098.83,fixation,3,76,,,NoAct
1630319099.61,stimulus,2,282,,,NoAct
1630319100.0,stimulus,1,770,,,CoffeeSession
1630319100.11,fixation,2,282,,,NoAct
1630319100.33,stimulus,3,77,,,NoAct
1630319100.5,fixation,1,770,,,CoffeeSession
1630319100.83,fixation,3,77,,,NoAct
1630319101.61,stimulus,2,283,,,NoAct
1630319102.0,stimulus,1,771,,,CoffeeSession
1630319102.11,fixation,2,283,,,NoAct
1630319102.33,stimulus,3,78,,,NoAct
1630319102.5,fixation,1,771,,,CoffeeSession
1630319102.83,fixation,3,78,,,NoAct
1630319103.61,stimulus,2,284,,,NoAct
1630319104.0,stimulus,1,772,,,CoffeeSession
1630319104.11,fixation,2,284,,,NoAct
1630319104.33,stimulus,3,79,,,NoAct
1630319104.5,fixation,1,772,,,CoffeeSession
1630319104.83,fixation,3,79,,,NoAct
1630319105.61,stimulus,2,285,,,NoAct
1630319106.0,stimulus,1,773,,,CoffeeSession
1630319106.11,fixation,2,285,,,NoAct
1630319106.33,stimulus,3,80,,,NoAct
1630319106.5,fixation,1,773,,,CoffeeSession
1630319106.83,fixation,3,80,,,NoAct
1630319107.61,stimulus,2,286,,,NoAct
1630319108.0,stimulus,1,774,,,CoffeeSession
1630319108.11,fixation,2,286,,,NoAct
1630319108.33,stimulus,3,81,,,NoAct
1630319108.5,fixation,1,774,,,CoffeeSession
1630319108.83,fixation,3,81,,,NoAct
1630319109.61,stimulus,2,287,,,NoAct
1630319110.0,stimulus,1,775,,,CoffeeSession
1630319110.11,fixation,2,287,,,NoAct
1630319110.33,stimulus,3,82,,,NoAct
1630319110.5,fixation,1,775,,,CoffeeSession
1630319110.83,fixation,3,82,,,NoAct
1630319111.61,stimulus,2,288,,,NoAct
1630319112.0,stimulus,1,776,,,CoffeeSession
1630319112.11,fixation,2,288,,,NoAct
1630319112.33,stimulus,3,83,,,NoAct
1630319112.5,fixation,1,776,,,CoffeeSession
1630319112.83,fixation,3,83,,,NoAct
1630319113.61,stimulus,2,289,,,NoAct
1630319114.0,stimulus,1,777,,,CoffeeSession
1630319114.11,fixation,2,289,,,NoAct
1630319114.33,stimulus,3,84,,,NoAct
1630319114.5,fixation,1,777,,,CoffeeSession
1630319114.83,fixation,3,84,,,NoAct
1630319115.61,stimulus,2,290,,,NoAct
1630319116.0,stimulus,1,778,,,CoffeeSession
1630319116.11,fixation,2,290,,,NoAct
1630319116.33,stimulus,3,85,,,NoAct
1630319116.5,fixation,1,778,,,CoffeeSession
1630319116.83,fixation,3,85,,,NoAct
1630319117.61,stimulus,2,291,,,NoAct
1630319118.0,stimulus,1,779,,,CoffeeSession
1630319118.11,fixation,2,291,,,NoAct
1630319118.33,stimulus,3,86,,,NoAct
1630319118.5,fixation,1,779,,,CoffeeSession
1630319118.83,fixation,3,86,,,NoAct
1630319119.61,stimulus,2,292,,,NoAct
1630319120.0,stimulus,1,780,,,CoffeeSession
1630319120.11,fixation,2,292,,,NoAct
1630319120.33,stimulus,3,87,,,NoAct
1630319120.5,fixation,1,780,,,CoffeeSession
1630319120.83,fixation,3,87,,,NoAct
1630319121.61,stimulus,2,293,,,NoAct
1630319122.0,stimulus,1,781,,,CoffeeSession
1630319122.11,fixation,2,293,,,NoAct
1630319122.33,stimulus,3,88,,,NoAct
1630319122.5,fixation,1,781,,,CoffeeSession
1630319122.83,fixation,3,88,,,NoAct
1630319123.61,stimulus,2,294,,,NoAct
1630319124.0,stimulus,1,782,,,CoffeeSession
1630319124.11,fixation,2,294,,,NoAct
1630319124.33,stimulus,3,89,,,NoAct
1630319124.5,fixation,1,782,,,CoffeeSession
1630319124.83,fixation,3,89,,,NoAct
1630319125.61,stimulus,2,295,,,NoAct
1630319126.0,stimulus,1,783,,,CoffeeSession
1630319126.11,fixation,2,295,,,NoAct
1630319126.33,stimulus,3,90,,,NoAct
1630319126.5,fixation,1,783,,,CoffeeSession
1630319126.83,fixation,3,90,,,NoAct
1630319127.61,stimulus,2,296,,,NoAct
1630319128.0,stimulus,1,784,,,CoffeeSession
1630319128.11,fixation,2,296,,,NoAct
1630319128.33,stimulus,3,91,,,NoAct
1630319128.5,fixation,1,784,,,CoffeeSession
1630319128.83,fixation,3,91,,,NoAct
1630319129.61,stimulus,2,297,,,NoAct
1630319130.0,stimulus,1,785,,,CoffeeSession
1630319130.11,fixation,2,297,,,NoAct
1630319130.33,stimulus,3,92,,,NoAct
1630319130.5,fixation,1,785,,,CoffeeSession
1630319130.83,fixation,3,92,,,NoAct
1630319131.61,stimulus,2,298,,,NoAct
1630319132.0,stimulus,1,786,,,CoffeeSession
1630319132.11,fixation,2,298,,,NoAct
1630319132.33,stimulus,3,93,,,NoAct
1630319132.5,fixation,1,786,,,CoffeeSession
1630319132.83,fixation,3,93,,,NoAct
1630319133.61,stimulus,2,299,,,NoAct
1630319134.0,stimulus,1,787,,,CoffeeSession
1630319134.11,fixation,2,299,,,NoAct
1630319134.33,stimulus,3,94,,,NoAct
1630319134.5,fixation,1,787,,,CoffeeSession
1630319134.83,fixation,3,94,,,NoAct
1630319135.61,stimulus,2,300,,,NoAct
1630319136.0,stimulus,1,788,,,CoffeeSession
1630319136.11,fixation,2,300,,,NoAct
1630319136.33,stimulus,3,95,,,NoAct
1630319136.5,fixation,1,788,,,CoffeeSession
1630319136.83,fixation,3,95,,,NoAct
1630319137.61,stimulus,2,301,,,NoAct
1630319138.0,stimulus,1,789,,,CoffeeSession
1630319138.11,fixation,2,301,,,NoAct
1630319138.33,stimulus,3,96,,,NoAct
1630319138.5,fixation,1,789,,,CoffeeSession
1630319138.83,fixation,3,96,,,NoAct
1630319139.61,stimulus,2,302,,,NoAct
1630319140.0,stimulus,1,790,,,CoffeeSession
1630319140.11,fixation,2,302,,,NoAct
1630319140.33,stimulus,3,97,,,NoAct
1630319140.5,fixation,1,790,,,CoffeeSession
1630319140.83,fixation,3,97,,,NoAct
1630319141.61,stimulus,2,303,,,NoAct
