event_time_s,trial_type,session_idx,trial_idx,RT_s,ACC,session_type
1626193722.48,stimulus,1,1,,,PracticeSession
1626193722.98,fixation,1,1,,,PracticeSession
1626193724.48,stimulus,1,2,,,PracticeSession
1626193724.98,fixation,1,2,,,PracticeSession
1626193726.48,stimulus,1,3,,,PracticeSession
1626193726.98,fixation,1,3,,,PracticeSession
1626193728.48,stimulus,1,4,,,PracticeSession
1626193728.98,fixation,1,4,,,PracticeSession
1626193730.48,stimulus,1,5,,,PracticeSession
1626193730.98,fixation,1,5,,,PracticeSession
1626193732.48,stimulus,1,6,,,PracticeSession
1626193732.98,fixation,1,6,,,PracticeSession
1626193734.48,stimulus,1,7,,,PracticeSession
1626193734.98,fixation,1,7,,,PracticeSession
1626193736.48,stimulus,1,8,,,PracticeSession
1626193736.98,fixation,1,8,,,PracticeSession
1626193738.48,stimulus,1,9,,,PracticeSession
1626193738.98,fixation,1,9,,,PracticeSession
1626193740.48,stimulus,1,10,,,PracticeSession
1626193740.98,fixation,1,10,,,PracticeSession
1626193742.48,stimulus,1,11,,,PracticeSession
1626193742.98,fixation,1,11,,,PracticeSession
1626193744.48,stimulus,1,12,,,PracticeSession
1626193744.98,fixation,1,12,,,PracticeSession
1626193746.48,stimulus,1,13,,,PracticeSession
1626193746.98,fixation,1,13,,,PracticeSession
1626193748.48,stimulus,1,14,,,PracticeSession
1626193748.98,fixation,1,14,,,PracticeSession
1626193750.48,stimulus,1,15,,,PracticeSession
1626193750.98,fixation,1,15,,,PracticeSession
1626193752.48,stimulus,1,16,,,PracticeSession
1626193752.98,fixation,1,16,,,PracticeSession
1626193754.48,stimulus,1,17,,,PracticeSession
1626193754.98,fixation,1,17,,,PracticeSession
1626193756.48,stimulus,1,18,,,PracticeSession
1626193756.98,fixation,1,18,,,PracticeSession
1626193758.48,stimulus,1,19,,,PracticeSession
1626193758.98,fixation,1,19,,,PracticeSession
1626193760.48,stimulus,1,20,,,PracticeSession
1626193760.98,fixation,1,20,,,PracticeSession
1626193762.48,stimulus,1,21,,,PracticeSession
1626193762.98,fixation,1,21,,,PracticeSession
1626193764.48,stimulus,1,22,,,PracticeSession
1626193764.98,fixation,1,22,,,PracticeSession
1626193766.48,stimulus,1,23,,,PracticeSession
1626193766.98,fixation,1,23,,,PracticeSession
1626193768.48,stimulus,1,24,,,PracticeSession
1626193768.98,fixation,1,24,,,PracticeSession
1626193770.48,stimulus,1,25,,,PracticeSession
1626193770.98,fixation,1,25,,,PracticeSession
1626193772.48,stimulus,1,26,,,PracticeSession
1626193772.98,fixation,1,26,,,PracticeSession
1626193774.48,stimulus,1,27,,,PracticeSession
1626193774.98,fixation,1,27,,,PracticeSession
1626193776.48,stimulus,1,28,,,PracticeSession
1626193776.98,fixation,1,28,,,PracticeSession
1626193778.48,stimulus,1,29,,,PracticeSession
1626193778.98,fixation,1,29,,,PracticeSession
1626193780.48,stimulus,1,30,,,PracticeSession
1626193780.98,fixation,1,30,,,PracticeSession
1626193782.48,stimulus,1,31,,,PracticeSession
1626193782.98,fixation,1,31,,,PracticeSession
1626193784.48,stimulus,1,32,,,PracticeSession
1626193784.98,fixation,1,32,,,PracticeSession
1626193786.48,stimulus,1,33,,,PracticeSession
1626193786.98,fixation,1,33,,,PracticeSession
1626193788.48,stimulus,1,34,,,PracticeSession
1626193788.98,fixation,1,34,,,PracticeSession
1626193790.48,stimulus,1,35,,,PracticeSession
1626193790.98,fixation,1,35,,,PracticeSession
1626193792.48,stimulus,1,36,,,PracticeSession
1626193792.98,fixation,1,36,,,PracticeSession
1626193794.48,stimulus,1,37,,,PracticeSession
1626193794.98,fixation,1,37,,,PracticeSession
1626193796.48,stimulus,1,38,,,PracticeSession
1626193796.98,fixation,1,38,,,PracticeSession
1626193798.48,stimulus,1,39,,,PracticeSession
1626193798.98,fixation,1,39,,,PracticeSession
1626193800.48,stimulus,1,40,,,PracticeSession
1626193800.98,fixation,1,40,,,PracticeSession
1626193802.48,stimulus,1,41,,,PracticeSession
1626193802.98,fixation,1,41,,,PracticeSession
1626193804.48,stimulus,1,42,,,PracticeSession
1626193804.98,fixation,1,42,,,PracticeSession
1626193806.48,stimulus,1,43,,,PracticeSession
1626193806.98,fixation,1,43,,,PracticeSession
1626193808.48,stimulus,1,44,,,PracticeSession
1626193808.98,fixation,1,44,,,PracticeSession
1626193810.48,stimulus,1,45,,0.0,NoAct
1626193811.355,fixation,1,45,0.375,1.0,NoAct
1626193812.48,stimulus,1,46,,0.0,NoAct
1626193813.193,fixation,1,46,0.213,1.0,NoAct
1626193814.48,stimulus,1,47,,0.0,NoAct
1626193815.185,fixation,1,47,0.205,1.0,NoAct
1626193816.48,stimulus,1,48,,0.0,NoAct
1626193817.107,fixation,1,48,0.127,1.0,NoAct
1626193818.974,stimulus,1,49,0.494,1.0,NoAct
1626193818.98,fixation,1,49,,0.0,NoAct
1626193820.895,stimulus,1,50,0.415,1.0,NoAct
1626193820.98,fixation,1,50,,0.0,NoAct
1626193822.957,stimulus,1,51,0.477,0.0,NoAct
1626193822.98,fixation,1,51,,0.0,NoAct
1626193824.866,stimulus,1,52,0.386,1.0,NoAct
1626193824.98,fixation,1,52,,0.0,NoAct
1626193826.97,stimulus,1,53,0.49,1.0,NoAct
1626193826.98,fixation,1,53,,0.0,NoAct
1626193828.48,stimulus,1,54,,0.0,NoAct
1626193829.119,fixation,1,54,0.139,1.0,NoAct
1626193830.48,stimulus,1,55,,0.0,NoAct
1626193831.022,fixation,1,55,0.042,1.0,NoAct
1626193832.48,stimulus,1,56,,0.0,NoAct
1626193833.146,fixation,1,56,0.166,1.0,NoAct
1626193834.48,stimulus,1,57,,0.0,NoAct
1626193835.012,fixation,1,57,0.032,1.0,NoAct
1626193836.48,stimulus,1,58,,0.0,NoAct
1626193837.118,fixation,1,58,0.138,1.0,NoAct
1626193838.48,stimulus,1,59,,0.0,NoAct
1626193839.412,fixation,1,59,0.432,1.0,NoAct
1626193840.48,stimulus,1,60,,0.0,NoAct
1626193841.213,fixation,1,60,0.233,1.0,NoAct
1626193842.48,stimulus,1,61,,0.0,NoAct
1626193843.336,fixation,1,61,0.356,1.0,NoAct
1626193844.48,stimulus,1,62,,0.0,NoAct
1626193845.253,fixation,1,62,0.273,1.0,NoAct
1626193846.48,stimulus,1,63,,0.0,NoAct
1626193847.5180001,fixation,1,63,0.538,1.0,NoAct
1626193848.48,stimulus,1,64,,0.0,NoAct
1626193849.2120001,fixation,1,64,0.232,1.0,NoAct
1626193850.48,stimulus,1,65,,0.0,NoAct
1626193851.18,fixation,1,65,0.2,1.0,NoAct
1626193852.48,stimulus,1,66,,0.0,NoAct
1626193853.091,fixation,1,66,0.111,1.0,NoAct
1626193854.48,stimulus,1,67,,0.0,NoAct
1626193855.513,fixation,1,67,0.533,1.0,NoAct
1626193856.48,stimulus,1,68,,0.0,NoAct
1626193857.618,fixation,1,68,0.638,1.0,NoAct
1626193858.48,stimulus,1,69,,0.0,NoAct
1626193859.334,fixation,1,69,0.354,1.0,NoAct
1626193860.48,stimulus,1,70,,0.0,NoAct
1626193861.261,fixation,1,70,0.281,1.0,NoAct
1626193862.48,stimulus,1,71,,0.0,NoAct
1626193863.237,fixation,1,71,0.257,1.0,NoAct
1626193864.48,stimulus,1,72,,0.0,NoAct
1626193866.2580001,fixation,1,72,1.278,1.0,NoAct
1626193866.48,stimulus,1,73,,0.0,NoAct
1626193867.599,fixation,1,73,0.619,1.0,NoAct
1626193868.48,stimulus,1,74,,0.0,NoAct
1626193870.094,fixation,1,74,1.114,1.0,NoAct
1626193870.48,stimulus,1,75,,0.0,NoAct
1626193871.963,fixation,1,75,0.983,1.0,NoAct
1626193872.48,stimulus,1,76,,0.0,NoAct
1626193872.98,fixation,1,76,,0.0,NoAct
1626193874.512,stimulus,1,77,0.032,0.0,NoAct
1626193874.98,fixation,1,77,,0.0,NoAct
1626193876.48,stimulus,1,78,,0.0,NoAct
1626193876.984,fixation,1,78,0.004,1.0,NoAct
1626193878.48,stimulus,1,79,,0.0,NoAct
1626193879.763,fixation,1,79,0.783,1.0,NoAct
1626193880.48,stimulus,1,80,,0.0,NoAct
1626193881.421,fixation,1,80,0.441,1.0,NoAct
1626193882.48,stimulus,1,81,,0.0,NoAct
1626193883.425,fixation,1,81,0.445,1.0,NoAct
1626193884.48,stimulus,1,82,,0.0,NoAct
1626193885.487,fixation,1,82,0.507,0.0,NoAct
1626193886.48,stimulus,1,83,,0.0,NoAct
1626193887.228,fixation,1,83,0.248,1.0,NoAct
1626193888.48,stimulus,1,84,,0.0,NoAct
1626193889.451,fixation,1,84,0.471,1.0,NoAct
1626193890.48,stimulus,1,85,,0.0,NoAct
1626193891.634,fixation,1,85,0.654,1.0,NoAct
1626193892.48,stimulus,1,86,,0.0,NoAct
1626193893.59,fixation,1,86,0.61,1.0,NoAct
1626193894.48,stimulus,1,87,,0.0,NoAct
1626193895.236,fixation,1,87,0.256,1.0,NoAct
1626193896.48,stimulus,1,88,,0.0,NoAct
1626193897.2580001,fixation,1,88,0.278,1.0,NoAct
1626193898.48,stimulus,1,89,,0.0,NoAct
1626193899.417,fixation,1,89,0.437,1.0,NoAct
1626193900.48,stimulus,1,90,,0.0,NoAct
1626193901.573,fixation,1,90,0.593,1.0,NoAct
1626193902.48,stimulus,1,91,,0.0,NoAct
1626193903.639,fixation,1,91,0.659,1.0,NoAct
1626193904.48,stimulus,1,92,,0.0,NoAct
1626193905.523,fixation,1,92,0.543,1.0,NoAct
1626193906.48,stimulus,1,93,,0.0,NoAct
1626193907.306,fixation,1,93,0.326,0.0,NoAct
1626193908.48,stimulus,1,94,,0.0,NoAct
1626193909.399,fixation,1,94,0.419,1.0,NoAct
1626193910.48,stimulus,1,95,,0.0,NoAct
1626193911.872,fixation,1,95,0.892,1.0,NoAct
1626193912.48,stimulus,1,96,,0.0,NoAct
1626193913.828,fixation,1,96,0.848,1.0,NoAct
1626193914.48,stimulus,1,97,,0.0,NoAct
1626193915.364,fixation,1,97,0.384,1.0,NoAct
1626193916.48,stimulus,1,98,,0.0,NoAct
1626193917.276,fixation,1,98,0.296,1.0,NoAct
1626193918.48,stimulus,1,99,,0.0,NoAct
1626193919.036,fixation,1,99,0.056,1.0,NoAct
1626193920.48,stimulus,1,100,,0.0,NoAct
1626193921.227,fixation,1,100,0.247,1.0,NoAct
1626193922.48,stimulus,1,101,,0.0,NoAct
1626193923.607,fixation,1,101,0.627,1.0,NoAct
1626193924.48,stimulus,1,102,,0.0,NoAct
1626193925.249,fixation,1,102,0.269,1.0,NoAct
1626193926.48,stimulus,1,103,,0.0,NoAct
1626193927.425,fixation,1,103,0.445,1.0,NoAct
1626193928.48,stimulus,1,104,,0.0,NoAct
1626193930.145,fixation,1,104,1.165,1.0,NoAct
1626193930.48,stimulus,1,105,,0.0,NoAct
1626193931.586,fixation,1,105,0.606,1.0,NoAct
1626193932.48,stimulus,1,106,,0.0,NoAct
1626193934.006,fixation,1,106,1.026,1.0,NoAct
1626193934.48,stimulus,1,107,,0.0,NoAct
1626193936.071,fixation,1,107,1.091,0.0,NoAct
1626193936.48,stimulus,1,108,,0.0,NoAct
1626193937.822,fixation,1,108,0.842,1.0,NoAct
1626193938.48,stimulus,1,109,,0.0,NoAct
1626193939.77,fixation,1,109,0.79,1.0,NoAct
1626193940.48,stimulus,1,110,,0.0,NoAct
1626193941.7680001,fixation,1,110,0.788,1.0,NoAct
1626193942.48,stimulus,1,111,,0.0,NoAct
1626193943.218,fixation,1,111,0.238,1.0,NoAct
1626193944.48,stimulus,1,112,,0.0,NoAct
1626193945.095,fixation,1,112,0.115,1.0,NoAct
1626193946.48,stimulus,1,113,,0.0,NoAct
1626193947.107,fixation,1,113,0.127,1.0,NoAct
1626193948.48,stimulus,1,114,,0.0,NoAct
1626193949.059,fixation,1,114,0.079,1.0,NoAct
1626193950.48,stimulus,1,115,,0.0,NoAct
1626193951.175,fixation,1,115,0.195,1.0,NoAct
1626193952.48,stimulus,1,116,,0.0,NoAct
1626193953.001,fixation,1,116,0.021,1.0,NoAct
1626193954.48,stimulus,1,117,,0.0,NoAct
1626193955.129,fixation,1,117,0.149,1.0,NoAct
1626193956.48,stimulus,1,118,,0.0,NoAct
1626193957.039,fixation,1,118,0.059,1.0,NoAct
1626193958.48,stimulus,1,119,,0.0,NoAct
1626193959.066,fixation,1,119,0.086,1.0,NoAct
1626193960.973,stimulus,1,120,0.493,1.0,NoAct
1626193960.98,fixation,1,120,,0.0,NoAct
1626193962.48,stimulus,1,121,,0.0,NoAct
1626193963.046,fixation,1,121,0.066,1.0,NoAct
1626193964.48,stimulus,1,122,,0.0,NoAct
1626193965.167,fixation,1,122,0.187,1.0,NoAct
1626193966.48,stimulus,1,123,,0.0,NoAct
1626193967.277,fixation,1,123,0.297,1.0,NoAct
1626193968.48,stimulus,1,124,,0.0,NoAct
1626193969.081,fixation,1,124,0.101,1.0,NoAct
1626193970.48,stimulus,1,125,,0.0,NoAct
1626193971.062,fixation,1,125,0.082,1.0,NoAct
1626193972.48,stimulus,1,126,,0.0,NoAct
1626193973.101,fixation,1,126,0.121,1.0,NoAct
1626193974.48,stimulus,1,127,,0.0,NoAct
1626193975.09,fixation,1,127,0.11,1.0,NoAct
1626193976.48,stimulus,1,128,,0.0,NoAct
1626193977.384,fixation,1,128,0.404,1.0,NoAct
1626193978.48,stimulus,1,129,,0.0,NoAct
1626193979.287,fixation,1,129,0.307,1.0,NoAct
1626193980.48,stimulus,1,130,,0.0,NoAct
1626193981.005,fixation,1,130,0.025,1.0,NoAct
1626193982.48,stimulus,1,131,,0.0,NoAct
1626193983.287,fixation,1,131,0.307,1.0,NoAct
1626193984.48,stimulus,1,132,,0.0,NoAct
1626193985.0870001,fixation,1,132,0.107,1.0,NoAct
1626193986.48,stimulus,1,133,,0.0,NoAct
1626193987.353,fixation,1,133,0.373,1.0,NoAct
1626193988.48,stimulus,1,134,,0.0,NoAct
1626193989.269,fixation,1,134,0.289,1.0,NoAct
1626193990.48,stimulus,1,135,,0.0,NoAct
1626193991.2350001,fixation,1,135,0.255,1.0,NoAct
1626193992.48,stimulus,1,136,,0.0,NoAct
1626193993.542,fixation,1,136,0.562,1.0,NoAct
1626193994.48,stimulus,1,137,,0.0,NoAct
1626193995.244,fixation,1,137,0.264,1.0,NoAct
1626193996.48,stimulus,1,138,,0.0,NoAct
1626193997.242,fixation,1,138,0.262,1.0,NoAct
1626193998.48,stimulus,1,139,,0.0,NoAct
1626193999.115,fixation,1,139,0.135,1.0,NoAct
1626194000.48,stimulus,1,140,,0.0,NoAct
1626194001.532,fixation,1,140,0.552,1.0,NoAct
1626194002.48,stimulus,1,141,,0.0,NoAct
1626194003.606,fixation,1,141,0.626,1.0,NoAct
1626194004.48,stimulus,1,142,,0.0,NoAct
1626194005.7450001,fixation,1,142,0.765,1.0,NoAct
1626194006.48,stimulus,1,143,,0.0,NoAct
1626194007.621,fixation,1,143,0.641,1.0,NoAct
1626194008.48,stimulus,1,144,,0.0,NoAct
1626194009.444,fixation,1,144,0.464,1.0,NoAct
1626194010.48,stimulus,1,145,,0.0,NoAct
1626194011.565,fixation,1,145,0.585,0.0,NoAct
1626194012.48,stimulus,1,146,,0.0,NoAct
1626194013.174,fixation,1,146,0.194,1.0,NoAct
1626194014.48,stimulus,1,147,,0.0,NoAct
1626194015.117,fixation,1,147,0.137,0.0,NoAct
1626194016.48,stimulus,1,148,,0.0,NoAct
1626194017.215,fixation,1,148,0.235,1.0,NoAct
1626194018.48,stimulus,1,149,,0.0,NoAct
1626194019.285,fixation,1,149,0.305,1.0,NoAct
1626194020.48,stimulus,1,150,,0.0,NoAct
1626194021.15,fixation,1,150,0.17,1.0,NoAct
1626194022.48,stimulus,1,151,,0.0,NoAct
1626194024.092,fixation,1,151,1.112,1.0,NoAct
1626194024.48,stimulus,1,152,,0.0,NoAct
1626194025.627,fixation,1,152,0.647,1.0,NoAct
1626194026.48,stimulus,1,153,,0.0,NoAct
1626194027.287,fixation,1,153,0.307,1.0,NoAct
1626194028.48,stimulus,1,154,,0.0,NoAct
1626194029.387,fixation,1,154,0.407,1.0,NoAct
1626194030.48,stimulus,1,155,,0.0,NoAct
1626194031.554,fixation,1,155,0.574,1.0,NoAct
1626194032.48,stimulus,1,156,,0.0,NoAct
1626194033.175,fixation,1,156,0.195,1.0,NoAct
1626194034.48,stimulus,1,157,,0.0,NoAct
1626194035.14,fixation,1,157,0.16,1.0,NoAct
1626194036.48,stimulus,1,158,,0.0,NoAct
1626194037.227,fixation,1,158,0.247,1.0,NoAct
1626194038.48,stimulus,1,159,,0.0,NoAct
1626194039.193,fixation,1,159,0.213,1.0,NoAct
1626194040.9160001,stimulus,1,160,0.436,1.0,NoAct
1626194040.98,fixation,1,160,,0.0,NoAct
1626194042.48,stimulus,1,161,,0.0,NoAct
1626194043.27,fixation,1,161,0.29,1.0,NoAct
1626194044.48,stimulus,1,162,,0.0,NoAct
1626194045.005,fixation,1,162,0.025,1.0,NoAct
1626194046.48,stimulus,1,163,,0.0,NoAct
1626194047.072,fixation,1,163,0.092,1.0,NoAct
1626194048.48,stimulus,1,164,,0.0,NoAct
1626194049.162,fixation,1,164,0.182,1.0,NoAct
1626194050.48,stimulus,1,165,,0.0,NoAct
1626194051.03,fixation,1,165,0.05,1.0,NoAct
1626194052.944,stimulus,1,166,0.464,1.0,NoAct
1626194052.98,fixation,1,166,,0.0,NoAct
1626194054.968,stimulus,1,167,0.488,1.0,NoAct
1626194054.98,fixation,1,167,,0.0,NoAct
1626194056.48,stimulus,1,168,,0.0,NoAct
1626194057.328,fixation,1,168,0.348,1.0,NoAct
1626194058.48,stimulus,1,169,,0.0,NoAct
1626194059.378,fixation,1,169,0.398,1.0,NoAct
1626194060.48,stimulus,1,170,,0.0,NoAct
1626194061.0310001,fixation,1,170,0.051,1.0,NoAct
1626194062.937,stimulus,1,171,0.457,1.0,NoAct
1626194062.98,fixation,1,171,,0.0,NoAct
1626194064.955,stimulus,1,172,0.475,1.0,NoAct
1626194064.98,fixation,1,172,,0.0,NoAct
1626194066.48,stimulus,1,173,,0.0,NoAct
1626194066.989,fixation,1,173,0.009,1.0,NoAct
1626194068.48,stimulus,1,174,,0.0,NoAct
1626194069.039,fixation,1,174,0.059,1.0,NoAct
1626194070.48,stimulus,1,175,,0.0,NoAct
1626194070.9950001,fixation,1,175,0.015,0.0,NoAct
1626194072.48,stimulus,1,176,,0.0,NoAct
1626194073.282,fixation,1,176,0.302,0.0,NoAct
1626194074.48,stimulus,1,177,,0.0,NoAct
1626194075.379,fixation,1,177,0.399,1.0,NoAct
1626194076.48,stimulus,1,178,,0.0,NoAct
1626194077.378,fixation,1,178,0.398,1.0,NoAct
1626194078.48,stimulus,1,179,,0.0,NoAct
1626194079.026,fixation,1,179,0.046,1.0,NoAct
1626194080.9720001,stimulus,1,180,0.492,1.0,NoAct
1626194080.98,fixation,1,180,,0.0,NoAct
1626194082.979,stimulus,1,181,0.499,1.0,NoAct
1626194082.98,fixation,1,181,,0.0,NoAct
1626194084.48,stimulus,1,182,,0.0,NoAct
1626194085.107,fixation,1,182,0.127,1.0,NoAct
1626194086.48,stimulus,1,183,,0.0,NoAct
1626194087.104,fixation,1,183,0.124,1.0,NoAct
1626194088.912,stimulus,1,184,0.432,1.0,NoAct
1626194088.98,fixation,1,184,,0.0,NoAct
1626194090.48,stimulus,1,185,,0.0,NoAct
1626194091.022,fixation,1,185,0.042,1.0,NoAct
1626194092.48,stimulus,1,186,,0.0,NoAct
1626194093.909,fixation,1,186,0.929,0.0,NoAct
1626194094.48,stimulus,1,187,,0.0,NoAct
1626194095.257,fixation,1,187,0.277,1.0,NoAct
1626194096.48,stimulus,1,188,,0.0,NoAct
1626194096.98,fixation,1,188,,0.0,NoAct
1626194098.918,stimulus,1,189,0.438,1.0,NoAct
1626194098.98,fixation,1,189,,0.0,NoAct
1626194100.48,stimulus,1,190,,0.0,NoAct
1626194101.032,fixation,1,190,0.052,1.0,NoAct
1626194102.48,stimulus,1,191,,0.0,NoAct
1626194103.02,fixation,1,191,0.04,1.0,NoAct
1626194104.901,stimulus,1,192,0.421,1.0,NoAct
1626194104.98,fixation,1,192,,0.0,NoAct
1626194106.48,stimulus,1,193,,0.0,NoAct
1626194106.997,fixation,1,193,0.017,1.0,NoAct
1626194108.48,stimulus,1,194,,0.0,NoAct
1626194108.991,fixation,1,194,0.011,1.0,NoAct
1626194110.974,stimulus,1,195,0.494,1.0,NoAct
1626194110.98,fixation,1,195,,0.0,NoAct
1626194112.945,stimulus,1,196,0.465,1.0,NoAct
1626194112.98,fixation,1,196,,0.0,NoAct
1626194114.48,stimulus,1,197,,0.0,NoAct
1626194115.13,fixation,1,197,0.15,1.0,NoAct
1626194116.48,stimulus,1,198,,0.0,NoAct
1626194117.0740001,fixation,1,198,0.094,1.0,NoAct
1626194118.48,stimulus,1,199,,0.0,NoAct
1626194119.415,fixation,1,199,0.435,1.0,NoAct
1626194120.48,stimulus,1,200,,0.0,NoAct
1626194121.1560001,fixation,1,200,0.176,1.0,NoAct
1626194122.942,stimulus,1,201,0.462,1.0,NoAct
1626194122.98,fixation,1,201,,0.0,NoAct
1626194124.48,stimulus,1,202,,0.0,NoAct
1626194125.111,fixation,1,202,0.131,1.0,NoAct
1626194126.48,stimulus,1,203,,0.0,NoAct
1626194127.029,fixation,1,203,0.049,0.0,NoAct
1626194128.48,stimulus,1,204,,0.0,NoAct
1626194129.761,fixation,1,204,0.781,1.0,NoAct
1626194130.48,stimulus,1,205,,0.0,NoAct
1626194131.375,fixation,1,205,0.395,1.0,NoAct
1626194132.48,stimulus,1,206,,0.0,NoAct
1626194133.81,fixation,1,206,0.83,1.0,NoAct
1626194134.48,stimulus,1,207,,0.0,NoAct
1626194134.98,fixation,1,207,,0.0,NoAct
1626194136.48,stimulus,1,208,,0.0,NoAct
1626194138.391,fixation,1,208,1.411,0.0,NoAct
1626194138.48,stimulus,1,209,,0.0,NoAct
1626194139.29,fixation,1,209,0.31,1.0,NoAct
1626194140.48,stimulus,1,210,,0.0,NoAct
1626194141.234,fixation,1,210,0.254,1.0,NoAct
1626194142.48,stimulus,1,211,,0.0,NoAct
1626194142.98,fixation,1,211,,0.0,NoAct
1626194144.603,stimulus,1,212,0.123,1.0,NoAct
1626194145.562,fixation,1,212,0.582,1.0,NoAct
1626194146.48,stimulus,1,213,,0.0,NoAct
1626194147.726,fixation,1,213,0.746,1.0,NoAct
1626194148.48,stimulus,1,214,,0.0,NoAct
1626194150.169,fixation,1,214,1.189,0.0,NoAct
1626194150.48,stimulus,1,215,,0.0,NoAct
1626194151.636,fixation,1,215,0.656,0.0,NoAct
1626194152.48,stimulus,1,216,,0.0,NoAct
1626194153.729,fixation,1,216,0.749,1.0,NoAct
1626194154.48,stimulus,1,217,,0.0,NoAct
1626194155.227,fixation,1,217,0.247,0.0,NoAct
1626194156.48,stimulus,1,218,,0.0,NoAct
1626194157.295,fixation,1,218,0.315,1.0,NoAct
1626194158.48,stimulus,1,219,,0.0,NoAct
1626194159.249,fixation,1,219,0.269,1.0,NoAct
1626194160.48,stimulus,1,220,,0.0,NoAct
1626194161.248,fixation,1,220,0.268,1.0,NoAct
1626194162.48,stimulus,1,221,,,NoAct
1626194162.98,fixation,1,221,,,NoAct
1626194164.48,stimulus,1,222,,0.0,NoAct
1626194165.545,fixation,1,222,0.565,1.0,NoAct
1626194166.48,stimulus,1,223,,0.0,NoAct
1626194167.329,fixation,1,223,0.349,1.0,NoAct
1626194168.48,stimulus,1,224,,0.0,NoAct
1626194169.289,fixation,1,224,0.309,1.0,NoAct
1626194170.48,stimulus,1,225,,0.0,NoAct
1626194171.289,fixation,1,225,0.309,1.0,NoAct
1626194172.48,stimulus,1,226,,0.0,NoAct
1626194173.174,fixation,1,226,0.194,1.0,NoAct
1626194174.48,stimulus,1,227,,0.0,NoAct
1626194175.081,fixation,1,227,0.101,1.0,NoAct
1626194176.48,stimulus,1,228,,0.0,NoAct
1626194177.176,fixation,1,228,0.196,1.0,NoAct
1626194178.48,stimulus,1,229,,0.0,NoAct
1626194179.192,fixation,1,229,0.212,1.0,NoAct
1626194180.48,stimulus,1,230,,0.0,NoAct
1626194181.272,fixation,1,230,0.292,0.0,NoAct
1626194182.48,stimulus,1,231,,0.0,NoAct
1626194183.312,fixation,1,231,0.332,1.0,NoAct
1626194184.48,stimulus,1,232,,0.0,NoAct
1626194185.216,fixation,1,232,0.236,1.0,NoAct
1626194186.922,stimulus,1,233,0.442,0.0,NoAct
1626194186.98,fixation,1,233,,0.0,NoAct
1626194188.48,stimulus,1,234,,0.0,NoAct
1626194189.5870001,fixation,1,234,0.607,0.0,NoAct
1626194190.48,stimulus,1,235,,0.0,NoAct
1626194191.152,fixation,1,235,0.172,0.0,NoAct
1626194192.901,stimulus,1,236,0.421,1.0,NoAct
1626194192.98,fixation,1,236,,0.0,NoAct
1626194194.48,stimulus,1,237,,0.0,NoAct
1626194195.444,fixation,1,237,0.464,1.0,NoAct
1626194196.48,stimulus,1,238,,0.0,NoAct
1626194198.1430001,fixation,1,238,1.163,1.0,NoAct
1626194198.48,stimulus,1,239,,0.0,NoAct
1626194199.272,fixation,1,239,0.292,1.0,NoAct
1626194200.48,stimulus,1,240,,0.0,NoAct
1626194201.367,fixation,1,240,0.387,1.0,NoAct
1626194202.48,stimulus,1,241,,0.0,NoAct
1626194203.184,fixation,1,241,0.204,1.0,NoAct
1626194204.48,stimulus,1,242,,0.0,NoAct
1626194205.131,fixation,1,242,0.151,1.0,NoAct
1626194206.48,stimulus,1,243,,0.0,NoAct
1626194207.845,fixation,1,243,0.865,0.0,NoAct
1626194208.48,stimulus,1,244,,0.0,NoAct
1626194209.306,fixation,1,244,0.326,1.0,NoAct
1626194210.48,stimulus,1,245,,0.0,NoAct
1626194211.0080001,fixation,1,245,0.028,1.0,NoAct
1626194212.48,stimulus,1,246,,0.0,NoAct
1626194213.13,fixation,1,246,0.15,1.0,NoAct
1626194214.954,stimulus,1,247,0.474,1.0,NoAct
1626194214.98,fixation,1,247,,0.0,NoAct
1626194216.947,stimulus,1,248,0.467,1.0,NoAct
1626194216.98,fixation,1,248,,0.0,NoAct
1626194218.886,stimulus,1,249,0.406,1.0,NoAct
1626194218.98,fixation,1,249,,0.0,NoAct
1626194220.48,stimulus,1,250,,0.0,NoAct
1626194221.208,fixation,1,250,0.228,1.0,NoAct
1626194222.48,stimulus,1,251,,0.0,NoAct
1626194223.119,fixation,1,251,0.139,1.0,NoAct
1626194224.48,stimulus,1,252,,0.0,NoAct
1626194225.071,fixation,1,252,0.091,1.0,NoAct
1626194226.894,stimulus,1,253,0.414,1.0,NoAct
1626194226.98,fixation,1,253,,0.0,NoAct
1626194228.955,stimulus,1,254,0.475,1.0,NoAct
1626194228.98,fixation,1,254,,0.0,NoAct
1626194230.9160001,stimulus,1,255,0.436,1.0,NoAct
1626194230.98,fixation,1,255,,0.0,NoAct
1626194232.932,stimulus,1,256,0.452,1.0,NoAct
1626194232.98,fixation,1,256,,0.0,NoAct
1626194234.48,stimulus,1,257,,0.0,NoAct
1626194235.037,fixation,1,257,0.057,1.0,NoAct
1626194236.48,stimulus,1,258,,0.0,NoAct
1626194236.981,fixation,1,258,0.001,1.0,NoAct
1626194238.48,stimulus,1,259,,0.0,NoAct
1626194239.539,fixation,1,259,0.559,0.0,NoAct
1626194240.48,stimulus,1,260,,0.0,NoAct
1626194241.1990001,fixation,1,260,0.219,1.0,NoAct
1626194242.941,stimulus,1,261,0.461,1.0,NoAct
1626194242.98,fixation,1,261,,0.0,NoAct
1626194244.922,stimulus,1,262,0.442,1.0,NoAct
1626194244.98,fixation,1,262,,0.0,NoAct
1626194246.957,stimulus,1,263,0.477,1.0,NoAct
1626194246.98,fixation,1,263,,0.0,NoAct
1626194248.48,stimulus,1,264,,0.0,NoAct
1626194248.996,fixation,1,264,0.016,1.0,NoAct
1626194250.914,stimulus,1,265,0.434,1.0,NoAct
1626194250.98,fixation,1,265,,0.0,NoAct
1626194252.48,stimulus,1,266,,0.0,NoAct
1626194253.24,fixation,1,266,0.26,1.0,NoAct
1626194254.48,stimulus,1,267,,0.0,NoAct
1626194255.086,fixation,1,267,0.106,1.0,NoAct
1626194256.942,stimulus,1,268,0.462,1.0,NoAct
1626194256.98,fixation,1,268,,0.0,NoAct
1626194258.48,stimulus,1,269,,0.0,NoAct
1626194259.0640001,fixation,1,269,0.084,1.0,NoAct
1626194260.48,stimulus,1,270,,0.0,NoAct
1626194261.39,fixation,1,270,0.41,1.0,NoAct
1626194262.48,stimulus,1,271,,0.0,NoAct
1626194263.698,fixation,1,271,0.718,1.0,NoAct
1626194264.966,stimulus,1,272,0.486,1.0,NoAct
1626194264.98,fixation,1,272,,0.0,NoAct
1626194266.8140001,stimulus,1,273,0.334,1.0,NoAct
1626194266.98,fixation,1,273,,0.0,NoAct
1626194268.48,stimulus,1,274,,0.0,NoAct
1626194269.045,fixation,1,274,0.065,1.0,NoAct
1626194270.878,stimulus,1,275,0.398,1.0,NoAct
1626194270.98,fixation,1,275,,0.0,NoAct
1626194272.48,stimulus,1,276,,0.0,NoAct
1626194272.9950001,fixation,1,276,0.015,1.0,NoAct
1626194274.48,stimulus,1,277,,0.0,NoAct
1626194275.203,fixation,1,277,0.223,1.0,NoAct
1626194276.48,stimulus,1,278,,0.0,NoAct
1626194277.1100001,fixation,1,278,0.13,1.0,NoAct
1626194278.838,stimulus,1,279,0.358,1.0,NoAct
1626194278.98,fixation,1,279,,0.0,NoAct
1626194280.887,stimulus,1,280,0.407,1.0,NoAct
1626194280.98,fixation,1,280,,0.0,NoAct
1626194282.85,stimulus,1,281,0.37,1.0,NoAct
1626194282.98,fixation,1,281,,0.0,NoAct
1626194284.919,stimulus,1,282,0.439,1.0,NoAct
1626194284.98,fixation,1,282,,0.0,NoAct
1626194286.905,stimulus,1,283,0.425,1.0,NoAct
1626194286.98,fixation,1,283,,0.0,NoAct
1626194288.9060001,stimulus,1,284,0.426,1.0,NoAct
1626194288.98,fixation,1,284,,0.0,NoAct
1626194290.815,stimulus,1,285,0.335,1.0,NoAct
1626194290.98,fixation,1,285,,0.0,NoAct
1626194292.91,stimulus,1,286,0.43,1.0,NoAct
1626194292.98,fixation,1,286,,0.0,NoAct
1626194294.8,stimulus,1,287,0.32,1.0,NoAct
1626194294.98,fixation,1,287,,0.0,NoAct
1626194296.48,stimulus,1,288,,0.0,NoAct
1626194297.211,fixation,1,288,0.231,1.0,NoAct
1626194298.48,stimulus,1,289,,0.0,NoAct
1626194299.026,fixation,1,289,0.046,1.0,NoAct
1626194300.874,stimulus,1,290,0.394,1.0,NoAct
1626194300.98,fixation,1,290,,0.0,NoAct
1626194302.48,stimulus,1,291,,0.0,NoAct
1626194303.013,fixation,1,291,0.033,1.0,NoAct
1626194304.947,stimulus,1,292,0.467,1.0,NoAct
1626194304.98,fixation,1,292,,0.0,NoAct
1626194306.48,stimulus,1,293,,0.0,NoAct
1626194306.98,fixation,1,293,,0.0,NoAct
1626194308.48,stimulus,1,294,,0.0,NoAct
1626194309.215,fixation,1,294,0.235,0.0,NoAct
1626194310.48,stimulus,1,295,,0.0,NoAct
1626194311.198,fixation,1,295,0.218,1.0,NoAct
1626194312.48,stimulus,1,296,,0.0,NoAct
1626194313.035,fixation,1,296,0.055,1.0,NoAct
1626194314.48,stimulus,1,297,,0.0,NoAct
1626194316.002,fixation,1,297,1.022,1.0,NoAct
1626194316.48,stimulus,1,298,,0.0,NoAct
1626194317.502,fixation,1,298,0.522,1.0,NoAct
1626194318.48,stimulus,1,299,,0.0,NoAct
1626194319.202,fixation,1,299,0.222,1.0,NoAct
1626194320.48,stimulus,1,300,,0.0,NoAct
1626194321.4160001,fixation,1,300,0.436,1.0,NoAct
1626194322.48,stimulus,1,301,,0.0,NoAct
1626194323.126,fixation,1,301,0.146,1.0,NoAct
1626194324.48,stimulus,1,302,,0.0,NoAct
1626194325.071,fixation,1,302,0.091,1.0,NoAct
1626194326.48,stimulus,1,303,,0.0,NoAct
1626194327.211,fixation,1,303,0.231,1.0,NoAct
1626194328.48,stimulus,1,304,,0.0,NoAct
1626194329.174,fixation,1,304,0.194,1.0,NoAct
1626194330.48,stimulus,1,305,,0.0,NoAct
1626194331.147,fixation,1,305,0.167,1.0,NoAct
1626194332.48,stimulus,1,306,,0.0,NoAct
1626194333.317,fixation,1,306,0.337,0.0,NoAct
1626194334.48,stimulus,1,307,,0.0,NoAct
1626194335.848,fixation,1,307,0.868,1.0,NoAct
1626194336.48,stimulus,1,308,,0.0,NoAct
1626194337.642,fixation,1,308,0.662,1.0,NoAct
1626194338.48,stimulus,1,309,,0.0,NoAct
1626194339.552,fixation,1,309,0.572,1.0,NoAct
1626194340.48,stimulus,1,310,,0.0,NoAct
1626194341.279,fixation,1,310,0.299,1.0,NoAct
1626194342.48,stimulus,1,311,,0.0,NoAct
1626194343.146,fixation,1,311,0.166,1.0,NoAct
1626194344.48,stimulus,1,312,,0.0,NoAct
1626194345.036,fixation,1,312,0.056,1.0,NoAct
1626194346.48,stimulus,1,313,,0.0,NoAct
1626194347.072,fixation,1,313,0.092,1.0,NoAct
1626194348.48,stimulus,1,314,,0.0,NoAct
1626194349.122,fixation,1,314,0.142,1.0,NoAct
1626194350.48,stimulus,1,315,,0.0,NoAct
1626194351.148,fixation,1,315,0.168,1.0,NoAct
1626194352.48,stimulus,1,316,,0.0,NoAct
1626194353.171,fixation,1,316,0.191,1.0,NoAct
1626194354.48,stimulus,1,317,,0.0,NoAct
1626194355.317,fixation,1,317,0.337,1.0,NoAct
1626194356.48,stimulus,1,318,,0.0,NoAct
1626194357.185,fixation,1,318,0.205,1.0,NoAct
1626194358.48,stimulus,1,319,,0.0,NoAct
1626194359.465,fixation,1,319,0.485,0.0,NoAct
1626194360.48,stimulus,1,320,,0.0,NoAct
1626194361.372,fixation,1,320,0.392,1.0,NoAct
1626194362.48,stimulus,1,321,,0.0,NoAct
1626194363.208,fixation,1,321,0.228,1.0,NoAct
1626194364.48,stimulus,1,322,,0.0,NoAct
1626194365.2680001,fixation,1,322,0.288,1.0,NoAct
1626194366.48,stimulus,1,323,,0.0,NoAct
1626194366.99,fixation,1,323,0.01,1.0,NoAct
1626194368.48,stimulus,1,324,,0.0,NoAct
1626194369.153,fixation,1,324,0.173,1.0,NoAct
1626194370.48,stimulus,1,325,,0.0,NoAct
1626194371.716,fixation,1,325,0.736,1.0,NoAct
1626194372.48,stimulus,1,326,,0.0,NoAct
1626194373.192,fixation,1,326,0.212,1.0,NoAct
1626194374.48,stimulus,1,327,,0.0,NoAct
1626194375.388,fixation,1,327,0.408,1.0,NoAct
1626194376.48,stimulus,1,328,,0.0,NoAct
1626194377.701,fixation,1,328,0.721,0.0,NoAct
1626194378.48,stimulus,1,329,,0.0,NoAct
1626194379.484,fixation,1,329,0.504,1.0,NoAct
1626194380.48,stimulus,1,330,,0.0,NoAct
1626194381.065,fixation,1,330,0.085,1.0,NoAct
1626194382.48,stimulus,1,331,,0.0,NoAct
1626194383.068,fixation,1,331,0.088,1.0,NoAct
1626194384.48,stimulus,1,332,,0.0,NoAct
1626194385.454,fixation,1,332,0.474,1.0,NoAct
1626194386.891,stimulus,1,333,0.411,1.0,NoAct
1626194386.98,fixation,1,333,,0.0,NoAct
1626194388.836,stimulus,1,334,0.356,1.0,NoAct
1626194388.98,fixation,1,334,,0.0,NoAct
1626194390.944,stimulus,1,335,0.464,1.0,NoAct
1626194390.98,fixation,1,335,,0.0,NoAct
1626194392.904,stimulus,1,336,0.424,1.0,NoAct
1626194392.98,fixation,1,336,,0.0,NoAct
1626194394.895,stimulus,1,337,0.415,1.0,NoAct
1626194394.98,fixation,1,337,,0.0,NoAct
1626194396.892,stimulus,1,338,0.412,1.0,NoAct
1626194396.98,fixation,1,338,,0.0,NoAct
1626194398.868,stimulus,1,339,0.388,0.0,NoAct
1626194398.98,fixation,1,339,,0.0,NoAct
1626194400.864,stimulus,1,340,0.384,1.0,NoAct
1626194400.98,fixation,1,340,,0.0,NoAct
1626194402.928,stimulus,1,341,0.448,1.0,NoAct
1626194402.98,fixation,1,341,,0.0,NoAct
1626194404.894,stimulus,1,342,0.414,1.0,NoAct
1626194404.98,fixation,1,342,,0.0,NoAct
1626194406.864,stimulus,1,343,0.384,1.0,NoAct
1626194406.98,fixation,1,343,,0.0,NoAct
1626194408.852,stimulus,1,344,0.372,1.0,NoAct
1626194408.98,fixation,1,344,,0.0,NoAct
1626194410.48,stimulus,1,345,,0.0,NoAct
1626194410.999,fixation,1,345,0.019,0.0,NoAct
1626194412.855,stimulus,1,346,0.375,1.0,NoAct
1626194412.98,fixation,1,346,,0.0,NoAct
1626194414.951,stimulus,1,347,0.471,1.0,NoAct
1626194414.98,fixation,1,347,,0.0,NoAct
1626194416.48,stimulus,1,348,,0.0,NoAct
1626194417.086,fixation,1,348,0.106,1.0,NoAct
1626194418.944,stimulus,1,349,0.464,1.0,NoAct
1626194418.98,fixation,1,349,,0.0,NoAct
1626194420.48,stimulus,1,350,,0.0,NoAct
1626194421.019,fixation,1,350,0.039,1.0,NoAct
1626194422.94,stimulus,1,351,0.46,1.0,NoAct
1626194422.98,fixation,1,351,,0.0,NoAct
1626194424.895,stimulus,1,352,0.415,1.0,NoAct
1626194424.98,fixation,1,352,,0.0,NoAct
1626194426.873,stimulus,1,353,0.393,0.0,NoAct
1626194427.1,fixation,1,353,0.12,1.0,NoAct
1626194428.48,stimulus,1,354,,0.0,NoAct
1626194429.445,fixation,1,354,0.465,1.0,NoAct
1626194430.94,stimulus,1,355,0.46,1.0,NoAct
1626194430.98,fixation,1,355,,0.0,NoAct
1626194432.48,stimulus,1,356,,0.0,NoAct
1626194433.0,fixation,1,356,0.02,1.0,NoAct
1626194434.48,stimulus,1,357,,0.0,NoAct
1626194435.399,fixation,1,357,0.419,1.0,NoAct
1626194436.957,stimulus,1,358,0.477,1.0,NoAct
1626194436.98,fixation,1,358,,0.0,NoAct
1626194438.48,stimulus,1,359,,0.0,NoAct
1626194439.394,fixation,1,359,0.414,1.0,NoAct
1626194440.48,stimulus,1,360,,0.0,NoAct
1626194441.162,fixation,1,360,0.182,1.0,NoAct
1626194442.48,stimulus,1,361,,0.0,NoAct
1626194443.203,fixation,1,361,0.223,1.0,NoAct
1626194444.48,stimulus,1,362,,0.0,NoAct
1626194445.682,fixation,1,362,0.702,1.0,NoAct
1626194446.48,stimulus,1,363,,0.0,NoAct
1626194447.255,fixation,1,363,0.275,1.0,NoAct
1626194448.48,stimulus,1,364,,0.0,NoAct
1626194449.224,fixation,1,364,0.244,0.0,NoAct
1626194450.48,stimulus,1,365,,0.0,NoAct
1626194451.276,fixation,1,365,0.296,1.0,NoAct
1626194452.48,stimulus,1,366,,0.0,NoAct
1626194453.247,fixation,1,366,0.267,1.0,NoAct
1626194454.48,stimulus,1,367,,0.0,NoAct
1626194455.165,fixation,1,367,0.185,1.0,NoAct
1626194456.48,stimulus,1,368,,0.0,NoAct
1626194457.303,fixation,1,368,0.323,1.0,NoAct
1626194458.48,stimulus,1,369,,0.0,NoAct
1626194459.257,fixation,1,369,0.277,1.0,NoAct
1626194460.48,stimulus,1,370,,0.0,NoAct
1626194461.168,fixation,1,370,0.188,1.0,NoAct
1626194462.48,stimulus,1,371,,0.0,NoAct
1626194463.687,fixation,1,371,0.707,1.0,NoAct
1626194464.48,stimulus,1,372,,0.0,NoAct
1626194465.588,fixation,1,372,0.608,1.0,NoAct
1626194466.48,stimulus,1,373,,0.0,NoAct
1626194467.132,fixation,1,373,0.152,1.0,NoAct
1626194468.48,stimulus,1,374,,0.0,NoAct
1626194469.0640001,fixation,1,374,0.084,1.0,NoAct
1626194470.48,stimulus,1,375,,0.0,NoAct
1626194471.282,fixation,1,375,0.302,1.0,NoAct
1626194472.48,stimulus,1,376,,0.0,NoAct
1626194473.779,fixation,1,376,0.799,1.0,NoAct
1626194474.48,stimulus,1,377,,0.0,NoAct
1626194475.234,fixation,1,377,0.254,1.0,NoAct
1626194476.48,stimulus,1,378,,0.0,NoAct
1626194477.167,fixation,1,378,0.187,1.0,NoAct
1626194478.48,stimulus,1,379,,0.0,NoAct
1626194479.162,fixation,1,379,0.182,1.0,NoAct
1626194480.48,stimulus,1,380,,0.0,NoAct
1626194481.028,fixation,1,380,0.048,1.0,NoAct
1626194482.48,stimulus,1,381,,0.0,NoAct
1626194482.98,fixation,1,381,,0.0,NoAct
1626194484.48,stimulus,1,382,,0.0,NoAct
1626194485.061,fixation,1,382,0.081,1.0,NoAct
1626194486.48,stimulus,1,383,,0.0,NoAct
1626194487.0640001,fixation,1,383,0.084,1.0,NoAct
1626194488.48,stimulus,1,384,,0.0,NoAct
1626194489.019,fixation,1,384,0.039,1.0,NoAct
1626194490.48,stimulus,1,385,,0.0,NoAct
1626194491.553,fixation,1,385,0.573,1.0,NoAct
1626194492.48,stimulus,1,386,,0.0,NoAct
1626194493.282,fixation,1,386,0.302,1.0,NoAct
1626194494.48,stimulus,1,387,,0.0,NoAct
1626194495.278,fixation,1,387,0.298,1.0,NoAct
1626194496.968,stimulus,1,388,0.488,1.0,NoAct
1626194496.98,fixation,1,388,,0.0,NoAct
1626194498.48,stimulus,1,389,,0.0,NoAct
1626194499.129,fixation,1,389,0.149,1.0,NoAct
1626194500.48,stimulus,1,390,,0.0,NoAct
1626194501.025,fixation,1,390,0.045,1.0,NoAct
1626194502.48,stimulus,1,391,,0.0,NoAct
1626194503.021,fixation,1,391,0.041,1.0,NoAct
1626194504.946,stimulus,1,392,0.466,1.0,NoAct
1626194504.98,fixation,1,392,,0.0,NoAct
1626194506.48,stimulus,1,393,,0.0,NoAct
1626194507.083,fixation,1,393,0.103,1.0,NoAct
1626194508.48,stimulus,1,394,,0.0,NoAct
1626194508.983,fixation,1,394,0.003,1.0,NoAct
1626194510.48,stimulus,1,395,,0.0,NoAct
1626194510.9950001,fixation,1,395,0.015,1.0,NoAct
1626194512.48,stimulus,1,396,,0.0,NoAct
1626194513.044,fixation,1,396,0.064,1.0,NoAct
1626194514.48,stimulus,1,397,,0.0,NoAct
1626194515.149,fixation,1,397,0.169,1.0,NoAct
1626194516.48,stimulus,1,398,,,PerfumeSession
1626194516.98,fixation,1,398,,,PerfumeSession
1626194518.48,stimulus,1,399,,,PerfumeSession
1626194518.98,fixation,1,399,,,PerfumeSession
1626194520.48,stimulus,1,400,,,PerfumeSession
1626194520.98,fixation,1,400,,,PerfumeSession
1626194522.48,stimulus,1,401,,,PerfumeSession
1626194522.98,fixation,1,401,,,PerfumeSession
1626194524.48,stimulus,1,402,,,PerfumeSession
1626194524.98,fixation,1,402,,,PerfumeSession
1626194526.48,stimulus,1,403,,,PerfumeSession
1626194526.98,fixation,1,403,,,PerfumeSession
1626194528.48,stimulus,1,404,,,PerfumeSession
1626194528.98,fixation,1,404,,,PerfumeSession
1626194530.48,stimulus,1,405,,,PerfumeSession
1626194530.98,fixation,1,405,,,PerfumeSession
1626194532.48,stimulus,1,406,,,PerfumeSession
1626194532.98,fixation,1,406,,,PerfumeSession
1626194534.48,stimulus,1,407,,,PerfumeSession
1626194534.98,fixation,1,407,,,PerfumeSession
1626194536.48,stimulus,1,408,,,PerfumeSession
1626194536.98,fixation,1,408,,,PerfumeSession
1626194538.48,stimulus,1,409,,,PerfumeSession
1626194538.98,fixation,1,409,,,PerfumeSession
1626194540.48,stimulus,1,410,,,PerfumeSession
1626194540.98,fixation,1,410,,,PerfumeSession
1626194542.48,stimulus,1,411,,,PerfumeSession
1626194542.98,fixation,1,411,,,PerfumeSession
1626194544.48,stimulus,1,412,,,PerfumeSession
1626194544.98,fixation,1,412,,,PerfumeSession
1626194546.48,stimulus,1,413,,,PerfumeSession
1626194546.98,fixation,1,413,,,PerfumeSession
1626194548.48,stimulus,1,414,,,PerfumeSession
1626194548.98,fixation,1,414,,,PerfumeSession
1626194550.48,stimulus,1,415,,,PerfumeSession
1626194550.98,fixation,1,415,,,PerfumeSession
1626194552.48,stimulus,1,416,,,PerfumeSession
1626194552.98,fixation,1,416,,,PerfumeSession
1626194554.48,stimulus,1,417,,,PerfumeSession
1626194554.98,fixation,1,417,,,PerfumeSession
1626194556.48,stimulus,1,418,,,PerfumeSession
1626194556.98,fixation,1,418,,,PerfumeSession
1626194558.48,stimulus,1,419,,,PerfumeSession
1626194558.98,fixation,1,419,,,PerfumeSession
1626194560.48,stimulus,1,420,,,PerfumeSession
1626194560.98,fixation,1,420,,,PerfumeSession
1626194562.48,stimulus,1,421,,,PerfumeSession
1626194562.98,fixation,1,421,,,PerfumeSession
1626194564.48,stimulus,1,422,,,PerfumeSession
1626194564.98,fixation,1,422,,,PerfumeSession
1626194566.48,stimulus,1,423,,,PerfumeSession
1626194566.98,fixation,1,423,,,PerfumeSession
1626194568.48,stimulus,1,424,,,PerfumeSession
1626194568.98,fixation,1,424,,,PerfumeSession
1626194570.48,stimulus,1,425,,,PerfumeSession
1626194570.98,fixation,1,425,,,PerfumeSession
1626194572.48,stimulus,1,426,,,PerfumeSession
1626194572.98,fixation,1,426,,,PerfumeSession
1626194574.48,stimulus,1,427,,,PerfumeSession
1626194574.98,fixation,1,427,,,PerfumeSession
1626194576.48,stimulus,1,428,,,PerfumeSession
1626194576.98,fixation,1,428,,,PerfumeSession
1626194578.48,stimulus,1,429,,,PerfumeSession
1626194578.98,fixation,1,429,,,PerfumeSession
1626194580.48,stimulus,1,430,,,PerfumeSession
1626194580.98,fixation,1,430,,,PerfumeSession
1626194582.48,stimulus,1,431,,,PerfumeSession
1626194582.98,fixation,1,431,,,PerfumeSession
1626194584.48,stimulus,1,432,,,PerfumeSession
1626194584.98,fixation,1,432,,,PerfumeSession
1626194586.48,stimulus,1,433,,,PerfumeSession
1626194586.98,fixation,1,433,,,PerfumeSession
1626194588.48,stimulus,1,434,,,PerfumeSession
1626194588.98,fixation,1,434,,,PerfumeSession
1626194590.48,stimulus,1,435,,,PerfumeSession
1626194590.98,fixation,1,435,,,PerfumeSession
1626194592.48,stimulus,1,436,,,PerfumeSession
1626194592.98,fixation,1,436,,,PerfumeSession
1626194594.48,stimulus,1,437,,,PerfumeSession
1626194594.98,fixation,1,437,,,PerfumeSession
1626194596.48,stimulus,1,438,,,PerfumeSession
1626194596.98,fixation,1,438,,,PerfumeSession
1626194598.48,stimulus,1,439,,,PerfumeSession
1626194598.98,fixation,1,439,,,PerfumeSession
1626194600.48,stimulus,1,440,,,PerfumeSession
1626194600.98,fixation,1,440,,,PerfumeSession
1626194602.48,stimulus,1,441,,,PerfumeSession
1626194602.98,fixation,1,441,,,PerfumeSession
1626194604.48,stimulus,1,442,,,PerfumeSession
1626194604.98,fixation,1,442,,,PerfumeSession
1626194606.48,stimulus,1,443,,,PerfumeSession
1626194606.98,fixation,1,443,,,PerfumeSession
1626194608.48,stimulus,1,444,,,PerfumeSession
1626194608.98,fixation,1,444,,,PerfumeSession
1626194610.48,stimulus,1,445,,,PerfumeSession
1626194610.98,fixation,1,445,,,PerfumeSession
1626194612.48,stimulus,1,446,,,PerfumeSession
1626194612.98,fixation,1,446,,,PerfumeSession
1626194614.48,stimulus,1,447,,,PerfumeSession
1626194614.98,fixation,1,447,,,PerfumeSession
1626194616.48,stimulus,1,448,,,PerfumeSession
1626194616.98,fixation,1,448,,,PerfumeSession
1626194618.48,stimulus,1,449,,,PerfumeSession
1626194618.98,fixation,1,449,,,PerfumeSession
1626194620.48,stimulus,1,450,,,PerfumeSession
1626194620.98,fixation,1,450,,,PerfumeSession
1626194622.48,stimulus,1,451,,,PerfumeSession
1626194622.98,fixation,1,451,,,PerfumeSession
1626194624.48,stimulus,1,452,,,PerfumeSession
1626194624.98,fixation,1,452,,,PerfumeSession
1626194626.48,stimulus,1,453,,,PerfumeSession
1626194626.98,fixation,1,453,,,PerfumeSession
1626194628.48,stimulus,1,454,,,PerfumeSession
1626194628.98,fixation,1,454,,,PerfumeSession
1626194630.48,stimulus,1,455,,,PerfumeSession
1626194630.98,fixation,1,455,,,PerfumeSession
1626194632.48,stimulus,1,456,,,PerfumeSession
1626194632.98,fixation,1,456,,,PerfumeSession
1626194634.48,stimulus,1,457,,,PerfumeSession
1626194634.98,fixation,1,457,,,PerfumeSession
1626194636.48,stimulus,1,458,,,PerfumeSession
1626194636.98,fixation,1,458,,,PerfumeSession
1626194638.48,stimulus,1,459,,,PerfumeSession
1626194638.98,fixation,1,459,,,PerfumeSession
1626194640.48,stimulus,1,460,,,PerfumeSession
1626194640.98,fixation,1,460,,,PerfumeSession
1626194642.48,stimulus,1,461,,,PerfumeSession
1626194642.98,fixation,1,461,,,PerfumeSession
1626194644.48,stimulus,1,462,,,PerfumeSession
1626194644.98,fixation,1,462,,,PerfumeSession
1626194646.48,stimulus,1,463,,,PerfumeSession
1626194646.98,fixation,1,463,,,PerfumeSession
1626194648.48,stimulus,1,464,,,PerfumeSession
1626194648.98,fixation,1,464,,,PerfumeSession
1626194650.48,stimulus,1,465,,,PerfumeSession
1626194650.98,fixation,1,465,,,PerfumeSession
1626194652.48,stimulus,1,466,,,PerfumeSession
1626194652.98,fixation,1,466,,,PerfumeSession
1626194654.48,stimulus,1,467,,,PerfumeSession
1626194654.98,fixation,1,467,,,PerfumeSession
1626194656.48,stimulus,1,468,,,PerfumeSession
1626194656.98,fixation,1,468,,,PerfumeSession
1626194658.48,stimulus,1,469,,,PerfumeSession
1626194658.98,fixation,1,469,,,PerfumeSession
1626194660.48,stimulus,1,470,,,PerfumeSession
1626194660.98,fixation,1,470,,,PerfumeSession
1626194662.48,stimulus,1,471,,,PerfumeSession
1626194662.98,fixation,1,471,,,PerfumeSession
1626194664.48,stimulus,1,472,,,PerfumeSession
1626194664.98,fixation,1,472,,,PerfumeSession
1626194666.48,stimulus,1,473,,,PerfumeSession
1626194666.98,fixation,1,473,,,PerfumeSession
1626194668.48,stimulus,1,474,,,PerfumeSession
1626194668.98,fixation,1,474,,,PerfumeSession
1626194670.48,stimulus,1,475,,,PerfumeSession
1626194670.98,fixation,1,475,,,PerfumeSession
1626194672.48,stimulus,1,476,,,PerfumeSession
1626194672.98,fixation,1,476,,,PerfumeSession
1626194674.48,stimulus,1,477,,,PerfumeSession
1626194674.98,fixation,1,477,,,PerfumeSession
1626194676.48,stimulus,1,478,,,PerfumeSession
1626194676.98,fixation,1,478,,,PerfumeSession
1626194678.48,stimulus,1,479,,,PerfumeSession
1626194678.98,fixation,1,479,,,PerfumeSession
1626194680.48,stimulus,1,480,,,PerfumeSession
1626194680.98,fixation,1,480,,,PerfumeSession
1626194682.48,stimulus,1,481,,,PerfumeSession
1626194682.98,fixation,1,481,,,PerfumeSession
1626194684.48,stimulus,1,482,,,PerfumeSession
1626194684.98,fixation,1,482,,,PerfumeSession
1626194686.48,stimulus,1,483,,,PerfumeSession
1626194686.98,fixation,1,483,,,PerfumeSession
1626194688.48,stimulus,1,484,,,PerfumeSession
1626194688.98,fixation,1,484,,,PerfumeSession
1626194690.48,stimulus,1,485,,,PerfumeSession
1626194690.98,fixation,1,485,,,PerfumeSession
1626194692.48,stimulus,1,486,,,PerfumeSession
1626194692.98,fixation,1,486,,,PerfumeSession
1626194694.48,stimulus,1,487,,,PerfumeSession
1626194694.98,fixation,1,487,,,PerfumeSession
1626194696.48,stimulus,1,488,,,PerfumeSession
1626194696.98,fixation,1,488,,,PerfumeSession
1626194698.48,stimulus,1,489,,,PerfumeSession
1626194698.98,fixation,1,489,,,PerfumeSession
1626194700.48,stimulus,1,490,,,PerfumeSession
1626194700.98,fixation,1,490,,,PerfumeSession
1626194702.48,stimulus,1,491,,,PerfumeSession
1626194702.98,fixation,1,491,,,PerfumeSession
1626194704.48,stimulus,1,492,,,PerfumeSession
1626194704.98,fixation,1,492,,,PerfumeSession
1626194706.48,stimulus,1,493,,,PerfumeSession
1626194706.98,fixation,1,493,,,PerfumeSession
1626194708.48,stimulus,1,494,,,PerfumeSession
1626194708.98,fixation,1,494,,,PerfumeSession
1626194710.02,stimulus,2,1,,,PracticeSession
1626194710.48,stimulus,1,495,,,PerfumeSession
1626194710.52,fixation,2,1,,,PracticeSession
1626194710.98,fixation,1,495,,,PerfumeSession
1626194712.02,stimulus,2,2,,,PracticeSession
1626194712.48,stimulus,1,496,,,PerfumeSession
1626194712.52,fixation,2,2,,,PracticeSession
1626194712.98,fixation,1,496,,,PerfumeSession
1626194714.02,stimulus,2,3,,,PracticeSession
1626194714.48,stimulus,1,497,,,PerfumeSession
1626194714.52,fixation,2,3,,,PracticeSession
1626194714.98,fixation,1,497,,,PerfumeSession
1626194716.02,stimulus,2,4,,,PracticeSession
1626194716.48,stimulus,1,498,,,PerfumeSession
1626194716.52,fixation,2,4,,,PracticeSession
1626194716.98,fixation,1,498,,,PerfumeSession
1626194718.02,stimulus,2,5,,,PracticeSession
1626194718.48,stimulus,1,499,,,PerfumeSession
1626194718.52,fixation,2,5,,,PracticeSession
1626194718.98,fixation,1,499,,,PerfumeSession
1626194720.02,stimulus,2,6,,,PracticeSession
1626194720.48,stimulus,1,500,,,PerfumeSession
1626194720.52,fixation,2,6,,,PracticeSession
1626194720.98,fixation,1,500,,,PerfumeSession
1626194722.02,stimulus,2,7,,,PracticeSession
1626194722.48,stimulus,1,501,,,PerfumeSession
1626194722.52,fixation,2,7,,,PracticeSession
1626194722.98,fixation,1,501,,,PerfumeSession
1626194724.02,stimulus,2,8,,,PracticeSession
1626194724.48,stimulus,1,502,,,PerfumeSession
1626194724.52,fixation,2,8,,,PracticeSession
1626194724.98,fixation,1,502,,,PerfumeSession
1626194726.02,stimulus,2,9,,,PracticeSession
1626194726.48,stimulus,1,503,,,PerfumeSession
1626194726.52,fixation,2,9,,,PracticeSession
1626194726.98,fixation,1,503,,,PerfumeSession
1626194728.02,stimulus,2,10,,,PracticeSession
1626194728.48,stimulus,1,504,,,PerfumeSession
1626194728.52,fixation,2,10,,,PracticeSession
1626194728.98,fixation,1,504,,,PerfumeSession
1626194730.02,stimulus,2,11,,,PracticeSession
1626194730.48,stimulus,1,505,,,PerfumeSession
1626194730.52,fixation,2,11,,,PracticeSession
1626194730.98,fixation,1,505,,,PerfumeSession
1626194732.02,stimulus,2,12,,,PracticeSession
1626194732.48,stimulus,1,506,,,PerfumeSession
1626194732.52,fixation,2,12,,,PracticeSession
1626194732.98,fixation,1,506,,,PerfumeSession
1626194734.02,stimulus,2,13,,,PracticeSession
1626194734.48,stimulus,1,507,,,PerfumeSession
1626194734.52,fixation,2,13,,,PracticeSession
1626194734.98,fixation,1,507,,,PerfumeSession
1626194736.02,stimulus,2,14,,,PracticeSession
1626194736.48,stimulus,1,508,,,PerfumeSession
1626194736.52,fixation,2,14,,,PracticeSession
1626194736.98,fixation,1,508,,,PerfumeSession
1626194738.02,stimulus,2,15,,,PracticeSession
1626194738.48,stimulus,1,509,,,PerfumeSession
1626194738.52,fixation,2,15,,,PracticeSession
1626194738.98,fixation,1,509,,,PerfumeSession
1626194740.02,stimulus,2,16,,,PracticeSession
1626194740.48,stimulus,1,510,,,PerfumeSession
1626194740.52,fixation,2,16,,,PracticeSession
1626194740.98,fixation,1,510,,,PerfumeSession
1626194742.02,stimulus,2,17,,,PracticeSession
1626194742.48,stimulus,1,511,,,PerfumeSession
1626194742.52,fixation,2,17,,,PracticeSession
1626194742.98,fixation,1,511,,,PerfumeSession
1626194744.02,stimulus,2,18,,,PracticeSession
1626194744.48,stimulus,1,512,,,PerfumeSession
1626194744.52,fixation,2,18,,,PracticeSession
1626194744.98,fixation,1,512,,,PerfumeSession
1626194746.02,stimulus,2,19,,,PracticeSession
1626194746.48,stimulus,1,513,,,PerfumeSession
1626194746.52,fixation,2,19,,,PracticeSession
1626194746.98,fixation,1,513,,,PerfumeSession
1626194748.02,stimulus,2,20,,,PracticeSession
1626194748.48,stimulus,1,514,,,PerfumeSession
1626194748.52,fixation,2,20,,,PracticeSession
1626194748.98,fixation,1,514,,,PerfumeSession
1626194750.02,stimulus,2,21,,,PracticeSession
1626194750.48,stimulus,1,515,,,PerfumeSession
1626194750.52,fixation,2,21,,,PracticeSession
1626194750.98,fixation,1,515,,,PerfumeSession
1626194752.02,stimulus,2,22,,,PracticeSession
1626194752.48,stimulus,1,516,,,PerfumeSession
1626194752.52,fixation,2,22,,,PracticeSession
1626194752.98,fixation,1,516,,,PerfumeSession
1626194754.02,stimulus,2,23,,,PracticeSession
1626194754.48,stimulus,1,517,,,PerfumeSession
1626194754.52,fixation,2,23,,,PracticeSession
1626194754.98,fixation,1,517,,,PerfumeSession
1626194756.02,stimulus,2,24,,,PracticeSession
1626194756.48,stimulus,1,518,,,PerfumeSession
1626194756.52,fixation,2,24,,,PracticeSession
1626194756.98,fixation,1,518,,,PerfumeSession
1626194758.02,stimulus,2,25,,,PracticeSession
1626194758.48,stimulus,1,519,,,PerfumeSession
1626194758.52,fixation,2,25,,,PracticeSession
1626194758.98,fixation,1,519,,,PerfumeSession
1626194760.02,stimulus,2,26,,,PracticeSession
1626194760.48,stimulus,1,520,,,PerfumeSession
1626194760.52,fixation,2,26,,,PracticeSession
1626194760.98,fixation,1,520,,,PerfumeSession
1626194762.02,stimulus,2,27,,,PracticeSession
1626194762.48,stimulus,1,521,,,PerfumeSession
1626194762.52,fixation,2,27,,,PracticeSession
1626194762.98,fixation,1,521,,,PerfumeSession
1626194764.02,stimulus,2,28,,,PracticeSession
1626194764.48,stimulus,1,522,,,PerfumeSession
1626194764.52,fixation,2,28,,,PracticeSession
1626194764.98,fixation,1,522,,,PerfumeSession
1626194766.02,stimulus,2,29,,,PracticeSession
1626194766.48,stimulus,1,523,,,PerfumeSession
1626194766.52,fixation,2,29,,,PracticeSession
1626194766.98,fixation,1,523,,,PerfumeSession
1626194768.02,stimulus,2,30,,,PracticeSession
1626194768.48,stimulus,1,524,,,PerfumeSession
1626194768.52,fixation,2,30,,,PracticeSession
1626194768.98,fixation,1,524,,,PerfumeSession
1626194770.02,stimulus,2,31,,,PracticeSession
1626194770.48,stimulus,1,525,,,PerfumeSession
1626194770.52,fixation,2,31,,,PracticeSession
1626194770.98,fixation,1,525,,,PerfumeSession
1626194772.02,stimulus,2,32,,,PracticeSession
1626194772.48,stimulus,1,526,,,PerfumeSession
1626194772.52,fixation,2,32,,,PracticeSession
1626194772.98,fixation,1,526,,,PerfumeSession
1626194774.02,stimulus,2,33,,,PracticeSession
1626194774.48,stimulus,1,527,,,PerfumeSession
1626194774.52,fixation,2,33,,,PracticeSession
1626194774.98,fixation,1,527,,,PerfumeSession
1626194776.02,stimulus,2,34,,,PracticeSession
1626194776.48,stimulus,1,528,,,PerfumeSession
1626194776.52,fixation,2,34,,,PracticeSession
1626194776.98,fixation,1,528,,,PerfumeSession
1626194778.02,stimulus,2,35,,,PracticeSession
1626194778.48,stimulus,1,529,,,PerfumeSession
1626194778.52,fixation,2,35,,,PracticeSession
1626194778.98,fixation,1,529,,,PerfumeSession
1626194780.02,stimulus,2,36,,,PracticeSession
1626194780.48,stimulus,1,530,,,PerfumeSession
1626194780.52,fixation,2,36,,,PracticeSession
1626194780.98,fixation,1,530,,,PerfumeSession
1626194782.02,stimulus,2,37,,,PracticeSession
1626194782.48,stimulus,1,531,,,PerfumeSession
1626194782.52,fixation,2,37,,,PracticeSession
1626194782.98,fixation,1,531,,,PerfumeSession
1626194784.02,stimulus,2,38,,,PracticeSession
1626194784.48,stimulus,1,532,,,PerfumeSession
1626194784.52,fixation,2,38,,,PracticeSession
1626194784.98,fixation,1,532,,,PerfumeSession
1626194786.02,stimulus,2,39,,,PracticeSession
1626194786.48,stimulus,1,533,,,PerfumeSession
1626194786.52,fixation,2,39,,,PracticeSession
1626194786.98,fixation,1,533,,,PerfumeSession
1626194788.02,stimulus,2,40,,,PracticeSession
1626194788.48,stimulus,1,534,,,PerfumeSession
1626194788.52,fixation,2,40,,,PracticeSession
1626194788.98,fixation,1,534,,,PerfumeSession
1626194790.02,stimulus,2,41,,,PracticeSession
1626194790.48,stimulus,1,535,,,PerfumeSession
1626194790.52,fixation,2,41,,,PracticeSession
1626194790.98,fixation,1,535,,,PerfumeSession
1626194792.02,stimulus,2,42,,,PracticeSession
1626194792.48,stimulus,1,536,,,PerfumeSession
1626194792.52,fixation,2,42,,,PracticeSession
1626194792.98,fixation,1,536,,,PerfumeSession
1626194794.02,stimulus,2,43,,,PracticeSession
1626194794.48,stimulus,1,537,,,PerfumeSession
1626194794.52,fixation,2,43,,,PracticeSession
1626194794.98,fixation,1,537,,,PerfumeSession
1626194796.02,stimulus,2,44,,,PracticeSession
1626194796.48,stimulus,1,538,,,PerfumeSession
1626194796.52,fixation,2,44,,,PracticeSession
1626194796.98,fixation,1,538,,,PerfumeSession
1626194798.02,stimulus,2,45,,,NoAct
1626194798.48,stimulus,1,539,,,PerfumeSession
1626194798.52,fixation,2,45,,,NoAct
1626194798.98,fixation,1,539,,,PerfumeSession
1626194800.02,stimulus,2,46,,,NoAct
1626194800.48,stimulus,1,540,,,PerfumeSession
1626194800.52,fixation,2,46,,,NoAct
1626194800.98,fixation,1,540,,,PerfumeSession
1626194802.02,stimulus,2,47,,,NoAct
1626194802.48,stimulus,1,541,,,PerfumeSession
1626194802.52,fixation,2,47,,,NoAct
1626194802.98,fixation,1,541,,,PerfumeSession
1626194804.02,stimulus,2,48,,,NoAct
1626194804.48,stimulus,1,542,,,PerfumeSession
1626194804.52,fixation,2,48,,,NoAct
1626194804.98,fixation,1,542,,,PerfumeSession
1626194806.02,stimulus,2,49,,,NoAct
1626194806.48,stimulus,1,543,,,PerfumeSession
1626194806.52,fixation,2,49,,,NoAct
1626194806.98,fixation,1,543,,,PerfumeSession
1626194808.02,stimulus,2,50,,,NoAct
1626194808.48,stimulus,1,544,,,PerfumeSession
1626194808.52,fixation,2,50,,,NoAct
1626194808.98,fixation,1,544,,,PerfumeSession
1626194810.02,stimulus,2,51,,,NoAct
1626194810.48,stimulus,1,545,,,PerfumeSession
1626194810.52,fixation,2,51,,,NoAct
1626194810.98,fixation,1,545,,,PerfumeSession
1626194812.02,stimulus,2,52,,,NoAct
1626194812.48,stimulus,1,546,,,PerfumeSession
1626194812.52,fixation,2,52,,,NoAct
1626194812.98,fixation,1,546,,,PerfumeSession
1626194814.02,stimulus,2,53,,,NoAct
1626194814.48,stimulus,1,547,,,PerfumeSession
1626194814.52,fixation,2,53,,,NoAct
1626194814.98,fixation,1,547,,,PerfumeSession
1626194816.02,stimulus,2,54,,,NoAct
1626194816.48,stimulus,1,548,,,PerfumeSession
1626194816.52,fixation,2,54,,,NoAct
1626194816.98,fixation,1,548,,,PerfumeSession
1626194818.02,stimulus,2,55,,,NoAct
1626194818.48,stimulus,1,549,,,PerfumeSession
1626194818.52,fixation,2,55,,,NoAct
1626194818.98,fixation,1,549,,,PerfumeSession
1626194820.02,stimulus,2,56,,,NoAct
1626194820.48,stimulus,1,550,,,PerfumeSession
1626194820.52,fixation,2,56,,,NoAct
1626194820.98,fixation,1,550,,,PerfumeSession
1626194822.02,stimulus,2,57,,,NoAct
1626194822.48,stimulus,1,551,,,PerfumeSession
1626194822.52,fixation,2,57,,,NoAct
1626194822.98,fixation,1,551,,,PerfumeSession
1626194824.02,stimulus,2,58,,,NoAct
1626194824.48,stimulus,1,552,,,PerfumeSession
1626194824.52,fixation,2,58,,,NoAct
1626194824.98,fixation,1,552,,,PerfumeSession
1626194826.02,stimulus,2,59,,,NoAct
1626194826.48,stimulus,1,553,,,PerfumeSession
1626194826.52,fixation,2,59,,,NoAct
1626194826.98,fixation,1,553,,,PerfumeSession
1626194828.02,stimulus,2,60,,,NoAct
1626194828.48,stimulus,1,554,,,PerfumeSession
1626194828.52,fixation,2,60,,,NoAct
1626194828.98,fixation,1,554,,,PerfumeSession
1626194830.02,stimulus,2,61,,,NoAct
1626194830.48,stimulus,1,555,,,PerfumeSession
1626194830.52,fixation,2,61,,,NoAct
1626194830.98,fixation,1,555,,,PerfumeSession
1626194832.02,stimulus,2,62,,,NoAct
1626194832.48,stimulus,1,556,,,PerfumeSession
1626194832.52,fixation,2,62,,,NoAct
1626194832.98,fixation,1,556,,,PerfumeSession
1626194834.02,stimulus,2,63,,,NoAct
1626194834.48,stimulus,1,557,,,PerfumeSession
1626194834.52,fixation,2,63,,,NoAct
1626194834.98,fixation,1,557,,,PerfumeSession
1626194836.02,stimulus,2,64,,,NoAct
1626194836.48,stimulus,1,558,,,PerfumeSession
1626194836.52,fixation,2,64,,,NoAct
1626194836.98,fixation,1,558,,,PerfumeSession
1626194838.02,stimulus,2,65,,,NoAct
1626194838.48,stimulus,1,559,,,PerfumeSession
1626194838.52,fixation,2,65,,,NoAct
1626194838.98,fixation,1,559,,,PerfumeSession
1626194840.02,stimulus,2,66,,,NoAct
1626194840.48,stimulus,1,560,,,PerfumeSession
1626194840.52,fixation,2,66,,,NoAct
1626194840.98,fixation,1,560,,,PerfumeSession
1626194842.02,stimulus,2,67,,,NoAct
1626194842.48,stimulus,1,561,,,PerfumeSession
1626194842.52,fixation,2,67,,,NoAct
1626194842.98,fixation,1,561,,,PerfumeSession
1626194844.02,stimulus,2,68,,,NoAct
1626194844.48,stimulus,1,562,,,PerfumeSession
1626194844.52,fixation,2,68,,,NoAct
1626194844.98,fixation,1,562,,,PerfumeSession
1626194846.02,stimulus,2,69,,,NoAct
1626194846.48,stimulus,1,563,,,PerfumeSession
1626194846.52,fixation,2,69,,,NoAct
1626194846.98,fixation,1,563,,,PerfumeSession
1626194848.02,stimulus,2,70,,,NoAct
1626194848.48,stimulus,1,564,,,PerfumeSession
1626194848.52,fixation,2,70,,,NoAct
1626194848.98,fixation,1,564,,,PerfumeSession
1626194850.02,stimulus,2,71,,,NoAct
1626194850.48,stimulus,1,565,,,PerfumeSession
1626194850.52,fixation,2,71,,,NoAct
1626194850.98,fixation,1,565,,,PerfumeSession
1626194852.02,stimulus,2,72,,,NoAct
1626194852.48,stimulus,1,566,,,PerfumeSession
1626194852.52,fixation,2,72,,,NoAct
1626194852.98,fixation,1,566,,,PerfumeSession
1626194854.02,stimulus,2,73,,,NoAct
1626194854.48,stimulus,1,567,,,PerfumeSession
1626194854.52,fixation,2,73,,,NoAct
1626194854.98,fixation,1,567,,,PerfumeSession
1626194856.02,stimulus,2,74,,,NoAct
1626194856.48,stimulus,1,568,,,PerfumeSession
1626194856.52,fixation,2,74,,,NoAct
1626194856.98,fixation,1,568,,,PerfumeSession
1626194858.02,stimulus,2,75,,,NoAct
1626194858.48,stimulus,1,569,,,PerfumeSession
1626194858.52,fixation,2,75,,,NoAct
1626194858.98,fixation,1,569,,,PerfumeSession
1626194860.02,stimulus,2,76,,,NoAct
1626194860.48,stimulus,1,570,,,PerfumeSession
1626194860.52,fixation,2,76,,,NoAct
1626194860.98,fixation,1,570,,,PerfumeSession
1626194862.02,stimulus,2,77,,,NoAct
1626194862.48,stimulus,1,571,,,PerfumeSession
1626194862.52,fixation,2,77,,,NoAct
1626194862.98,fixation,1,571,,,PerfumeSession
1626194864.02,stimulus,2,78,,,NoAct
1626194864.48,stimulus,1,572,,,PerfumeSession
1626194864.52,fixation,2,78,,,NoAct
1626194864.98,fixation,1,572,,,PerfumeSession
1626194866.02,stimulus,2,79,,,NoAct
1626194866.48,stimulus,1,573,,,PerfumeSession
1626194866.52,fixation,2,79,,,NoAct
1626194866.98,fixation,1,573,,,PerfumeSession
1626194868.02,stimulus,2,80,,,NoAct
1626194868.48,stimulus,1,574,,,PerfumeSession
1626194868.52,fixation,2,80,,,NoAct
1626194868.98,fixation,1,574,,,PerfumeSession
1626194870.02,stimulus,2,81,,,NoAct
1626194870.48,stimulus,1,575,,,PerfumeSession
1626194870.52,fixation,2,81,,,NoAct
1626194870.98,fixation,1,575,,,PerfumeSession
1626194872.02,stimulus,2,82,,,NoAct
1626194872.48,stimulus,1,576,,,PerfumeSession
1626194872.52,fixation,2,82,,,NoAct
1626194872.98,fixation,1,576,,,PerfumeSession
1626194874.02,stimulus,2,83,,,NoAct
1626194874.48,stimulus,1,577,,,PerfumeSession
1626194874.52,fixation,2,83,,,NoAct
1626194874.98,fixation,1,577,,,PerfumeSession
1626194876.02,stimulus,2,84,,,NoAct
1626194876.48,stimulus,1,578,,,PerfumeSession
1626194876.52,fixation,2,84,,,NoAct
1626194876.98,fixation,1,578,,,PerfumeSession
1626194878.02,stimulus,2,85,,,NoAct
1626194878.48,stimulus,1,579,,,PerfumeSession
1626194878.52,fixation,2,85,,,NoAct
1626194878.98,fixation,1,579,,,PerfumeSession
1626194880.02,stimulus,2,86,,,NoAct
1626194880.48,stimulus,1,580,,,PerfumeSession
1626194880.52,fixation,2,86,,,NoAct
1626194880.98,fixation,1,580,,,PerfumeSession
1626194882.02,stimulus,2,87,,,NoAct
1626194882.48,stimulus,1,581,,,PerfumeSession
1626194882.52,fixation,2,87,,,NoAct
1626194882.98,fixation,1,581,,,PerfumeSession
1626194884.02,stimulus,2,88,,,NoAct
1626194884.48,stimulus,1,582,,,PerfumeSession
1626194884.52,fixation,2,88,,,NoAct
1626194884.98,fixation,1,582,,,PerfumeSession
1626194886.02,stimulus,2,89,,,NoAct
1626194886.48,stimulus,1,583,,,PerfumeSession
1626194886.52,fixation,2,89,,,NoAct
1626194886.98,fixation,1,583,,,PerfumeSession
1626194888.02,stimulus,2,90,,,NoAct
1626194888.48,stimulus,1,584,,,PerfumeSession
1626194888.52,fixation,2,90,,,NoAct
1626194888.98,fixation,1,584,,,PerfumeSession
1626194890.02,stimulus,2,91,,,NoAct
1626194890.48,stimulus,1,585,,,PerfumeSession
1626194890.52,fixation,2,91,,,NoAct
1626194890.98,fixation,1,585,,,PerfumeSession
1626194892.02,stimulus,2,92,,,NoAct
1626194892.48,stimulus,1,586,,,PerfumeSession
1626194892.52,fixation,2,92,,,NoAct
1626194892.98,fixation,1,586,,,PerfumeSession
1626194894.02,stimulus,2,93,,,NoAct
1626194894.48,stimulus,1,587,,,PerfumeSession
1626194894.52,fixation,2,93,,,NoAct
1626194894.98,fixation,1,587,,,PerfumeSession
1626194896.02,stimulus,2,94,,,NoAct
1626194896.48,stimulus,1,588,,,PerfumeSession
1626194896.52,fixation,2,94,,,NoAct
1626194896.98,fixation,1,588,,,PerfumeSession
1626194898.02,stimulus,2,95,,,NoAct
1626194898.48,stimulus,1,589,,,PerfumeSession
1626194898.52,fixation,2,95,,,NoAct
1626194898.98,fixation,1,589,,,PerfumeSession
1626194900.02,stimulus,2,96,,,NoAct
1626194900.48,stimulus,1,590,,,PerfumeSession
1626194900.52,fixation,2,96,,,NoAct
1626194900.98,fixation,1,590,,,PerfumeSession
1626194902.02,stimulus,2,97,,,NoAct
1626194902.48,stimulus,1,591,,,PerfumeSession
1626194902.52,fixation,2,97,,,NoAct
1626194902.98,fixation,1,591,,,PerfumeSession
1626194904.02,stimulus,2,98,,,NoAct
1626194904.48,stimulus,1,592,,,PerfumeSession
1626194904.52,fixation,2,98,,,NoAct
1626194904.98,fixation,1,592,,,PerfumeSession
1626194906.02,stimulus,2,99,,,NoAct
1626194906.48,stimulus,1,593,,,PerfumeSession
1626194906.52,fixation,2,99,,,NoAct
1626194906.98,fixation,1,593,,,PerfumeSession
1626194908.02,stimulus,2,100,,,NoAct
1626194908.48,stimulus,1,594,,,PerfumeSession
1626194908.52,fixation,2,100,,,NoAct
1626194908.98,fixation,1,594,,,PerfumeSession
1626194910.02,stimulus,2,101,,,NoAct
1626194910.48,stimulus,1,595,,,PerfumeSession
1626194910.52,fixation,2,101,,,NoAct
1626194910.98,fixation,1,595,,,PerfumeSession
1626194912.02,stimulus,2,102,,,NoAct
1626194912.48,stimulus,1,596,,,PerfumeSession
1626194912.52,fixation,2,102,,,NoAct
1626194912.98,fixation,1,596,,,PerfumeSession
1626194914.02,stimulus,2,103,,,NoAct
1626194914.48,stimulus,1,597,,,PerfumeSession
1626194914.52,fixation,2,103,,,NoAct
1626194914.98,fixation,1,597,,,PerfumeSession
1626194916.02,stimulus,2,104,,,NoAct
1626194916.48,stimulus,1,598,,,PerfumeSession
1626194916.52,fixation,2,104,,,NoAct
1626194916.98,fixation,1,598,,,PerfumeSession
1626194918.02,stimulus,2,105,,,NoAct
1626194918.48,stimulus,1,599,,,PerfumeSession
1626194918.52,fixation,2,105,,,NoAct
1626194918.98,fixation,1,599,,,PerfumeSession
1626194920.02,stimulus,2,106,,,NoAct
1626194920.48,stimulus,1,600,,,PerfumeSession
1626194920.52,fixation,2,106,,,NoAct
1626194920.98,fixation,1,600,,,PerfumeSession
1626194922.02,stimulus,2,107,,,NoAct
1626194922.48,stimulus,1,601,,,PerfumeSession
1626194922.52,fixation,2,107,,,NoAct
1626194922.98,fixation,1,601,,,PerfumeSession
1626194924.02,stimulus,2,108,,,NoAct
1626194924.48,stimulus,1,602,,,PerfumeSession
1626194924.52,fixation,2,108,,,NoAct
1626194924.98,fixation,1,602,,,PerfumeSession
1626194926.02,stimulus,2,109,,,NoAct
1626194926.48,stimulus,1,603,,,PerfumeSession
1626194926.52,fixation,2,109,,,NoAct
1626194926.98,fixation,1,603,,,PerfumeSession
1626194928.02,stimulus,2,110,,,NoAct
1626194928.48,stimulus,1,604,,,PerfumeSession
1626194928.52,fixation,2,110,,,NoAct
1626194928.98,fixation,1,604,,,PerfumeSession
1626194930.02,stimulus,2,111,,,NoAct
1626194930.48,stimulus,1,605,,,PerfumeSession
1626194930.52,fixation,2,111,,,NoAct
1626194930.98,fixation,1,605,,,PerfumeSession
1626194932.02,stimulus,2,112,,,NoAct
1626194932.48,stimulus,1,606,,,PerfumeSession
1626194932.52,fixation,2,112,,,NoAct
1626194932.98,fixation,1,606,,,PerfumeSession
1626194934.02,stimulus,2,113,,,NoAct
1626194934.48,stimulus,1,607,,,PerfumeSession
1626194934.52,fixation,2,113,,,NoAct
1626194934.98,fixation,1,607,,,PerfumeSession
1626194936.02,stimulus,2,114,,,NoAct
1626194936.48,stimulus,1,608,,,PerfumeSession
1626194936.52,fixation,2,114,,,NoAct
1626194936.98,fixation,1,608,,,PerfumeSession
1626194938.02,stimulus,2,115,,,NoAct
1626194938.48,stimulus,1,609,,,PerfumeSession
1626194938.52,fixation,2,115,,,NoAct
1626194938.98,fixation,1,609,,,PerfumeSession
1626194940.02,stimulus,2,116,,,NoAct
1626194940.48,stimulus,1,610,,,PerfumeSession
1626194940.52,fixation,2,116,,,NoAct
1626194940.98,fixation,1,610,,,PerfumeSession
1626194942.02,stimulus,2,117,,,NoAct
1626194942.48,stimulus,1,611,,,PerfumeSession
1626194942.52,fixation,2,117,,,NoAct
1626194942.98,fixation,1,611,,,PerfumeSession
1626194944.02,stimulus,2,118,,,NoAct
1626194944.48,stimulus,1,612,,,PerfumeSession
1626194944.52,fixation,2,118,,,NoAct
1626194944.98,fixation,1,612,,,PerfumeSession
1626194946.02,stimulus,2,119,,,NoAct
1626194946.48,stimulus,1,613,,,PerfumeSession
1626194946.52,fixation,2,119,,,NoAct
1626194946.98,fixation,1,613,,,PerfumeSession
1626194948.02,stimulus,2,120,,,NoAct
1626194948.48,stimulus,1,614,,,PerfumeSession
1626194948.52,fixation,2,120,,,NoAct
1626194948.98,fixation,1,614,,,PerfumeSession
1626194950.02,stimulus,2,121,,,NoAct
1626194950.48,stimulus,1,615,,,PerfumeSession
1626194950.52,fixation,2,121,,,NoAct
1626194950.98,fixation,1,615,,,PerfumeSession
1626194952.02,stimulus,2,122,,,NoAct
1626194952.48,stimulus,1,616,,,PerfumeSession
1626194952.52,fixation,2,122,,,NoAct
1626194952.98,fixation,1,616,,,PerfumeSession
1626194954.02,stimulus,2,123,,,NoAct
1626194954.48,stimulus,1,617,,,PerfumeSession
1626194954.52,fixation,2,123,,,NoAct
1626194954.98,fixation,1,617,,,PerfumeSession
1626194956.02,stimulus,2,124,,,NoAct
1626194956.48,stimulus,1,618,,,PerfumeSession
1626194956.52,fixation,2,124,,,NoAct
1626194956.98,fixation,1,618,,,PerfumeSession
1626194958.02,stimulus,2,125,,,NoAct
1626194958.48,stimulus,1,619,,,PerfumeSession
1626194958.52,fixation,2,125,,,NoAct
1626194958.98,fixation,1,619,,,PerfumeSession
1626194960.02,stimulus,2,126,,,NoAct
1626194960.48,stimulus,1,620,,,PerfumeSession
1626194960.52,fixation,2,126,,,NoAct
1626194960.98,fixation,1,620,,,PerfumeSession
1626194962.02,stimulus,2,127,,,NoAct
1626194962.48,stimulus,1,621,,,PerfumeSession
1626194962.52,fixation,2,127,,,NoAct
1626194962.98,fixation,1,621,,,PerfumeSession
1626194964.02,stimulus,2,128,,,NoAct
1626194964.48,stimulus,1,622,,,PerfumeSession
1626194964.52,fixation,2,128,,,NoAct
1626194964.98,fixation,1,622,,,PerfumeSession
1626194966.02,stimulus,2,129,,,NoAct
1626194966.48,stimulus,1,623,,,PerfumeSession
1626194966.52,fixation,2,129,,,NoAct
1626194966.98,fixation,1,623,,,PerfumeSession
1626194968.02,stimulus,2,130,,,NoAct
1626194968.48,stimulus,1,624,,,PerfumeSession
1626194968.52,fixation,2,130,,,NoAct
1626194968.98,fixation,1,624,,,PerfumeSession
1626194970.02,stimulus,2,131,,,NoAct
1626194970.48,stimulus,1,625,,,PerfumeSession
1626194970.52,fixation,2,131,,,NoAct
1626194970.98,fixation,1,625,,,PerfumeSession
1626194972.02,stimulus,2,132,,,NoAct
1626194972.48,stimulus,1,626,,,PerfumeSession
1626194972.52,fixation,2,132,,,NoAct
1626194972.98,fixation,1,626,,,PerfumeSession
1626194974.02,stimulus,2,133,,,NoAct
1626194974.48,stimulus,1,627,,,PerfumeSession
1626194974.52,fixation,2,133,,,NoAct
1626194974.98,fixation,1,627,,,PerfumeSession
1626194976.02,stimulus,2,134,,,NoAct
1626194976.48,stimulus,1,628,,,PerfumeSession
1626194976.52,fixation,2,134,,,NoAct
1626194976.98,fixation,1,628,,,PerfumeSession
1626194978.02,stimulus,2,135,,,NoAct
1626194978.48,stimulus,1,629,,,PerfumeSession
1626194978.52,fixation,2,135,,,NoAct
1626194978.98,fixation,1,629,,,PerfumeSession
1626194980.02,stimulus,2,136,,,NoAct
1626194980.48,stimulus,1,630,,,PerfumeSession
1626194980.52,fixation,2,136,,,NoAct
1626194980.98,fixation,1,630,,,PerfumeSession
1626194982.02,stimulus,2,137,,,NoAct
1626194982.48,stimulus,1,631,,,PerfumeSession
1626194982.52,fixation,2,137,,,NoAct
1626194982.98,fixation,1,631,,,PerfumeSession
1626194984.02,stimulus,2,138,,,NoAct
1626194984.48,stimulus,1,632,,,PerfumeSession
1626194984.52,fixation,2,138,,,NoAct
1626194984.98,fixation,1,632,,,PerfumeSession
1626194986.02,stimulus,2,139,,,NoAct
1626194986.48,stimulus,1,633,,,PerfumeSession
1626194986.52,fixation,2,139,,,NoAct
1626194986.98,fixation,1,633,,,PerfumeSession
1626194988.02,stimulus,2,140,,,NoAct
1626194988.48,stimulus,1,634,,,PerfumeSession
1626194988.52,fixation,2,140,,,NoAct
1626194988.98,fixation,1,634,,,PerfumeSession
1626194990.02,stimulus,2,141,,,NoAct
1626194990.48,stimulus,1,635,,,PerfumeSession
1626194990.52,fixation,2,141,,,NoAct
1626194990.98,fixation,1,635,,,PerfumeSession
1626194992.02,stimulus,2,142,,,NoAct
1626194992.48,stimulus,1,636,,,PerfumeSession
1626194992.52,fixation,2,142,,,NoAct
1626194992.98,fixation,1,636,,,PerfumeSession
1626194994.02,stimulus,2,143,,,NoAct
1626194994.48,stimulus,1,637,,,PerfumeSession
1626194994.52,fixation,2,143,,,NoAct
1626194994.98,fixation,1,637,,,PerfumeSession
1626194996.02,stimulus,2,144,,,NoAct
1626194996.48,stimulus,1,638,,,PerfumeSession
1626194996.52,fixation,2,144,,,NoAct
1626194996.98,fixation,1,638,,,PerfumeSession
1626194998.02,stimulus,2,145,,,NoAct
1626194998.48,stimulus,1,639,,,PerfumeSession
1626194998.52,fixation,2,145,,,NoAct
1626194998.98,fixation,1,639,,,PerfumeSession
1626195000.02,stimulus,2,146,,,NoAct
1626195000.48,stimulus,1,640,,,PerfumeSession
1626195000.52,fixation,2,146,,,NoAct
1626195000.98,fixation,1,640,,,PerfumeSession
1626195002.02,stimulus,2,147,,,NoAct
1626195002.48,stimulus,1,641,,,PerfumeSession
1626195002.52,fixation,2,147,,,NoAct
1626195002.98,fixation,1,641,,,PerfumeSession
1626195004.02,stimulus,2,148,,,NoAct
1626195004.48,stimulus,1,642,,,PerfumeSession
1626195004.52,fixation,2,148,,,NoAct
1626195004.98,fixation,1,642,,,PerfumeSession
1626195006.02,stimulus,2,149,,,NoAct
1626195006.48,stimulus,1,643,,,PerfumeSession
1626195006.52,fixation,2,149,,,NoAct
1626195006.98,fixation,1,643,,,PerfumeSession
1626195008.02,stimulus,2,150,,,NoAct
1626195008.48,stimulus,1,644,,,PerfumeSession
1626195008.52,fixation,2,150,,,NoAct
1626195008.98,fixation,1,644,,,PerfumeSession
1626195010.02,stimulus,2,151,,,NoAct
1626195010.48,stimulus,1,645,,,PerfumeSession
1626195010.52,fixation,2,151,,,NoAct
1626195010.98,fixation,1,645,,,PerfumeSession
1626195012.02,stimulus,2,152,,,NoAct
1626195012.48,stimulus,1,646,,,PerfumeSession
1626195012.52,fixation,2,152,,,NoAct
1626195012.98,fixation,1,646,,,PerfumeSession
1626195014.02,stimulus,2,153,,,NoAct
1626195014.48,stimulus,1,647,,,PerfumeSession
1626195014.52,fixation,2,153,,,NoAct
1626195014.98,fixation,1,647,,,PerfumeSession
1626195016.02,stimulus,2,154,,,NoAct
1626195016.48,stimulus,1,648,,,PerfumeSession
1626195016.52,fixation,2,154,,,NoAct
1626195016.98,fixation,1,648,,,PerfumeSession
1626195018.02,stimulus,2,155,,,NoAct
1626195018.48,stimulus,1,649,,,PerfumeSession
1626195018.52,fixation,2,155,,,NoAct
1626195018.98,fixation,1,649,,,PerfumeSession
1626195020.02,stimulus,2,156,,,NoAct
1626195020.48,stimulus,1,650,,,PerfumeSession
1626195020.52,fixation,2,156,,,NoAct
1626195020.98,fixation,1,650,,,PerfumeSession
1626195022.02,stimulus,2,157,,,NoAct
1626195022.48,stimulus,1,651,,,PerfumeSession
1626195022.52,fixation,2,157,,,NoAct
1626195022.98,fixation,1,651,,,PerfumeSession
1626195024.02,stimulus,2,158,,,NoAct
1626195024.48,stimulus,1,652,,,PerfumeSession
1626195024.52,fixation,2,158,,,NoAct
1626195024.98,fixation,1,652,,,PerfumeSession
1626195026.02,stimulus,2,159,,,NoAct
1626195026.48,stimulus,1,653,,,PerfumeSession
1626195026.52,fixation,2,159,,,NoAct
1626195026.98,fixation,1,653,,,PerfumeSession
1626195028.02,stimulus,2,160,,,NoAct
1626195028.48,stimulus,1,654,,,PerfumeSession
1626195028.52,fixation,2,160,,,NoAct
1626195028.98,fixation,1,654,,,PerfumeSession
1626195030.02,stimulus,2,161,,,NoAct
1626195030.48,stimulus,1,655,,,PerfumeSession
1626195030.52,fixation,2,161,,,NoAct
1626195030.98,fixation,1,655,,,PerfumeSession
1626195032.02,stimulus,2,162,,,NoAct
1626195032.48,stimulus,1,656,,,PerfumeSession
1626195032.52,fixation,2,162,,,NoAct
1626195032.98,fixation,1,656,,,PerfumeSession
1626195034.02,stimulus,2,163,,,NoAct
1626195034.48,stimulus,1,657,,,PerfumeSession
1626195034.52,fixation,2,163,,,NoAct
1626195034.98,fixation,1,657,,,PerfumeSession
1626195036.02,stimulus,2,164,,,NoAct
1626195036.48,stimulus,1,658,,,PerfumeSession
1626195036.52,fixation,2,164,,,NoAct
1626195036.98,fixation,1,658,,,PerfumeSession
1626195038.02,stimulus,2,165,,,NoAct
1626195038.48,stimulus,1,659,,,PerfumeSession
1626195038.52,fixation,2,165,,,NoAct
1626195038.98,fixation,1,659,,,PerfumeSession
1626195040.02,stimulus,2,166,,,NoAct
1626195040.48,stimulus,1,660,,,PerfumeSession
1626195040.52,fixation,2,166,,,NoAct
1626195040.98,fixation,1,660,,,PerfumeSession
1626195042.02,stimulus,2,167,,,NoAct
1626195042.48,stimulus,1,661,,,PerfumeSession
1626195042.52,fixation,2,167,,,NoAct
1626195042.98,fixation,1,661,,,PerfumeSession
1626195044.02,stimulus,2,168,,,NoAct
1626195044.48,stimulus,1,662,,,PerfumeSession
1626195044.52,fixation,2,168,,,NoAct
1626195044.98,fixation,1,662,,,PerfumeSession
1626195046.02,stimulus,2,169,,,NoAct
1626195046.48,stimulus,1,663,,,PerfumeSession
1626195046.52,fixation,2,169,,,NoAct
1626195046.98,fixation,1,663,,,PerfumeSession
1626195048.02,stimulus,2,170,,,NoAct
1626195048.48,stimulus,1,664,,,PerfumeSession
1626195048.52,fixation,2,170,,,NoAct
1626195048.98,fixation,1,664,,,PerfumeSession
1626195050.02,stimulus,2,171,,,NoAct
1626195050.48,stimulus,1,665,,,PerfumeSession
1626195050.52,fixation,2,171,,,NoAct
1626195050.98,fixation,1,665,,,PerfumeSession
1626195052.02,stimulus,2,172,,,NoAct
1626195052.48,stimulus,1,666,,,PerfumeSession
1626195052.52,fixation,2,172,,,NoAct
1626195052.98,fixation,1,666,,,PerfumeSession
1626195054.02,stimulus,2,173,,,NoAct
1626195054.48,stimulus,1,667,,,PerfumeSession
1626195054.52,fixation,2,173,,,NoAct
1626195054.98,fixation,1,667,,,PerfumeSession
1626195056.02,stimulus,2,174,,,NoAct
1626195056.48,stimulus,1,668,,,PerfumeSession
1626195056.52,fixation,2,174,,,NoAct
1626195056.98,fixation,1,668,,,PerfumeSession
1626195058.02,stimulus,2,175,,,NoAct
1626195058.48,stimulus,1,669,,,PerfumeSession
1626195058.52,fixation,2,175,,,NoAct
1626195058.98,fixation,1,669,,,PerfumeSession
1626195060.02,stimulus,2,176,,,NoAct
1626195060.48,stimulus,1,670,,,PerfumeSession
1626195060.52,fixation,2,176,,,NoAct
1626195060.98,fixation,1,670,,,PerfumeSession
1626195062.02,stimulus,2,177,,,NoAct
1626195062.48,stimulus,1,671,,,PerfumeSession
1626195062.52,fixation,2,177,,,NoAct
1626195062.98,fixation,1,671,,,PerfumeSession
1626195064.02,stimulus,2,178,,,NoAct
1626195064.48,stimulus,1,672,,,PerfumeSession
1626195064.52,fixation,2,178,,,NoAct
1626195064.98,fixation,1,672,,,PerfumeSession
1626195066.02,stimulus,2,179,,,NoAct
1626195066.48,stimulus,1,673,,,PerfumeSession
1626195066.52,fixation,2,179,,,NoAct
1626195066.98,fixation,1,673,,,PerfumeSession
1626195068.02,stimulus,2,180,,,NoAct
1626195068.48,stimulus,1,674,,,PerfumeSession
1626195068.52,fixation,2,180,,,NoAct
1626195068.98,fixation,1,674,,,PerfumeSession
1626195070.02,stimulus,2,181,,,NoAct
1626195070.48,stimulus,1,675,,,PerfumeSession
1626195070.52,fixation,2,181,,,NoAct
1626195070.98,fixation,1,675,,,PerfumeSession
1626195072.02,stimulus,2,182,,,NoAct
1626195072.48,stimulus,1,676,,,PerfumeSession
1626195072.52,fixation,2,182,,,NoAct
1626195072.98,fixation,1,676,,,PerfumeSession
1626195074.02,stimulus,2,183,,,NoAct
1626195074.48,stimulus,1,677,,,PerfumeSession
1626195074.52,fixation,2,183,,,NoAct
1626195074.98,fixation,1,677,,,PerfumeSession
1626195076.02,stimulus,2,184,,,NoAct
1626195076.48,stimulus,1,678,,,PerfumeSession
1626195076.52,fixation,2,184,,,NoAct
1626195076.98,fixation,1,678,,,PerfumeSession
1626195078.02,stimulus,2,185,,,NoAct
1626195078.48,stimulus,1,679,,,PerfumeSession
1626195078.52,fixation,2,185,,,NoAct
1626195078.98,fixation,1,679,,,PerfumeSession
1626195080.02,stimulus,2,186,,,NoAct
1626195080.48,stimulus,1,680,,,PerfumeSession
1626195080.52,fixation,2,186,,,NoAct
1626195080.98,fixation,1,680,,,PerfumeSession
1626195082.02,stimulus,2,187,,,NoAct
1626195082.48,stimulus,1,681,,,PerfumeSession
1626195082.52,fixation,2,187,,,NoAct
1626195082.98,fixation,1,681,,,PerfumeSession
1626195084.02,stimulus,2,188,,,NoAct
1626195084.48,stimulus,1,682,,,PerfumeSession
1626195084.52,fixation,2,188,,,NoAct
1626195084.98,fixation,1,682,,,PerfumeSession
1626195086.02,stimulus,2,189,,,NoAct
1626195086.48,stimulus,1,683,,,PerfumeSession
1626195086.52,fixation,2,189,,,NoAct
1626195086.98,fixation,1,683,,,PerfumeSession
1626195088.02,stimulus,2,190,,,NoAct
1626195088.48,stimulus,1,684,,,PerfumeSession
1626195088.52,fixation,2,190,,,NoAct
1626195088.98,fixation,1,684,,,PerfumeSession
1626195090.02,stimulus,2,191,,,NoAct
1626195090.48,stimulus,1,685,,,PerfumeSession
1626195090.52,fixation,2,191,,,NoAct
1626195090.98,fixation,1,685,,,PerfumeSession
1626195092.02,stimulus,2,192,,,NoAct
1626195092.48,stimulus,1,686,,,PerfumeSession
1626195092.52,fixation,2,192,,,NoAct
1626195092.98,fixation,1,686,,,PerfumeSession
1626195094.02,stimulus,2,193,,,NoAct
1626195094.48,stimulus,1,687,,,PerfumeSession
1626195094.52,fixation,2,193,,,NoAct
1626195094.98,fixation,1,687,,,PerfumeSession
1626195096.02,stimulus,2,194,,,NoAct
1626195096.48,stimulus,1,688,,,PerfumeSession
1626195096.52,fixation,2,194,,,NoAct
1626195096.98,fixation,1,688,,,PerfumeSession
1626195098.02,stimulus,2,195,,,NoAct
1626195098.09,stimulus,3,1,,,PracticeSession
1626195098.48,stimulus,1,689,,,PerfumeSession
1626195098.52,fixation,2,195,,,NoAct
1626195098.59,fixation,3,1,,,PracticeSession
1626195098.98,fixation,1,689,,,PerfumeSession
1626195100.02,stimulus,2,196,,,NoAct
1626195100.09,stimulus,3,2,,,PracticeSession
1626195100.48,stimulus,1,690,,,PerfumeSession
1626195100.52,fixation,2,196,,,NoAct
1626195100.59,fixation,3,2,,,PracticeSession
1626195100.98,fixation,1,690,,,PerfumeSession
1626195102.02,stimulus,2,197,,,NoAct
1626195102.09,stimulus,3,3,,,PracticeSession
1626195102.48,stimulus,1,691,,,PerfumeSession
1626195102.52,fixation,2,197,,,NoAct
1626195102.59,fixation,3,3,,,PracticeSession
1626195102.98,fixation,1,691,,,PerfumeSession
1626195104.02,stimulus,2,198,,,NoAct
1626195104.09,stimulus,3,4,,,PracticeSession
1626195104.48,stimulus,1,692,,,PerfumeSession
1626195104.52,fixation,2,198,,,NoAct
1626195104.59,fixation,3,4,,,PracticeSession
1626195104.98,fixation,1,692,,,PerfumeSession
1626195106.02,stimulus,2,199,,,NoAct
1626195106.09,stimulus,3,5,,,PracticeSession
1626195106.48,stimulus,1,693,,,PerfumeSession
1626195106.52,fixation,2,199,,,NoAct
1626195106.59,fixation,3,5,,,PracticeSession
1626195106.98,fixation,1,693,,,PerfumeSession
1626195108.02,stimulus,2,200,,,NoAct
1626195108.09,stimulus,3,6,,,PracticeSession
1626195108.48,stimulus,1,694,,,PerfumeSession
1626195108.52,fixation,2,200,,,NoAct
1626195108.59,fixation,3,6,,,PracticeSession
1626195108.98,fixation,1,694,,,PerfumeSession
1626195110.02,stimulus,2,201,,,NoAct
1626195110.09,stimulus,3,7,,,PracticeSession
1626195110.48,stimulus,1,695,,,PerfumeSession
1626195110.52,fixation,2,201,,,NoAct
1626195110.59,fixation,3,7,,,PracticeSession
1626195110.98,fixation,1,695,,,PerfumeSession
1626195112.02,stimulus,2,202,,,NoAct
1626195112.09,stimulus,3,8,,,PracticeSession
1626195112.48,stimulus,1,696,,,PerfumeSession
1626195112.52,fixation,2,202,,,NoAct
1626195112.59,fixation,3,8,,,PracticeSession
1626195112.98,fixation,1,696,,,PerfumeSession
1626195114.02,stimulus,2,203,,,NoAct
1626195114.09,stimulus,3,9,,,PracticeSession
1626195114.48,stimulus,1,697,,,PerfumeSession
1626195114.52,fixation,2,203,,,NoAct
1626195114.59,fixation,3,9,,,PracticeSession
1626195114.98,fixation,1,697,,,PerfumeSession
1626195116.02,stimulus,2,204,,,NoAct
1626195116.09,stimulus,3,10,,,PracticeSession
1626195116.48,stimulus,1,698,,,PerfumeSession
1626195116.52,fixation,2,204,,,NoAct
1626195116.59,fixation,3,10,,,PracticeSession
1626195116.98,fixation,1,698,,,PerfumeSession
1626195118.02,stimulus,2,205,,,NoAct
1626195118.09,stimulus,3,11,,,PracticeSession
1626195118.48,stimulus,1,699,,,PerfumeSession
1626195118.52,fixation,2,205,,,NoAct
1626195118.59,fixation,3,11,,,PracticeSession
1626195118.98,fixation,1,699,,,PerfumeSession
1626195120.02,stimulus,2,206,,,NoAct
1626195120.09,stimulus,3,12,,,PracticeSession
1626195120.48,stimulus,1,700,,,PerfumeSession
1626195120.52,fixation,2,206,,,NoAct
1626195120.59,fixation,3,12,,,PracticeSession
1626195120.98,fixation,1,700,,,PerfumeSession
1626195122.02,stimulus,2,207,,,NoAct
1626195122.09,stimulus,3,13,,,PracticeSession
1626195122.48,stimulus,1,701,,,PerfumeSession
1626195122.52,fixation,2,207,,,NoAct
1626195122.59,fixation,3,13,,,PracticeSession
1626195122.98,fixation,1,701,,,PerfumeSession
1626195124.02,stimulus,2,208,,,NoAct
1626195124.09,stimulus,3,14,,,PracticeSession
1626195124.48,stimulus,1,702,,,PerfumeSession
1626195124.52,fixation,2,208,,,NoAct
1626195124.59,fixation,3,14,,,PracticeSession
1626195124.98,fixation,1,702,,,PerfumeSession
1626195126.02,stimulus,2,209,,,NoAct
1626195126.09,stimulus,3,15,,,PracticeSession
1626195126.48,stimulus,1,703,,,PerfumeSession
1626195126.52,fixation,2,209,,,NoAct
1626195126.59,fixation,3,15,,,PracticeSession
1626195126.98,fixation,1,703,,,PerfumeSession
1626195128.02,stimulus,2,210,,,NoAct
1626195128.09,stimulus,3,16,,,PracticeSession
1626195128.48,stimulus,1,704,,,PerfumeSession
1626195128.52,fixation,2,210,,,NoAct
1626195128.59,fixation,3,16,,,PracticeSession
1626195128.98,fixation,1,704,,,PerfumeSession
1626195130.02,stimulus,2,211,,,NoAct
1626195130.09,stimulus,3,17,,,PracticeSession
1626195130.48,stimulus,1,705,,,PerfumeSession
1626195130.52,fixation,2,211,,,NoAct
1626195130.59,fixation,3,17,,,PracticeSession
1626195130.98,fixation,1,705,,,PerfumeSession
1626195132.02,stimulus,2,212,,,NoAct
1626195132.09,stimulus,3,18,,,PracticeSession
1626195132.48,stimulus,1,706,,,PerfumeSession
1626195132.52,fixation,2,212,,,NoAct
1626195132.59,fixation,3,18,,,PracticeSession
1626195132.98,fixation,1,706,,,PerfumeSession
1626195134.02,stimulus,2,213,,,NoAct
1626195134.09,stimulus,3,19,,,PracticeSession
1626195134.48,stimulus,1,707,,,PerfumeSession
1626195134.52,fixation,2,213,,,NoAct
1626195134.59,fixation,3,19,,,PracticeSession
1626195134.98,fixation,1,707,,,PerfumeSession
1626195136.02,stimulus,2,214,,,NoAct
1626195136.09,stimulus,3,20,,,PracticeSession
1626195136.48,stimulus,1,708,,,PerfumeSession
1626195136.52,fixation,2,214,,,NoAct
1626195136.59,fixation,3,20,,,PracticeSession
1626195136.98,fixation,1,708,,,PerfumeSession
1626195138.02,stimulus,2,215,,,NoAct
1626195138.09,stimulus,3,21,,,PracticeSession
1626195138.48,stimulus,1,709,,,PerfumeSession
1626195138.52,fixation,2,215,,,NoAct
1626195138.59,fixation,3,21,,,PracticeSession
1626195138.98,fixation,1,709,,,PerfumeSession
1626195140.02,stimulus,2,216,,,NoAct
1626195140.09,stimulus,3,22,,,PracticeSession
1626195140.48,stimulus,1,710,,,PerfumeSession
1626195140.52,fixation,2,216,,,NoAct
1626195140.59,fixation,3,22,,,PracticeSession
1626195140.98,fixation,1,710,,,PerfumeSession
1626195142.02,stimulus,2,217,,,NoAct
1626195142.09,stimulus,3,23,,,PracticeSession
1626195142.48,stimulus,1,711,,,PerfumeSession
1626195142.52,fixation,2,217,,,NoAct
1626195142.59,fixation,3,23,,,PracticeSession
1626195142.98,fixation,1,711,,,PerfumeSession
1626195144.02,stimulus,2,218,,,NoAct
1626195144.09,stimulus,3,24,,,PracticeSession
1626195144.48,stimulus,1,712,,,PerfumeSession
1626195144.52,fixation,2,218,,,NoAct
1626195144.59,fixation,3,24,,,PracticeSession
1626195144.98,fixation,1,712,,,PerfumeSession
1626195146.02,stimulus,2,219,,,NoAct
1626195146.09,stimulus,3,25,,,PracticeSession
1626195146.48,stimulus,1,713,,,PerfumeSession
1626195146.52,fixation,2,219,,,NoAct
1626195146.59,fixation,3,25,,,PracticeSession
1626195146.98,fixation,1,713,,,PerfumeSession
1626195148.02,stimulus,2,220,,,NoAct
1626195148.09,stimulus,3,26,,,PracticeSession
1626195148.48,stimulus,1,714,,,PerfumeSession
1626195148.52,fixation,2,220,,,NoAct
1626195148.59,fixation,3,26,,,PracticeSession
1626195148.98,fixation,1,714,,,PerfumeSession
1626195150.02,stimulus,2,221,,,NoAct
1626195150.09,stimulus,3,27,,,PracticeSession
1626195150.48,stimulus,1,715,,,PerfumeSession
1626195150.52,fixation,2,221,,,NoAct
1626195150.59,fixation,3,27,,,PracticeSession
1626195150.98,fixation,1,715,,,PerfumeSession
1626195152.02,stimulus,2,222,,,NoAct
1626195152.09,stimulus,3,28,,,PracticeSession
1626195152.48,stimulus,1,716,,,PerfumeSession
1626195152.52,fixation,2,222,,,NoAct
1626195152.59,fixation,3,28,,,PracticeSession
1626195152.98,fixation,1,716,,,PerfumeSession
1626195154.02,stimulus,2,223,,,NoAct
1626195154.09,stimulus,3,29,,,PracticeSession
1626195154.48,stimulus,1,717,,,PerfumeSession
1626195154.52,fixation,2,223,,,NoAct
1626195154.59,fixation,3,29,,,PracticeSession
1626195154.98,fixation,1,717,,,PerfumeSession
1626195156.02,stimulus,2,224,,,NoAct
1626195156.09,stimulus,3,30,,,PracticeSession
1626195156.48,stimulus,1,718,,,PerfumeSession
1626195156.52,fixation,2,224,,,NoAct
1626195156.59,fixation,3,30,,,PracticeSession
1626195156.98,fixation,1,718,,,PerfumeSession
1626195158.02,stimulus,2,225,,,NoAct
1626195158.09,stimulus,3,31,,,PracticeSession
1626195158.48,stimulus,1,719,,,PerfumeSession
1626195158.52,fixation,2,225,,,NoAct
1626195158.59,fixation,3,31,,,PracticeSession
1626195158.98,fixation,1,719,,,PerfumeSession
1626195160.02,stimulus,2,226,,,NoAct
1626195160.09,stimulus,3,32,,,PracticeSession
1626195160.48,stimulus,1,720,,,PerfumeSession
1626195160.52,fixation,2,226,,,NoAct
1626195160.59,fixation,3,32,,,PracticeSession
1626195160.98,fixation,1,720,,,PerfumeSession
1626195162.02,stimulus,2,227,,,NoAct
1626195162.09,stimulus,3,33,,,PracticeSession
1626195162.48,stimulus,1,721,,,PerfumeSession
1626195162.52,fixation,2,227,,,NoAct
1626195162.59,fixation,3,33,,,PracticeSession
1626195162.98,fixation,1,721,,,PerfumeSession
1626195164.02,stimulus,2,228,,,NoAct
1626195164.09,stimulus,3,34,,,PracticeSession
1626195164.48,stimulus,1,722,,,PerfumeSession
1626195164.52,fixation,2,228,,,NoAct
1626195164.59,fixation,3,34,,,PracticeSession
1626195164.98,fixation,1,722,,,PerfumeSession
1626195166.02,stimulus,2,229,,,NoAct
1626195166.09,stimulus,3,35,,,PracticeSession
1626195166.48,stimulus,1,723,,,PerfumeSession
1626195166.52,fixation,2,229,,,NoAct
1626195166.59,fixation,3,35,,,PracticeSession
1626195166.98,fixation,1,723,,,PerfumeSession
1626195168.02,stimulus,2,230,,,NoAct
1626195168.09,stimulus,3,36,,,PracticeSession
1626195168.48,stimulus,1,724,,,PerfumeSession
1626195168.52,fixation,2,230,,,NoAct
1626195168.59,fixation,3,36,,,PracticeSession
1626195168.98,fixation,1,724,,,PerfumeSession
1626195170.02,stimulus,2,231,,,NoAct
1626195170.09,stimulus,3,37,,,PracticeSession
1626195170.48,stimulus,1,725,,,PerfumeSession
1626195170.52,fixation,2,231,,,NoAct
1626195170.59,fixation,3,37,,,PracticeSession
1626195170.98,fixation,1,725,,,PerfumeSession
1626195172.02,stimulus,2,232,,,NoAct
1626195172.09,stimulus,3,38,,,PracticeSession
1626195172.48,stimulus,1,726,,,PerfumeSession
1626195172.52,fixation,2,232,,,NoAct
1626195172.59,fixation,3,38,,,PracticeSession
1626195172.98,fixation,1,726,,,PerfumeSession
1626195174.02,stimulus,2,233,,,NoAct
1626195174.09,stimulus,3,39,,,PracticeSession
1626195174.48,stimulus,1,727,,,PerfumeSession
1626195174.52,fixation,2,233,,,NoAct
1626195174.59,fixation,3,39,,,PracticeSession
1626195174.98,fixation,1,727,,,PerfumeSession
1626195176.02,stimulus,2,234,,,NoAct
1626195176.09,stimulus,3,40,,,PracticeSession
1626195176.48,stimulus,1,728,,,PerfumeSession
1626195176.52,fixation,2,234,,,NoAct
1626195176.59,fixation,3,40,,,PracticeSession
1626195176.98,fixation,1,728,,,PerfumeSession
1626195178.02,stimulus,2,235,,,NoAct
1626195178.09,stimulus,3,41,,,PracticeSession
1626195178.48,stimulus,1,729,,,PerfumeSession
1626195178.52,fixation,2,235,,,NoAct
1626195178.59,fixation,3,41,,,PracticeSession
1626195178.98,fixation,1,729,,,PerfumeSession
1626195180.02,stimulus,2,236,,,NoAct
1626195180.09,stimulus,3,42,,,PracticeSession
1626195180.48,stimulus,1,730,,,PerfumeSession
1626195180.52,fixation,2,236,,,NoAct
1626195180.59,fixation,3,42,,,PracticeSession
1626195180.98,fixation,1,730,,,PerfumeSession
1626195182.02,stimulus,2,237,,,NoAct
1626195182.09,stimulus,3,43,,,PracticeSession
1626195182.48,stimulus,1,731,,,PerfumeSession
1626195182.52,fixation,2,237,,,NoAct
1626195182.59,fixation,3,43,,,PracticeSession
1626195182.98,fixation,1,731,,,PerfumeSession
1626195184.02,stimulus,2,238,,,NoAct
1626195184.09,stimulus,3,44,,,PracticeSession
1626195184.48,stimulus,1,732,,,PerfumeSession
1626195184.52,fixation,2,238,,,NoAct
1626195184.59,fixation,3,44,,,PracticeSession
1626195184.98,fixation,1,732,,,PerfumeSession
1626195186.02,stimulus,2,239,,,NoAct
1626195186.09,stimulus,3,45,,,NoAct
1626195186.48,stimulus,1,733,,,PerfumeSession
1626195186.52,fixation,2,239,,,NoAct
1626195186.59,fixation,3,45,,,NoAct
1626195186.98,fixation,1,733,,,PerfumeSession
1626195188.02,stimulus,2,240,,,NoAct
1626195188.09,stimulus,3,46,,,NoAct
1626195188.48,stimulus,1,734,,,PerfumeSession
1626195188.52,fixation,2,240,,,NoAct
1626195188.59,fixation,3,46,,,NoAct
1626195188.98,fixation,1,734,,,PerfumeSession
1626195190.02,stimulus,2,241,,,NoAct
1626195190.09,stimulus,3,47,,,NoAct
1626195190.48,stimulus,1,735,,,PerfumeSession
1626195190.52,fixation,2,241,,,NoAct
1626195190.59,fixation,3,47,,,NoAct
1626195190.98,fixation,1,735,,,PerfumeSession
1626195192.02,stimulus,2,242,,,NoAct
1626195192.09,stimulus,3,48,,,NoAct
1626195192.48,stimulus,1,736,,,PerfumeSession
1626195192.52,fixation,2,242,,,NoAct
1626195192.59,fixation,3,48,,,NoAct
1626195192.98,fixation,1,736,,,PerfumeSession
1626195194.02,stimulus,2,243,,,NoAct
1626195194.09,stimulus,3,49,,,NoAct
1626195194.48,stimulus,1,737,,,PerfumeSession
1626195194.52,fixation,2,243,,,NoAct
1626195194.59,fixation,3,49,,,NoAct
1626195194.98,fixation,1,737,,,PerfumeSession
1626195196.02,stimulus,2,244,,,NoAct
1626195196.09,stimulus,3,50,,,NoAct
1626195196.48,stimulus,1,738,,,PerfumeSession
1626195196.52,fixation,2,244,,,NoAct
1626195196.59,fixation,3,50,,,NoAct
1626195196.98,fixation,1,738,,,PerfumeSession
1626195198.02,stimulus,2,245,,,NoAct
1626195198.09,stimulus,3,51,,,NoAct
1626195198.48,stimulus,1,739,,,PerfumeSession
1626195198.52,fixation,2,245,,,NoAct
1626195198.59,fixation,3,51,,,NoAct
1626195198.98,fixation,1,739,,,PerfumeSession
1626195200.02,stimulus,2,246,,,NoAct
1626195200.09,stimulus,3,52,,,NoAct
1626195200.48,stimulus,1,740,,,PerfumeSession
1626195200.52,fixation,2,246,,,NoAct
1626195200.59,fixation,3,52,,,NoAct
1626195200.98,fixation,1,740,,,PerfumeSession
1626195202.02,stimulus,2,247,,,NoAct
1626195202.09,stimulus,3,53,,,NoAct
1626195202.48,stimulus,1,741,,,PerfumeSession
1626195202.52,fixation,2,247,,,NoAct
1626195202.59,fixation,3,53,,,NoAct
1626195202.98,fixation,1,741,,,PerfumeSession
1626195204.02,stimulus,2,248,,,NoAct
1626195204.09,stimulus,3,54,,,NoAct
1626195204.48,stimulus,1,742,,,PerfumeSession
1626195204.52,fixation,2,248,,,NoAct
1626195204.59,fixation,3,54,,,NoAct
1626195204.98,fixation,1,742,,,PerfumeSession
1626195206.02,stimulus,2,249,,,NoAct
1626195206.09,stimulus,3,55,,,NoAct
1626195206.48,stimulus,1,743,,,PerfumeSession
1626195206.52,fixation,2,249,,,NoAct
1626195206.59,fixation,3,55,,,NoAct
1626195206.98,fixation,1,743,,,PerfumeSession
1626195208.02,stimulus,2,250,,,NoAct
1626195208.09,stimulus,3,56,,,NoAct
1626195208.48,stimulus,1,744,,,PerfumeSession
1626195208.52,fixation,2,250,,,NoAct
1626195208.59,fixation,3,56,,,NoAct
1626195208.98,fixation,1,744,,,PerfumeSession
1626195210.02,stimulus,2,251,,,NoAct
1626195210.09,stimulus,3,57,,,NoAct
1626195210.48,stimulus,1,745,,,PerfumeSession
1626195210.52,fixation,2,251,,,NoAct
1626195210.59,fixation,3,57,,,NoAct
1626195210.98,fixation,1,745,,,PerfumeSession
1626195212.02,stimulus,2,252,,,NoAct
1626195212.09,stimulus,3,58,,,NoAct
1626195212.48,stimulus,1,746,,,PerfumeSession
1626195212.52,fixation,2,252,,,NoAct
1626195212.59,fixation,3,58,,,NoAct
1626195212.98,fixation,1,746,,,PerfumeSession
1626195214.02,stimulus,2,253,,,NoAct
1626195214.09,stimulus,3,59,,,NoAct
1626195214.48,stimulus,1,747,,,PerfumeSession
1626195214.52,fixation,2,253,,,NoAct
1626195214.59,fixation,3,59,,,NoAct
1626195214.98,fixation,1,747,,,PerfumeSession
1626195216.02,stimulus,2,254,,,NoAct
1626195216.09,stimulus,3,60,,,NoAct
1626195216.48,stimulus,1,748,,,PerfumeSession
1626195216.52,fixation,2,254,,,NoAct
1626195216.59,fixation,3,60,,,NoAct
1626195216.98,fixation,1,748,,,PerfumeSession
1626195218.02,stimulus,2,255,,,NoAct
1626195218.09,stimulus,3,61,,,NoAct
1626195218.48,stimulus,1,749,,,PerfumeSession
1626195218.52,fixation,2,255,,,NoAct
1626195218.59,fixation,3,61,,,NoAct
1626195218.98,fixation,1,749,,,PerfumeSession
1626195220.02,stimulus,2,256,,,NoAct
1626195220.09,stimulus,3,62,,,NoAct
1626195220.48,stimulus,1,750,,,PerfumeSession
1626195220.52,fixation,2,256,,,NoAct
1626195220.59,fixation,3,62,,,NoAct
1626195220.98,fixation,1,750,,,PerfumeSession
1626195222.02,stimulus,2,257,,,NoAct
1626195222.09,stimulus,3,63,,,NoAct
1626195222.48,stimulus,1,751,,,CoffeeSession
1626195222.52,fixation,2,257,,,NoAct
1626195222.59,fixation,3,63,,,NoAct
1626195222.98,fixation,1,751,,,CoffeeSession
1626195224.02,stimulus,2,258,,,NoAct
1626195224.09,stimulus,3,64,,,NoAct
1626195224.48,stimulus,1,752,,,CoffeeSession
1626195224.52,fixation,2,258,,,NoAct
1626195224.59,fixation,3,64,,,NoAct
1626195224.98,fixation,1,752,,,CoffeeSession
1626195226.02,stimulus,2,259,,,NoAct
1626195226.09,stimulus,3,65,,,NoAct
1626195226.48,stimulus,1,753,,,CoffeeSession
1626195226.52,fixation,2,259,,,NoAct
1626195226.59,fixation,3,65,,,NoAct
1626195226.98,fixation,1,753,,,CoffeeSession
1626195228.02,stimulus,2,260,,,NoAct
1626195228.09,stimulus,3,66,,,NoAct
1626195228.48,stimulus,1,754,,,CoffeeSession
1626195228.52,fixation,2,260,,,NoAct
1626195228.59,fixation,3,66,,,NoAct
1626195228.98,fixation,1,754,,,CoffeeSession
1626195230.02,stimulus,2,261,,,NoAct
1626195230.09,stimulus,3,67,,,NoAct
1626195230.48,stimulus,1,755,,,CoffeeSession
1626195230.52,fixation,2,261,,,NoAct
1626195230.59,fixation,3,67,,,NoAct
1626195230.98,fixation,1,755,,,CoffeeSession
1626195232.02,stimulus,2,262,,,NoAct
1626195232.09,stimulus,3,68,,,NoAct
1626195232.48,stimulus,1,756,,,CoffeeSession
1626195232.52,fixation,2,262,,,NoAct
1626195232.59,fixation,3,68,,,NoAct
1626195232.98,fixation,1,756,,,CoffeeSession
1626195234.02,stimulus,2,263,,,NoAct
1626195234.09,stimulus,3,69,,,NoAct
1626195234.48,stimulus,1,757,,,CoffeeSession
1626195234.52,fixation,2,263,,,NoAct
1626195234.59,fixation,3,69,,,NoAct
1626195234.98,fixation,1,757,,,CoffeeSession
1626195236.02,stimulus,2,264,,,NoAct
1626195236.09,stimulus,3,70,,,NoAct
1626195236.48,stimulus,1,758,,,CoffeeSession
1626195236.52,fixation,2,264,,,NoAct
1626195236.59,fixation,3,70,,,NoAct
1626195236.98,fixation,1,758,,,CoffeeSession
1626195238.02,stimulus,2,265,,,NoAct
1626195238.09,stimulus,3,71,,,NoAct
1626195238.48,stimulus,1,759,,,CoffeeSession
1626195238.52,fixation,2,265,,,NoAct
1626195238.59,fixation,3,71,,,NoAct
1626195238.98,fixation,1,759,,,CoffeeSession
1626195240.02,stimulus,2,266,,,NoAct
1626195240.09,stimulus,3,72,,,NoAct
1626195240.48,stimulus,1,760,,,CoffeeSession
1626195240.52,fixation,2,266,,,NoAct
1626195240.59,fixation,3,72,,,NoAct
1626195240.98,fixation,1,760,,,CoffeeSession
1626195242.02,stimulus,2,267,,,NoAct
1626195242.09,stimulus,3,73,,,NoAct
1626195242.48,stimulus,1,761,,,CoffeeSession
1626195242.52,fixation,2,267,,,NoAct
1626195242.59,fixation,3,73,,,NoAct
1626195242.98,fixation,1,761,,,CoffeeSession
1626195244.02,stimulus,2,268,,,NoAct
1626195244.09,stimulus,3,74,,,NoAct
1626195244.48,stimulus,1,762,,,CoffeeSession
1626195244.52,fixation,2,268,,,NoAct
1626195244.59,fixation,3,74,,,NoAct
1626195244.98,fixation,1,762,,,CoffeeSession
1626195246.02,stimulus,2,269,,,NoAct
1626195246.09,stimulus,3,75,,,NoAct
1626195246.48,stimulus,1,763,,,CoffeeSession
1626195246.52,fixation,2,269,,,NoAct
1626195246.59,fixation,3,75,,,NoAct
1626195246.98,fixation,1,763,,,CoffeeSession
1626195248.02,stimulus,2,270,,,NoAct
1626195248.09,stimulus,3,76,,,NoAct
1626195248.48,stimulus,1,764,,,CoffeeSession
1626195248.52,fixation,2,270,,,NoAct
1626195248.59,fixation,3,76,,,NoAct
1626195248.98,fixation,1,764,,,CoffeeSession
1626195250.02,stimulus,2,271,,,NoAct
1626195250.09,stimulus,3,77,,,NoAct
1626195250.48,stimulus,1,765,,,CoffeeSession
1626195250.52,fixation,2,271,,,NoAct
1626195250.59,fixation,3,77,,,NoAct
1626195250.98,fixation,1,765,,,CoffeeSession
1626195252.02,stimulus,2,272,,,NoAct
1626195252.09,stimulus,3,78,,,NoAct
1626195252.48,stimulus,1,766,,,CoffeeSession
1626195252.52,fixation,2,272,,,NoAct
1626195252.59,fixation,3,78,,,NoAct
1626195252.98,fixation,1,766,,,CoffeeSession
1626195254.02,stimulus,2,273,,,NoAct
1626195254.09,stimulus,3,79,,,NoAct
1626195254.48,stimulus,1,767,,,CoffeeSession
1626195254.52,fixation,2,273,,,NoAct
1626195254.59,fixation,3,79,,,NoAct
1626195254.98,fixation,1,767,,,CoffeeSession
1626195256.02,stimulus,2,274,,,NoAct
1626195256.09,stimulus,3,80,,,NoAct
1626195256.48,stimulus,1,768,,,CoffeeSession
1626195256.52,fixation,2,274,,,NoAct
1626195256.59,fixation,3,80,,,NoAct
1626195256.98,fixation,1,768,,,CoffeeSession
1626195258.02,stimulus,2,275,,,NoAct
1626195258.09,stimulus,3,81,,,NoAct
1626195258.48,stimulus,1,769,,,CoffeeSession
1626195258.52,fixation,2,275,,,NoAct
1626195258.59,fixation,3,81,,,NoAct
1626195258.98,fixation,1,769,,,CoffeeSession
1626195260.02,stimulus,2,276,,,NoAct
1626195260.09,stimulus,3,82,,,NoAct
1626195260.48,stimulus,1,770,,,CoffeeSession
1626195260.52,fixation,2,276,,,NoAct
1626195260.59,fixation,3,82,,,NoAct
1626195260.98,fixation,1,770,,,CoffeeSession
1626195262.02,stimulus,2,277,,,NoAct
1626195262.09,stimulus,3,83,,,NoAct
1626195262.48,stimulus,1,771,,,CoffeeSession
1626195262.52,fixation,2,277,,,NoAct
1626195262.59,fixation,3,83,,,NoAct
1626195262.98,fixation,1,771,,,CoffeeSession
1626195264.02,stimulus,2,278,,,NoAct
1626195264.09,stimulus,3,84,,,NoAct
1626195264.48,stimulus,1,772,,,CoffeeSession
1626195264.52,fixation,2,278,,,NoAct
1626195264.59,fixation,3,84,,,NoAct
1626195264.98,fixation,1,772,,,CoffeeSession
1626195266.02,stimulus,2,279,,,NoAct
1626195266.09,stimulus,3,85,,,NoAct
1626195266.48,stimulus,1,773,,,CoffeeSession
1626195266.52,fixation,2,279,,,NoAct
1626195266.59,fixation,3,85,,,NoAct
1626195266.98,fixation,1,773,,,CoffeeSession
1626195268.02,stimulus,2,280,,,NoAct
1626195268.09,stimulus,3,86,,,NoAct
1626195268.48,stimulus,1,774,,,CoffeeSession
1626195268.52,fixation,2,280,,,NoAct
1626195268.59,fixation,3,86,,,NoAct
1626195268.98,fixation,1,774,,,CoffeeSession
1626195270.02,stimulus,2,281,,,NoAct
1626195270.09,stimulus,3,87,,,NoAct
1626195270.48,stimulus,1,775,,,CoffeeSession
1626195270.52,fixation,2,281,,,NoAct
1626195270.59,fixation,3,87,,,NoAct
1626195270.98,fixation,1,775,,,CoffeeSession
1626195272.02,stimulus,2,282,,,NoAct
1626195272.09,stimulus,3,88,,,NoAct
1626195272.48,stimulus,1,776,,,CoffeeSession
1626195272.52,fixation,2,282,,,NoAct
1626195272.59,fixation,3,88,,,NoAct
1626195272.98,fixation,1,776,,,CoffeeSession
1626195274.02,stimulus,2,283,,,NoAct
1626195274.09,stimulus,3,89,,,NoAct
1626195274.48,stimulus,1,777,,,CoffeeSession
1626195274.52,fixation,2,283,,,NoAct
1626195274.59,fixation,3,89,,,NoAct
1626195274.98,fixation,1,777,,,CoffeeSession
1626195276.02,stimulus,2,284,,,NoAct
1626195276.09,stimulus,3,90,,,NoAct
1626195276.48,stimulus,1,778,,,CoffeeSession
1626195276.52,fixation,2,284,,,NoAct
1626195276.59,fixation,3,90,,,NoAct
1626195276.98,fixation,1,778,,,CoffeeSession
1626195278.02,stimulus,2,285,,,NoAct
1626195278.09,stimulus,3,91,,,NoAct
1626195278.48,stimulus,1,779,,,CoffeeSession
1626195278.52,fixation,2,285,,,NoAct
1626195278.59,fixation,3,91,,,NoAct
1626195278.98,fixation,1,779,,,CoffeeSession
1626195280.02,stimulus,2,286,,,NoAct
1626195280.09,stimulus,3,92,,,NoAct
1626195280.48,stimulus,1,780,,,CoffeeSession
1626195280.52,fixation,2,286,,,NoAct
1626195280.59,fixation,3,92,,,NoAct
1626195280.98,fixation,1,780,,,CoffeeSession
1626195282.02,stimulus,2,287,,,NoAct
1626195282.09,stimulus,3,93,,,NoAct
1626195282.48,stimulus,1,781,,,CoffeeSession
1626195282.52,fixation,2,287,,,NoAct
1626195282.59,fixation,3,93,,,NoAct
1626195282.98,fixation,1,781,,,CoffeeSession
1626195284.02,stimulus,2,288,,,NoAct
1626195284.09,stimulus,3,94,,,NoAct
1626195284.48,stimulus,1,782,,,CoffeeSession
1626195284.52,fixation,2,288,,,NoAct
1626195284.59,fixation,3,94,,,NoAct
1626195284.98,fixation,1,782,,,CoffeeSession
1626195286.02,stimulus,2,289,,,NoAct
1626195286.09,stimulus,3,95,,,NoAct
1626195286.48,stimulus,1,783,,,CoffeeSession
1626195286.52,fixation,2,289,,,NoAct
1626195286.59,fixation,3,95,,,NoAct
1626195286.98,fixation,1,783,,,CoffeeSession
1626195288.02,stimulus,2,290,,,NoAct
1626195288.09,stimulus,3,96,,,NoAct
1626195288.48,stimulus,1,784,,,CoffeeSession
1626195288.52,fixation,2,290,,,NoAct
1626195288.59,fixation,3,96,,,NoAct
1626195288.98,fixation,1,784,,,CoffeeSession
1626195290.02,stimulus,2,291,,,NoAct
1626195290.09,stimulus,3,97,,,NoAct
1626195290.48,stimulus,1,785,,,CoffeeSession
1626195290.52,fixation,2,291,,,NoAct
1626195290.59,fixation,3,97,,,NoAct
