event_time_s,trial_type,session_idx,trial_idx,RT_s,ACC,session_type
1625921662.98,stimulus,1,1,,,PracticeSession
1625921663.48,fixation,1,1,,,PracticeSession
1625921664.98,stimulus,1,2,,,PracticeSession
1625921665.48,fixation,1,2,,,PracticeSession
1625921666.98,stimulus,1,3,,,PracticeSession
1625921667.48,fixation,1,3,,,PracticeSession
1625921668.98,stimulus,1,4,,,PracticeSession
1625921669.48,fixation,1,4,,,PracticeSession
1625921670.98,stimulus,1,5,,,PracticeSession
1625921671.48,fixation,1,5,,,PracticeSession
1625921672.98,stimulus,1,6,,,PracticeSession
1625921673.48,fixation,1,6,,,PracticeSession
1625921674.98,stimulus,1,7,,,PracticeSession
1625921675.48,fixation,1,7,,,PracticeSession
1625921676.98,stimulus,1,8,,,PracticeSession
1625921677.48,fixation,1,8,,,PracticeSession
1625921678.98,stimulus,1,9,,,PracticeSession
1625921679.48,fixation,1,9,,,PracticeSession
1625921680.98,stimulus,1,10,,,PracticeSession
1625921681.48,fixation,1,10,,,PracticeSession
1625921682.98,stimulus,1,11,,,PracticeSession
1625921683.48,fixation,1,11,,,PracticeSession
1625921684.98,stimulus,1,12,,,PracticeSession
1625921685.48,fixation,1,12,,,PracticeSession
1625921686.98,stimulus,1,13,,,PracticeSession
1625921687.48,fixation,1,13,,,PracticeSession
1625921688.98,stimulus,1,14,,,PracticeSession
1625921689.48,fixation,1,14,,,PracticeSession
1625921690.98,stimulus,1,15,,,PracticeSession
1625921691.48,fixation,1,15,,,PracticeSession
1625921692.98,stimulus,1,16,,,PracticeSession
1625921693.48,fixation,1,16,,,PracticeSession
1625921694.98,stimulus,1,17,,,PracticeSession
1625921695.48,fixation,1,17,,,PracticeSession
1625921696.98,stimulus,1,18,,,PracticeSession
1625921697.48,fixation,1,18,,,PracticeSession
1625921698.98,stimulus,1,19,,,PracticeSession
1625921699.48,fixation,1,19,,,PracticeSession
1625921700.98,stimulus,1,20,,,PracticeSession
1625921701.48,fixation,1,20,,,PracticeSession
1625921702.98,stimulus,1,21,,,PracticeSession
1625921703.48,fixation,1,21,,,PracticeSession
1625921704.98,stimulus,1,22,,,PracticeSession
1625921705.48,fixation,1,22,,,PracticeSession
1625921706.98,stimulus,1,23,,,PracticeSession
1625921707.48,fixation,1,23,,,PracticeSession
1625921708.98,stimulus,1,24,,,PracticeSession
1625921709.48,fixation,1,24,,,PracticeSession
1625921710.98,stimulus,1,25,,,PracticeSession
1625921711.48,fixation,1,25,,,PracticeSession
1625921712.98,stimulus,1,26,,,PracticeSession
1625921713.48,fixation,1,26,,,PracticeSession
1625921714.98,stimulus,1,27,,,PracticeSession
1625921715.48,fixation,1,27,,,PracticeSession
1625921716.98,stimulus,1,28,,,PracticeSession
1625921717.48,fixation,1,28,,,PracticeSession
1625921718.98,stimulus,1,29,,,PracticeSession
1625921719.48,fixation,1,29,,,PracticeSession
1625921720.98,stimulus,1,30,,,PracticeSession
1625921721.48,fixation,1,30,,,PracticeSession
1625921722.98,stimulus,1,31,,,PracticeSession
1625921723.48,fixation,1,31,,,PracticeSession
1625921724.98,stimulus,1,32,,,PracticeSession
1625921725.48,fixation,1,32,,,PracticeSession
1625921726.98,stimulus,1,33,,,PracticeSession
1625921727.48,fixation,1,33,,,PracticeSession
1625921728.98,stimulus,1,34,,,PracticeSession
1625921729.48,fixation,1,34,,,PracticeSession
1625921730.98,stimulus,1,35,,,PracticeSession
1625921731.48,fixation,1,35,,,PracticeSession
1625921732.98,stimulus,1,36,,,PracticeSession
1625921733.48,fixation,1,36,,,PracticeSession
1625921734.98,stimulus,1,37,,,PracticeSession
1625921735.48,fixation,1,37,,,PracticeSession
1625921736.98,stimulus,1,38,,,PracticeSession
1625921737.48,fixation,1,38,,,PracticeSession
1625921738.98,stimulus,1,39,,,PracticeSession
1625921739.48,fixation,1,39,,,PracticeSession
1625921740.98,stimulus,1,40,,,PracticeSession
1625921741.48,fixation,1,40,,,PracticeSession
1625921742.98,stimulus,1,41,,,PracticeSession
1625921743.48,fixation,1,41,,,PracticeSession
1625921744.98,stimulus,1,42,,,PracticeSession
1625921745.48,fixation,1,42,,,PracticeSession
1625921746.98,stimulus,1,43,,,PracticeSession
1625921747.48,fixation,1,43,,,PracticeSession
1625921748.98,stimulus,1,44,,,PracticeSession
1625921749.48,fixation,1,44,,,PracticeSession
1625921750.98,stimulus,1,45,,0.0,NoMusic
1625921751.48,fixation,1,45,,0.0,NoMusic
1625921753.45,stimulus,1,46,0.47,1.0,NoMusic
1625921753.48,fixation,1,46,,0.0,NoMusic
1625921755.333,stimulus,1,47,0.353,1.0,NoMusic
1625921755.48,fixation,1,47,,0.0,NoMusic
1625921756.98,stimulus,1,48,,0.0,NoMusic
1625921757.56,fixation,1,48,0.08,1.0,NoMusic
1625921759.434,stimulus,1,49,0.454,1.0,NoMusic
1625921759.48,fixation,1,49,,0.0,NoMusic
1625921761.394,stimulus,1,50,0.414,1.0,NoMusic
1625921761.48,fixation,1,50,,0.0,NoMusic
1625921763.349,stimulus,1,51,0.369,0.0,NoMusic
1625921763.48,fixation,1,51,,0.0,NoMusic
1625921765.317,stimulus,1,52,0.337,1.0,NoMusic
1625921765.48,fixation,1,52,,0.0,NoMusic
1625921766.98,stimulus,1,53,,0.0,NoMusic
1625921767.494,fixation,1,53,0.014,1.0,NoMusic
1625921769.419,stimulus,1,54,0.439,1.0,NoMusic
1625921769.48,fixation,1,54,,0.0,NoMusic
1625921771.376,stimulus,1,55,0.396,1.0,NoMusic
1625921771.48,fixation,1,55,,0.0,NoMusic
1625921772.98,stimulus,1,56,,0.0,NoMusic
1625921773.631,fixation,1,56,0.151,1.0,NoMusic
1625921775.443,stimulus,1,57,0.463,1.0,NoMusic
1625921775.48,fixation,1,57,,0.0,NoMusic
1625921777.384,stimulus,1,58,0.404,1.0,NoMusic
1625921777.48,fixation,1,58,,0.0,NoMusic
1625921778.98,stimulus,1,59,,0.0,NoMusic
1625921779.661,fixation,1,59,0.181,1.0,NoMusic
1625921780.98,stimulus,1,60,,0.0,NoMusic
1625921781.542,fixation,1,60,0.062,1.0,NoMusic
1625921782.98,stimulus,1,61,,0.0,NoMusic
1625921783.553,fixation,1,61,0.073,1.0,NoMusic
1625921784.98,stimulus,1,62,,0.0,NoMusic
1625921785.544,fixation,1,62,0.064,1.0,NoMusic
1625921787.428,stimulus,1,63,0.448,1.0,NoMusic
1625921787.48,fixation,1,63,,0.0,NoMusic
1625921789.432,stimulus,1,64,0.452,1.0,NoMusic
1625921789.48,fixation,1,64,,0.0,NoMusic
1625921790.98,stimulus,1,65,,0.0,NoMusic
1625921791.552,fixation,1,65,0.072,1.0,NoMusic
1625921792.98,stimulus,1,66,,0.0,NoMusic
1625921793.528,fixation,1,66,0.048,1.0,NoMusic
1625921794.98,stimulus,1,67,,0.0,NoMusic
1625921795.48,fixation,1,67,,0.0,NoMusic
1625921796.98,stimulus,1,68,,0.0,NoMusic
1625921798.001,fixation,1,68,0.521,1.0,NoMusic
1625921799.414,stimulus,1,69,0.434,1.0,NoMusic
1625921799.48,fixation,1,69,,0.0,NoMusic
1625921800.98,stimulus,1,70,,0.0,NoMusic
1625921801.601,fixation,1,70,0.121,1.0,NoMusic
1625921803.375,stimulus,1,71,0.395,1.0,NoMusic
1625921803.48,fixation,1,71,,0.0,NoMusic
1625921804.98,stimulus,1,72,,0.0,NoMusic
1625921805.713,fixation,1,72,0.233,1.0,NoMusic
1625921806.98,stimulus,1,73,,0.0,NoMusic
1625921807.591,fixation,1,73,0.111,1.0,NoMusic
1625921809.359,stimulus,1,74,0.379,0.0,NoMusic
1625921809.48,fixation,1,74,,0.0,NoMusic
1625921811.453,stimulus,1,75,0.473,1.0,NoMusic
1625921811.48,fixation,1,75,,0.0,NoMusic
1625921812.98,stimulus,1,76,,0.0,NoMusic
1625921813.592,fixation,1,76,0.112,1.0,NoMusic
1625921815.308,stimulus,1,77,0.328,1.0,NoMusic
1625921815.48,fixation,1,77,,0.0,NoMusic
1625921817.419,stimulus,1,78,0.439,1.0,NoMusic
1625921817.48,fixation,1,78,,0.0,NoMusic
1625921818.98,stimulus,1,79,,0.0,NoMusic
1625921819.94,fixation,1,79,0.46,1.0,NoMusic
1625921820.98,stimulus,1,80,,0.0,NoMusic
1625921821.917,fixation,1,80,0.437,1.0,NoMusic
1625921822.98,stimulus,1,81,,0.0,NoMusic
1625921823.562,fixation,1,81,0.082,1.0,NoMusic
1625921825.313,stimulus,1,82,0.333,1.0,NoMusic
1625921825.48,fixation,1,82,,0.0,NoMusic
1625921826.98,stimulus,1,83,,0.0,NoMusic
1625921827.488,fixation,1,83,0.008,1.0,NoMusic
1625921829.419,stimulus,1,84,0.439,0.0,NoMusic
1625921829.48,fixation,1,84,,0.0,NoMusic
1625921831.404,stimulus,1,85,0.424,1.0,NoMusic
1625921831.48,fixation,1,85,,0.0,NoMusic
1625921833.319,stimulus,1,86,0.339,1.0,NoMusic
1625921833.48,fixation,1,86,,0.0,NoMusic
1625921834.98,stimulus,1,87,,0.0,NoMusic
1625921835.592,fixation,1,87,0.112,1.0,NoMusic
1625921836.98,stimulus,1,88,,0.0,NoMusic
1625921837.489,fixation,1,88,0.009,1.0,NoMusic
1625921838.98,stimulus,1,89,,0.0,NoMusic
1625921839.48,fixation,1,89,,0.0,NoMusic
1625921841.259,stimulus,1,90,0.279,1.0,NoMusic
1625921841.48,fixation,1,90,,0.0,NoMusic
1625921843.345,stimulus,1,91,0.365,1.0,NoMusic
1625921843.48,fixation,1,91,,0.0,NoMusic
1625921844.98,stimulus,1,92,,0.0,NoMusic
1625921845.613,fixation,1,92,0.133,1.0,NoMusic
1625921846.98,stimulus,1,93,,0.0,NoMusic
1625921847.533,fixation,1,93,0.053,1.0,NoMusic
1625921848.98,stimulus,1,94,,0.0,NoMusic
1625921849.76,fixation,1,94,0.28,0.0,NoMusic
1625921850.98,stimulus,1,95,,0.0,NoMusic
1625921851.831,fixation,1,95,0.351,1.0,NoMusic
1625921852.98,stimulus,1,96,,0.0,NoMusic
1625921853.65,fixation,1,96,0.17,1.0,NoMusic
1625921855.427,stimulus,1,97,0.447,1.0,NoMusic
1625921855.48,fixation,1,97,,0.0,NoMusic
1625921857.384,stimulus,1,98,0.404,1.0,NoMusic
1625921857.48,fixation,1,98,,0.0,NoMusic
1625921859.3830001,stimulus,1,99,0.403,1.0,NoMusic
1625921859.48,fixation,1,99,,0.0,NoMusic
1625921860.98,stimulus,1,100,,0.0,NoMusic
1625921861.48,fixation,1,100,,0.0,NoMusic
1625921862.98,stimulus,1,101,,0.0,NoMusic
1625921863.95,fixation,1,101,0.47,0.0,NoMusic
1625921865.341,stimulus,1,102,0.361,1.0,NoMusic
1625921865.48,fixation,1,102,,0.0,NoMusic
1625921866.98,stimulus,1,103,,0.0,NoMusic
1625921867.65,fixation,1,103,0.17,1.0,NoMusic
1625921868.98,stimulus,1,104,,0.0,NoMusic
1625921869.483,fixation,1,104,0.003,1.0,NoMusic
1625921871.434,stimulus,1,105,0.454,1.0,NoMusic
1625921871.48,fixation,1,105,,0.0,NoMusic
1625921873.334,stimulus,1,106,0.354,1.0,NoMusic
1625921873.48,fixation,1,106,,0.0,NoMusic
1625921874.98,stimulus,1,107,,0.0,NoMusic
1625921875.484,fixation,1,107,0.004,0.0,NoMusic
1625921876.98,stimulus,1,108,,0.0,NoMusic
1625921877.691,fixation,1,108,0.211,1.0,NoMusic
1625921878.98,stimulus,1,109,,0.0,NoMusic
1625921879.56,fixation,1,109,0.08,1.0,NoMusic
1625921880.98,stimulus,1,110,,0.0,NoMusic
1625921881.617,fixation,1,110,0.137,1.0,NoMusic
1625921882.98,stimulus,1,111,,0.0,NoMusic
1625921883.48,fixation,1,111,,0.0,NoMusic
1625921884.98,stimulus,1,112,,0.0,NoMusic
1625921885.539,fixation,1,112,0.059,1.0,NoMusic
1625921887.4,stimulus,1,113,0.42,1.0,NoMusic
1625921887.48,fixation,1,113,,0.0,NoMusic
1625921888.98,stimulus,1,114,,0.0,NoMusic
1625921889.582,fixation,1,114,0.102,0.0,NoMusic
1625921890.98,stimulus,1,115,,0.0,NoMusic
1625921891.729,fixation,1,115,0.249,1.0,NoMusic
1625921893.413,stimulus,1,116,0.433,1.0,NoMusic
1625921893.48,fixation,1,116,,0.0,NoMusic
1625921895.473,stimulus,1,117,0.493,0.0,NoMusic
1625921895.48,fixation,1,117,,0.0,NoMusic
1625921897.417,stimulus,1,118,0.437,1.0,NoMusic
1625921897.48,fixation,1,118,,0.0,NoMusic
1625921898.98,stimulus,1,119,,0.0,NoMusic
1625921899.484,fixation,1,119,0.004,0.0,NoMusic
1625921900.98,stimulus,1,120,,0.0,NoMusic
1625921902.006,fixation,1,120,0.526,1.0,NoMusic
1625921902.98,stimulus,1,121,,0.0,NoMusic
1625921904.369,fixation,1,121,0.889,0.0,NoMusic
1625921904.98,stimulus,1,122,,0.0,NoMusic
1625921906.045,fixation,1,122,0.565,0.0,NoMusic
1625921907.418,stimulus,1,123,0.438,1.0,NoMusic
1625921907.48,fixation,1,123,,0.0,NoMusic
1625921908.98,stimulus,1,124,,0.0,NoMusic
1625921909.575,fixation,1,124,0.095,1.0,NoMusic
1625921911.39,stimulus,1,125,0.41,1.0,NoMusic
1625921911.48,fixation,1,125,,0.0,NoMusic
1625921913.378,stimulus,1,126,0.398,1.0,NoMusic
1625921913.48,fixation,1,126,,0.0,NoMusic
1625921914.98,stimulus,1,127,,0.0,NoMusic
1625921915.534,fixation,1,127,0.054,1.0,NoMusic
1625921917.412,stimulus,1,128,0.432,0.0,NoMusic
1625921917.48,fixation,1,128,,0.0,NoMusic
1625921918.98,stimulus,1,129,,0.0,NoMusic
1625921919.658,fixation,1,129,0.178,1.0,NoMusic
1625921920.98,stimulus,1,130,,0.0,NoMusic
1625921921.615,fixation,1,130,0.135,1.0,NoMusic
1625921922.98,stimulus,1,131,,0.0,NoMusic
1625921923.98,fixation,1,131,0.5,1.0,NoMusic
1625921924.98,stimulus,1,132,,0.0,NoMusic
1625921925.636,fixation,1,132,0.156,1.0,NoMusic
1625921926.98,stimulus,1,133,,0.0,NoMusic
1625921927.48,fixation,1,133,,0.0,NoMusic
1625921928.98,stimulus,1,134,,0.0,NoMusic
1625921929.48,fixation,1,134,,0.0,NoMusic
1625921931.252,stimulus,1,135,0.272,1.0,NoMusic
1625921931.48,fixation,1,135,,0.0,NoMusic
1625921933.345,stimulus,1,136,0.365,1.0,NoMusic
1625921933.48,fixation,1,136,,0.0,NoMusic
1625921934.98,stimulus,1,137,,0.0,NoMusic
1625921935.535,fixation,1,137,0.055,1.0,NoMusic
1625921937.343,stimulus,1,138,0.363,1.0,NoMusic
1625921937.48,fixation,1,138,,0.0,NoMusic
1625921939.263,stimulus,1,139,0.283,0.0,NoMusic
1625921939.48,fixation,1,139,,0.0,NoMusic
1625921940.98,stimulus,1,140,,0.0,NoMusic
1625921941.515,fixation,1,140,0.035,1.0,NoMusic
1625921942.98,stimulus,1,141,,0.0,NoMusic
1625921943.48,fixation,1,141,,0.0,NoMusic
1625921944.98,stimulus,1,142,,0.0,NoMusic
1625921945.681,fixation,1,142,0.201,1.0,NoMusic
1625921946.98,stimulus,1,143,,0.0,NoMusic
1625921947.54,fixation,1,143,0.06,1.0,NoMusic
1625921949.467,stimulus,1,144,0.487,1.0,NoMusic
1625921949.48,fixation,1,144,,0.0,NoMusic
1625921950.98,stimulus,1,145,,0.0,NoMusic
1625921951.491,fixation,1,145,0.011,0.0,NoMusic
1625921952.98,stimulus,1,146,,0.0,NoMusic
1625921953.732,fixation,1,146,0.252,1.0,NoMusic
1625921954.98,stimulus,1,147,,0.0,NoMusic
1625921955.5080001,fixation,1,147,0.028,0.0,NoMusic
1625921957.354,stimulus,1,148,0.374,1.0,NoMusic
1625921957.48,fixation,1,148,,0.0,NoMusic
1625921959.455,stimulus,1,149,0.475,1.0,NoMusic
1625921959.48,fixation,1,149,,0.0,NoMusic
1625921961.352,stimulus,1,150,0.372,1.0,NoMusic
1625921961.48,fixation,1,150,,0.0,NoMusic
1625921963.438,stimulus,1,151,0.458,1.0,NoMusic
1625921963.48,fixation,1,151,,0.0,NoMusic
1625921964.98,stimulus,1,152,,0.0,NoMusic
1625921965.641,fixation,1,152,0.161,1.0,NoMusic
1625921966.98,stimulus,1,153,,0.0,NoMusic
1625921967.544,fixation,1,153,0.064,1.0,NoMusic
1625921968.98,stimulus,1,154,,0.0,NoMusic
1625921969.667,fixation,1,154,0.187,1.0,NoMusic
1625921970.98,stimulus,1,155,,0.0,NoMusic
1625921971.48,fixation,1,155,,0.0,NoMusic
1625921972.98,stimulus,1,156,,0.0,NoMusic
1625921973.481,fixation,1,156,0.001,1.0,NoMusic
1625921975.468,stimulus,1,157,0.488,1.0,NoMusic
1625921975.48,fixation,1,157,,0.0,NoMusic
1625921977.474,stimulus,1,158,0.494,1.0,NoMusic
1625921977.48,fixation,1,158,,0.0,NoMusic
1625921979.357,stimulus,1,159,0.377,1.0,NoMusic
1625921979.48,fixation,1,159,,0.0,NoMusic
1625921981.456,stimulus,1,160,0.476,1.0,NoMusic
1625921981.48,fixation,1,160,,0.0,NoMusic
1625921982.98,stimulus,1,161,,0.0,NoMusic
1625921983.48,fixation,1,161,,0.0,NoMusic
1625921984.98,stimulus,1,162,,0.0,NoMusic
1625921985.521,fixation,1,162,0.041,1.0,NoMusic
1625921987.453,stimulus,1,163,0.473,0.0,NoMusic
1625921987.48,fixation,1,163,,0.0,NoMusic
1625921988.98,stimulus,1,164,,0.0,NoMusic
1625921989.48,fixation,1,164,,0.0,NoMusic
1625921990.98,stimulus,1,165,,0.0,NoMusic
1625921991.486,fixation,1,165,0.006,1.0,NoMusic
1625921992.98,stimulus,1,166,,0.0,NoMusic
1625921993.534,fixation,1,166,0.054,1.0,NoMusic
1625921994.98,stimulus,1,167,,0.0,NoMusic
1625921995.487,fixation,1,167,0.007,1.0,NoMusic
1625921996.98,stimulus,1,168,,0.0,NoMusic
1625921997.5310001,fixation,1,168,0.051,1.0,NoMusic
1625921998.98,stimulus,1,169,,0.0,NoMusic
1625921999.611,fixation,1,169,0.131,0.0,NoMusic
1625922000.98,stimulus,1,170,,0.0,NoMusic
1625922001.549,fixation,1,170,0.069,1.0,NoMusic
1625922002.98,stimulus,1,171,,0.0,NoMusic
1625922003.527,fixation,1,171,0.047,1.0,NoMusic
1625922004.98,stimulus,1,172,,0.0,NoMusic
1625922005.551,fixation,1,172,0.071,1.0,NoMusic
1625922007.4060001,stimulus,1,173,0.426,1.0,NoMusic
1625922007.48,fixation,1,173,,0.0,NoMusic
1625922008.98,stimulus,1,174,,0.0,NoMusic
1625922009.515,fixation,1,174,0.035,1.0,NoMusic
1625922011.409,stimulus,1,175,0.429,0.0,NoMusic
1625922011.48,fixation,1,175,,0.0,NoMusic
1625922012.98,stimulus,1,176,,0.0,NoMusic
1625922013.838,fixation,1,176,0.358,1.0,NoMusic
1625922014.98,stimulus,1,177,,0.0,NoMusic
1625922015.48,fixation,1,177,,0.0,NoMusic
1625922017.378,stimulus,1,178,0.398,1.0,NoMusic
1625922017.48,fixation,1,178,,0.0,NoMusic
1625922019.3700001,stimulus,1,179,0.39,1.0,NoMusic
1625922019.48,fixation,1,179,,0.0,NoMusic
1625922021.414,stimulus,1,180,0.434,1.0,NoMusic
1625922021.48,fixation,1,180,,0.0,NoMusic
1625922023.38,stimulus,1,181,0.4,1.0,NoMusic
1625922023.48,fixation,1,181,,0.0,NoMusic
1625922025.3930001,stimulus,1,182,0.413,1.0,NoMusic
1625922025.48,fixation,1,182,,0.0,NoMusic
1625922026.98,stimulus,1,183,,0.0,NoMusic
1625922027.5080001,fixation,1,183,0.028,1.0,NoMusic
1625922029.418,stimulus,1,184,0.438,1.0,NoMusic
1625922029.48,fixation,1,184,,0.0,NoMusic
1625922030.98,stimulus,1,185,,0.0,NoMusic
1625922031.48,fixation,1,185,,0.0,NoMusic
1625922032.98,stimulus,1,186,,0.0,NoMusic
1625922033.53,fixation,1,186,0.05,0.0,NoMusic
1625922035.39,stimulus,1,187,0.41,1.0,NoMusic
1625922035.48,fixation,1,187,,0.0,NoMusic
1625922037.447,stimulus,1,188,0.467,1.0,NoMusic
1625922037.48,fixation,1,188,,0.0,NoMusic
1625922038.98,stimulus,1,189,,0.0,NoMusic
1625922039.694,fixation,1,189,0.214,1.0,NoMusic
1625922040.98,stimulus,1,190,,0.0,NoMusic
1625922041.554,fixation,1,190,0.074,1.0,NoMusic
1625922043.372,stimulus,1,191,0.392,1.0,NoMusic
1625922043.48,fixation,1,191,,0.0,NoMusic
1625922045.452,stimulus,1,192,0.472,1.0,NoMusic
1625922045.48,fixation,1,192,,0.0,NoMusic
1625922047.354,stimulus,1,193,0.374,1.0,NoMusic
1625922047.48,fixation,1,193,,0.0,NoMusic
1625922049.375,stimulus,1,194,0.395,1.0,NoMusic
1625922049.48,fixation,1,194,,0.0,NoMusic
1625922050.98,stimulus,1,195,,0.0,NoMusic
1625922051.519,fixation,1,195,0.039,1.0,NoMusic
1625922053.473,stimulus,1,196,0.493,1.0,NoMusic
1625922053.48,fixation,1,196,,0.0,NoMusic
1625922055.445,stimulus,1,197,0.465,1.0,NoMusic
1625922055.48,fixation,1,197,,0.0,NoMusic
1625922057.389,stimulus,1,198,0.409,1.0,NoMusic
1625922057.48,fixation,1,198,,0.0,NoMusic
1625922058.98,stimulus,1,199,,0.0,NoMusic
1625922059.48,fixation,1,199,,0.0,NoMusic
1625922060.98,stimulus,1,200,,0.0,NoMusic
1625922061.725,fixation,1,200,0.245,1.0,NoMusic
1625922063.342,stimulus,1,201,0.362,1.0,NoMusic
1625922063.48,fixation,1,201,,0.0,NoMusic
1625922065.437,stimulus,1,202,0.457,1.0,NoMusic
1625922065.48,fixation,1,202,,0.0,NoMusic
1625922067.256,stimulus,1,203,0.276,1.0,NoMusic
1625922067.48,fixation,1,203,,0.0,NoMusic
1625922069.4720001,stimulus,1,204,0.492,1.0,NoMusic
1625922069.48,fixation,1,204,,0.0,NoMusic
1625922070.98,stimulus,1,205,,0.0,NoMusic
1625922071.603,fixation,1,205,0.123,1.0,NoMusic
1625922073.426,stimulus,1,206,0.446,1.0,NoMusic
1625922073.48,fixation,1,206,,0.0,NoMusic
1625922075.477,stimulus,1,207,0.497,1.0,NoMusic
1625922075.48,fixation,1,207,,0.0,NoMusic
1625922076.98,stimulus,1,208,,0.0,NoMusic
1625922077.65,fixation,1,208,0.17,1.0,NoMusic
1625922078.98,stimulus,1,209,,0.0,NoMusic
1625922079.621,fixation,1,209,0.141,1.0,NoMusic
1625922080.98,stimulus,1,210,,0.0,NoMusic
1625922081.483,fixation,1,210,0.003,1.0,NoMusic
1625922083.457,stimulus,1,211,0.477,1.0,NoMusic
1625922083.48,fixation,1,211,,0.0,NoMusic
1625922085.45,stimulus,1,212,0.47,1.0,NoMusic
1625922085.48,fixation,1,212,,0.0,NoMusic
1625922086.98,stimulus,1,213,,0.0,NoMusic
1625922087.746,fixation,1,213,0.266,0.0,NoMusic
1625922089.456,stimulus,1,214,0.476,1.0,NoMusic
1625922089.48,fixation,1,214,,0.0,NoMusic
1625922091.351,stimulus,1,215,0.371,1.0,NoMusic
1625922091.48,fixation,1,215,,0.0,NoMusic
1625922093.471,stimulus,1,216,0.491,1.0,NoMusic
1625922093.48,fixation,1,216,,0.0,NoMusic
1625922095.283,stimulus,1,217,0.303,0.0,NoMusic
1625922095.48,fixation,1,217,,0.0,NoMusic
1625922096.98,stimulus,1,218,,0.0,NoMusic
1625922097.499,fixation,1,218,0.019,1.0,NoMusic
1625922098.98,stimulus,1,219,,0.0,NoMusic
1625922099.934,fixation,1,219,0.454,1.0,NoMusic
1625922100.98,stimulus,1,220,,0.0,NoMusic
1625922101.525,fixation,1,220,0.045,1.0,NoMusic
1625922102.98,stimulus,1,221,,,NoMusic
1625922103.48,fixation,1,221,,,NoMusic
1625922104.98,stimulus,1,222,,0.0,NoMusic
1625922106.108,fixation,1,222,0.628,1.0,NoMusic
1625922107.277,stimulus,1,223,0.297,1.0,NoMusic
1625922107.48,fixation,1,223,,0.0,NoMusic
1625922109.451,stimulus,1,224,0.471,1.0,NoMusic
1625922109.48,fixation,1,224,,0.0,NoMusic
1625922111.451,stimulus,1,225,0.471,1.0,NoMusic
1625922111.48,fixation,1,225,,0.0,NoMusic
1625922113.427,stimulus,1,226,0.447,1.0,NoMusic
1625922113.48,fixation,1,226,,0.0,NoMusic
1625922115.401,stimulus,1,227,0.421,1.0,NoMusic
1625922115.48,fixation,1,227,,0.0,NoMusic
1625922116.98,stimulus,1,228,,0.0,NoMusic
1625922117.573,fixation,1,228,0.093,1.0,NoMusic
1625922119.361,stimulus,1,229,0.381,1.0,NoMusic
1625922119.48,fixation,1,229,,0.0,NoMusic
1625922121.338,stimulus,1,230,0.358,1.0,NoMusic
1625922121.48,fixation,1,230,,0.0,NoMusic
1625922123.437,stimulus,1,231,0.457,1.0,NoMusic
1625922123.48,fixation,1,231,,0.0,NoMusic
1625922125.4490001,stimulus,1,232,0.469,1.0,NoMusic
1625922125.48,fixation,1,232,,0.0,NoMusic
1625922127.302,stimulus,1,233,0.322,0.0,NoMusic
1625922127.48,fixation,1,233,,0.0,NoMusic
1625922129.429,stimulus,1,234,0.449,0.0,NoMusic
1625922129.48,fixation,1,234,,0.0,NoMusic
1625922130.98,stimulus,1,235,,0.0,NoMusic
1625922131.752,fixation,1,235,0.272,0.0,NoMusic
1625922132.98,stimulus,1,236,,0.0,NoMusic
1625922133.48,fixation,1,236,,0.0,NoMusic
1625922135.418,stimulus,1,237,0.438,1.0,NoMusic
1625922135.48,fixation,1,237,,0.0,NoMusic
1625922136.98,stimulus,1,238,,0.0,NoMusic
1625922137.862,fixation,1,238,0.382,0.0,NoMusic
1625922139.479,stimulus,1,239,0.499,0.0,NoMusic
1625922139.48,fixation,1,239,,0.0,NoMusic
1625922140.98,stimulus,1,240,,0.0,NoMusic
1625922141.569,fixation,1,240,0.089,1.0,NoMusic
1625922142.98,stimulus,1,241,,0.0,NoMusic
1625922143.496,fixation,1,241,0.016,0.0,NoMusic
1625922144.98,stimulus,1,242,,0.0,NoMusic
1625922145.628,fixation,1,242,0.148,1.0,NoMusic
1625922146.98,stimulus,1,243,,0.0,NoMusic
1625922147.526,fixation,1,243,0.046,0.0,NoMusic
1625922148.98,stimulus,1,244,,0.0,NoMusic
1625922149.48,fixation,1,244,,0.0,NoMusic
1625922151.378,stimulus,1,245,0.398,1.0,NoMusic
1625922151.48,fixation,1,245,,0.0,NoMusic
1625922153.336,stimulus,1,246,0.356,1.0,NoMusic
1625922153.48,fixation,1,246,,0.0,NoMusic
1625922155.374,stimulus,1,247,0.394,1.0,NoMusic
1625922155.48,fixation,1,247,,0.0,NoMusic
1625922157.325,stimulus,1,248,0.345,1.0,NoMusic
1625922157.48,fixation,1,248,,0.0,NoMusic
1625922159.376,stimulus,1,249,0.396,1.0,NoMusic
1625922159.48,fixation,1,249,,0.0,NoMusic
1625922161.4620001,stimulus,1,250,0.482,1.0,NoMusic
1625922161.48,fixation,1,250,,0.0,NoMusic
1625922163.287,stimulus,1,251,0.307,1.0,NoMusic
1625922163.48,fixation,1,251,,0.0,NoMusic
1625922165.311,stimulus,1,252,0.331,1.0,NoMusic
1625922165.48,fixation,1,252,,0.0,NoMusic
1625922167.353,stimulus,1,253,0.373,1.0,NoMusic
1625922167.48,fixation,1,253,,0.0,NoMusic
1625922169.455,stimulus,1,254,0.475,1.0,NoMusic
1625922169.48,fixation,1,254,,0.0,NoMusic
1625922171.428,stimulus,1,255,0.448,1.0,NoMusic
1625922171.48,fixation,1,255,,0.0,NoMusic
1625922173.38,stimulus,1,256,0.4,1.0,NoMusic
1625922173.48,fixation,1,256,,0.0,NoMusic
1625922175.463,stimulus,1,257,0.483,1.0,NoMusic
1625922175.48,fixation,1,257,,0.0,NoMusic
1625922176.98,stimulus,1,258,,0.0,NoMusic
1625922177.569,fixation,1,258,0.089,1.0,NoMusic
1625922178.98,stimulus,1,259,,0.0,NoMusic
1625922179.535,fixation,1,259,0.055,1.0,NoMusic
1625922180.98,stimulus,1,260,,0.0,NoMusic
1625922181.488,fixation,1,260,0.008,1.0,NoMusic
1625922182.98,stimulus,1,261,,0.0,NoMusic
1625922183.687,fixation,1,261,0.207,1.0,NoMusic
1625922184.98,stimulus,1,262,,0.0,NoMusic
1625922185.507,fixation,1,262,0.027,1.0,NoMusic
1625922186.98,stimulus,1,263,,0.0,NoMusic
1625922187.529,fixation,1,263,0.049,1.0,NoMusic
1625922188.98,stimulus,1,264,,0.0,NoMusic
1625922189.502,fixation,1,264,0.022,1.0,NoMusic
1625922191.376,stimulus,1,265,0.396,1.0,NoMusic
1625922191.48,fixation,1,265,,0.0,NoMusic
1625922192.98,stimulus,1,266,,0.0,NoMusic
1625922193.927,fixation,1,266,0.447,1.0,NoMusic
1625922194.98,stimulus,1,267,,0.0,NoMusic
1625922195.542,fixation,1,267,0.062,1.0,NoMusic
1625922196.98,stimulus,1,268,,0.0,NoMusic
1625922197.4850001,fixation,1,268,0.005,1.0,NoMusic
1625922198.98,stimulus,1,269,,0.0,NoMusic
1625922199.509,fixation,1,269,0.029,1.0,NoMusic
1625922201.447,stimulus,1,270,0.467,1.0,NoMusic
1625922201.48,fixation,1,270,,0.0,NoMusic
1625922202.98,stimulus,1,271,,0.0,NoMusic
1625922203.611,fixation,1,271,0.131,1.0,NoMusic
1625922204.98,stimulus,1,272,,0.0,NoMusic
1625922205.751,fixation,1,272,0.271,1.0,NoMusic
1625922207.415,stimulus,1,273,0.435,1.0,NoMusic
1625922207.48,fixation,1,273,,0.0,NoMusic
1625922209.414,stimulus,1,274,0.434,1.0,NoMusic
1625922209.48,fixation,1,274,,0.0,NoMusic
1625922211.446,stimulus,1,275,0.466,1.0,NoMusic
1625922211.48,fixation,1,275,,0.0,NoMusic
1625922213.437,stimulus,1,276,0.457,1.0,NoMusic
1625922213.48,fixation,1,276,,0.0,NoMusic
1625922215.378,stimulus,1,277,0.398,1.0,NoMusic
1625922215.48,fixation,1,277,,0.0,NoMusic
1625922217.332,stimulus,1,278,0.352,0.0,NoMusic
1625922217.48,fixation,1,278,,0.0,NoMusic
1625922219.411,stimulus,1,279,0.431,1.0,NoMusic
1625922219.48,fixation,1,279,,0.0,NoMusic
1625922221.437,stimulus,1,280,0.457,1.0,NoMusic
1625922221.48,fixation,1,280,,0.0,NoMusic
1625922223.422,stimulus,1,281,0.442,1.0,NoMusic
1625922223.48,fixation,1,281,,0.0,NoMusic
1625922224.98,stimulus,1,282,,0.0,NoMusic
1625922225.499,fixation,1,282,0.019,1.0,NoMusic
1625922226.98,stimulus,1,283,,0.0,NoMusic
1625922227.491,fixation,1,283,0.011,1.0,NoMusic
1625922229.42,stimulus,1,284,0.44,1.0,NoMusic
1625922229.48,fixation,1,284,,0.0,NoMusic
1625922230.98,stimulus,1,285,,0.0,NoMusic
1625922231.494,fixation,1,285,0.014,1.0,NoMusic
1625922233.3470001,stimulus,1,286,0.367,1.0,NoMusic
1625922233.48,fixation,1,286,,0.0,NoMusic
1625922235.3930001,stimulus,1,287,0.413,1.0,NoMusic
1625922235.48,fixation,1,287,,0.0,NoMusic
1625922236.98,stimulus,1,288,,0.0,NoMusic
1625922237.48,fixation,1,288,,0.0,NoMusic
1625922239.218,stimulus,1,289,0.238,1.0,NoMusic
1625922239.48,fixation,1,289,,0.0,NoMusic
1625922241.328,stimulus,1,290,0.348,1.0,NoMusic
1625922241.48,fixation,1,290,,0.0,NoMusic
1625922242.98,stimulus,1,291,,0.0,NoMusic
1625922243.498,fixation,1,291,0.018,1.0,NoMusic
1625922245.397,stimulus,1,292,0.417,1.0,NoMusic
1625922245.48,fixation,1,292,,0.0,NoMusic
1625922246.98,stimulus,1,293,,0.0,NoMusic
1625922247.482,fixation,1,293,0.002,1.0,NoMusic
1625922248.98,stimulus,1,294,,0.0,NoMusic
1625922249.623,fixation,1,294,0.143,1.0,NoMusic
1625922251.43,stimulus,1,295,0.45,0.0,NoMusic
1625922251.48,fixation,1,295,,0.0,NoMusic
1625922252.98,stimulus,1,296,,0.0,NoMusic
1625922253.503,fixation,1,296,0.023,1.0,NoMusic
1625922254.98,stimulus,1,297,,0.0,NoMusic
1625922255.543,fixation,1,297,0.063,1.0,NoMusic
1625922257.338,stimulus,1,298,0.358,1.0,NoMusic
1625922257.48,fixation,1,298,,0.0,NoMusic
1625922259.446,stimulus,1,299,0.466,1.0,NoMusic
1625922259.48,fixation,1,299,,0.0,NoMusic
1625922261.425,stimulus,1,300,0.445,1.0,NoMusic
1625922261.48,fixation,1,300,,0.0,NoMusic
1625922262.98,stimulus,1,301,,0.0,NoMusic
1625922263.536,fixation,1,301,0.056,1.0,NoMusic
1625922264.98,stimulus,1,302,,0.0,NoMusic
1625922265.585,fixation,1,302,0.105,1.0,NoMusic
1625922266.98,stimulus,1,303,,0.0,NoMusic
1625922268.102,fixation,1,303,0.622,1.0,NoMusic
1625922269.405,stimulus,1,304,0.425,1.0,NoMusic
1625922269.48,fixation,1,304,,0.0,NoMusic
1625922271.4160001,stimulus,1,305,0.436,1.0,NoMusic
1625922271.48,fixation,1,305,,0.0,NoMusic
1625922272.98,stimulus,1,306,,0.0,NoMusic
1625922273.736,fixation,1,306,0.256,1.0,NoMusic
1625922274.98,stimulus,1,307,,0.0,NoMusic
1625922275.586,fixation,1,307,0.106,1.0,NoMusic
1625922277.456,stimulus,1,308,0.476,1.0,NoMusic
1625922277.48,fixation,1,308,,0.0,NoMusic
1625922278.98,stimulus,1,309,,0.0,NoMusic
1625922279.5080001,fixation,1,309,0.028,1.0,NoMusic
1625922280.98,stimulus,1,310,,0.0,NoMusic
1625922281.48,fixation,1,310,,0.0,NoMusic
1625922283.273,stimulus,1,311,0.293,1.0,NoMusic
1625922283.48,fixation,1,311,,0.0,NoMusic
1625922285.364,stimulus,1,312,0.384,1.0,NoMusic
1625922285.48,fixation,1,312,,0.0,NoMusic
1625922287.445,stimulus,1,313,0.465,1.0,NoMusic
1625922287.48,fixation,1,313,,0.0,NoMusic
1625922289.3370001,stimulus,1,314,0.357,1.0,NoMusic
1625922289.48,fixation,1,314,,0.0,NoMusic
1625922291.434,stimulus,1,315,0.454,1.0,NoMusic
1625922291.48,fixation,1,315,,0.0,NoMusic
1625922292.98,stimulus,1,316,,0.0,NoMusic
1625922293.522,fixation,1,316,0.042,1.0,NoMusic
1625922294.98,stimulus,1,317,,0.0,NoMusic
1625922295.592,fixation,1,317,0.112,1.0,NoMusic
1625922296.98,stimulus,1,318,,0.0,NoMusic
1625922297.596,fixation,1,318,0.116,1.0,NoMusic
1625922299.358,stimulus,1,319,0.378,0.0,NoMusic
1625922299.48,fixation,1,319,,0.0,NoMusic
1625922301.376,stimulus,1,320,0.396,1.0,NoMusic
1625922301.48,fixation,1,320,,0.0,NoMusic
1625922303.387,stimulus,1,321,0.407,1.0,NoMusic
1625922303.48,fixation,1,321,,0.0,NoMusic
1625922305.424,stimulus,1,322,0.444,1.0,NoMusic
1625922305.48,fixation,1,322,,0.0,NoMusic
1625922307.3600001,stimulus,1,323,0.38,1.0,NoMusic
1625922307.48,fixation,1,323,,0.0,NoMusic
1625922309.38,stimulus,1,324,0.4,1.0,NoMusic
1625922309.48,fixation,1,324,,0.0,NoMusic
1625922310.98,stimulus,1,325,,0.0,NoMusic
1625922311.504,fixation,1,325,0.024,1.0,NoMusic
1625922313.466,stimulus,1,326,0.486,1.0,NoMusic
1625922313.48,fixation,1,326,,0.0,NoMusic
1625922315.471,stimulus,1,327,0.491,1.0,NoMusic
1625922315.48,fixation,1,327,,0.0,NoMusic
1625922317.469,stimulus,1,328,0.489,0.0,NoMusic
1625922317.48,fixation,1,328,,0.0,NoMusic
1625922318.98,stimulus,1,329,,0.0,NoMusic
1625922319.767,fixation,1,329,0.287,1.0,NoMusic
1625922321.38,stimulus,1,330,0.4,0.0,NoMusic
1625922321.48,fixation,1,330,,0.0,NoMusic
1625922323.389,stimulus,1,331,0.409,1.0,NoMusic
1625922323.48,fixation,1,331,,0.0,NoMusic
1625922324.98,stimulus,1,332,,0.0,NoMusic
1625922325.719,fixation,1,332,0.239,1.0,NoMusic
1625922326.98,stimulus,1,333,,0.0,NoMusic
1625922327.548,fixation,1,333,0.068,1.0,NoMusic
1625922329.429,stimulus,1,334,0.449,1.0,NoMusic
1625922329.48,fixation,1,334,,0.0,NoMusic
1625922330.98,stimulus,1,335,,0.0,NoMusic
1625922331.688,fixation,1,335,0.208,0.0,NoMusic
1625922333.46,stimulus,1,336,0.48,1.0,NoMusic
1625922333.48,fixation,1,336,,0.0,NoMusic
1625922335.379,stimulus,1,337,0.399,1.0,NoMusic
1625922335.48,fixation,1,337,,0.0,NoMusic
1625922337.457,stimulus,1,338,0.477,1.0,NoMusic
1625922337.48,fixation,1,338,,0.0,NoMusic
1625922339.385,stimulus,1,339,0.405,0.0,NoMusic
1625922339.48,fixation,1,339,,0.0,NoMusic
1625922340.98,stimulus,1,340,,0.0,NoMusic
1625922341.505,fixation,1,340,0.025,1.0,NoMusic
1625922343.296,stimulus,1,341,0.316,1.0,NoMusic
1625922343.48,fixation,1,341,,0.0,NoMusic
1625922345.451,stimulus,1,342,0.471,1.0,NoMusic
1625922345.48,fixation,1,342,,0.0,NoMusic
1625922346.98,stimulus,1,343,,0.0,NoMusic
1625922347.542,fixation,1,343,0.062,1.0,NoMusic
1625922348.98,stimulus,1,344,,0.0,NoMusic
1625922349.556,fixation,1,344,0.076,1.0,NoMusic
1625922351.46,stimulus,1,345,0.48,1.0,NoMusic
1625922351.48,fixation,1,345,,0.0,NoMusic
1625922353.396,stimulus,1,346,0.416,1.0,NoMusic
1625922353.48,fixation,1,346,,0.0,NoMusic
1625922354.98,stimulus,1,347,,0.0,NoMusic
1625922355.482,fixation,1,347,0.002,1.0,NoMusic
1625922356.98,stimulus,1,348,,0.0,NoMusic
1625922357.6890001,fixation,1,348,0.209,1.0,NoMusic
1625922359.44,stimulus,1,349,0.46,1.0,NoMusic
1625922359.48,fixation,1,349,,0.0,NoMusic
1625922360.98,stimulus,1,350,,0.0,NoMusic
1625922361.526,fixation,1,350,0.046,0.0,NoMusic
1625922363.454,stimulus,1,351,0.474,1.0,NoMusic
1625922363.48,fixation,1,351,,0.0,NoMusic
1625922364.98,stimulus,1,352,,0.0,NoMusic
1625922365.526,fixation,1,352,0.046,1.0,NoMusic
1625922366.98,stimulus,1,353,,0.0,NoMusic
1625922367.517,fixation,1,353,0.037,1.0,NoMusic
1625922368.98,stimulus,1,354,,0.0,NoMusic
1625922369.8140001,fixation,1,354,0.334,1.0,NoMusic
1625922370.98,stimulus,1,355,,0.0,NoMusic
1625922371.48,fixation,1,355,,0.0,NoMusic
1625922373.401,stimulus,1,356,0.421,1.0,NoMusic
1625922373.48,fixation,1,356,,0.0,NoMusic
1625922374.98,stimulus,1,357,,0.0,NoMusic
1625922375.749,fixation,1,357,0.269,1.0,NoMusic
1625922376.98,stimulus,1,358,,0.0,NoMusic
1625922377.629,fixation,1,358,0.149,0.0,NoMusic
1625922378.98,stimulus,1,359,,0.0,NoMusic
1625922380.011,fixation,1,359,0.531,1.0,NoMusic
1625922380.98,stimulus,1,360,,0.0,NoMusic
1625922381.655,fixation,1,360,0.175,1.0,NoMusic
1625922383.309,stimulus,1,361,0.329,0.0,NoMusic
1625922383.48,fixation,1,361,,0.0,NoMusic
1625922385.477,stimulus,1,362,0.497,1.0,NoMusic
1625922385.48,fixation,1,362,,0.0,NoMusic
1625922386.98,stimulus,1,363,,0.0,NoMusic
1625922387.551,fixation,1,363,0.071,1.0,NoMusic
1625922389.392,stimulus,1,364,0.412,0.0,NoMusic
1625922389.48,fixation,1,364,,0.0,NoMusic
1625922391.376,stimulus,1,365,0.396,1.0,NoMusic
1625922391.48,fixation,1,365,,0.0,NoMusic
1625922392.98,stimulus,1,366,,0.0,NoMusic
1625922393.48,fixation,1,366,,0.0,NoMusic
1625922395.476,stimulus,1,367,0.496,1.0,NoMusic
1625922395.48,fixation,1,367,,0.0,NoMusic
1625922396.98,stimulus,1,368,,0.0,NoMusic
1625922397.626,fixation,1,368,0.146,1.0,NoMusic
1625922399.343,stimulus,1,369,0.363,1.0,NoMusic
1625922399.48,fixation,1,369,,0.0,NoMusic
1625922401.424,stimulus,1,370,0.444,1.0,NoMusic
1625922401.48,fixation,1,370,,0.0,NoMusic
1625922402.98,stimulus,1,371,,0.0,NoMusic
1625922403.493,fixation,1,371,0.013,1.0,NoMusic
1625922404.98,stimulus,1,372,,0.0,NoMusic
1625922405.775,fixation,1,372,0.295,1.0,NoMusic
1625922406.98,stimulus,1,373,,0.0,NoMusic
1625922407.565,fixation,1,373,0.085,1.0,NoMusic
1625922409.477,stimulus,1,374,0.497,0.0,NoMusic
1625922409.48,fixation,1,374,,0.0,NoMusic
1625922410.98,stimulus,1,375,,0.0,NoMusic
1625922411.5080001,fixation,1,375,0.028,1.0,NoMusic
1625922412.98,stimulus,1,376,,0.0,NoMusic
1625922413.64,fixation,1,376,0.16,1.0,NoMusic
1625922414.98,stimulus,1,377,,0.0,NoMusic
1625922415.534,fixation,1,377,0.054,1.0,NoMusic
1625922417.4390001,stimulus,1,378,0.459,1.0,NoMusic
1625922417.48,fixation,1,378,,0.0,NoMusic
1625922418.98,stimulus,1,379,,0.0,NoMusic
1625922419.575,fixation,1,379,0.095,1.0,NoMusic
1625922421.438,stimulus,1,380,0.458,1.0,NoMusic
1625922421.48,fixation,1,380,,0.0,NoMusic
1625922423.426,stimulus,1,381,0.446,1.0,NoMusic
1625922423.48,fixation,1,381,,0.0,NoMusic
1625922424.98,stimulus,1,382,,0.0,NoMusic
1625922425.48,fixation,1,382,,0.0,NoMusic
1625922426.98,stimulus,1,383,,0.0,NoMusic
1625922427.48,fixation,1,383,,0.0,NoMusic
1625922429.371,stimulus,1,384,0.391,1.0,NoMusic
1625922429.48,fixation,1,384,,0.0,NoMusic
1625922431.414,stimulus,1,385,0.434,1.0,NoMusic
1625922431.48,fixation,1,385,,0.0,NoMusic
1625922433.3600001,stimulus,1,386,0.38,1.0,NoMusic
1625922433.48,fixation,1,386,,0.0,NoMusic
1625922435.365,stimulus,1,387,0.385,1.0,NoMusic
1625922435.48,fixation,1,387,,0.0,NoMusic
1625922437.3700001,stimulus,1,388,0.39,1.0,NoMusic
1625922437.48,fixation,1,388,,0.0,NoMusic
1625922439.443,stimulus,1,389,0.463,1.0,NoMusic
1625922439.48,fixation,1,389,,0.0,NoMusic
1625922440.98,stimulus,1,390,,0.0,NoMusic
1625922441.5080001,fixation,1,390,0.028,1.0,NoMusic
1625922442.98,stimulus,1,391,,0.0,NoMusic
1625922443.546,fixation,1,391,0.066,1.0,NoMusic
1625922444.98,stimulus,1,392,,0.0,NoMusic
1625922445.48,fixation,1,392,,0.0,NoMusic
1625922447.452,stimulus,1,393,0.472,1.0,NoMusic
1625922447.48,fixation,1,393,,0.0,NoMusic
1625922449.401,stimulus,1,394,0.421,1.0,NoMusic
1625922449.48,fixation,1,394,,0.0,NoMusic
1625922451.364,stimulus,1,395,0.384,1.0,NoMusic
1625922451.48,fixation,1,395,,0.0,NoMusic
1625922453.436,stimulus,1,396,0.456,1.0,NoMusic
1625922453.48,fixation,1,396,,0.0,NoMusic
1625922455.349,stimulus,1,397,0.369,1.0,NoMusic
1625922455.48,fixation,1,397,,0.0,NoMusic
1625922456.98,stimulus,1,398,,,RelaxSession
1625922457.48,fixation,1,398,,,RelaxSession
1625922458.98,stimulus,1,399,,,RelaxSession
1625922459.48,fixation,1,399,,,RelaxSession
1625922460.98,stimulus,1,400,,,RelaxSession
1625922461.48,fixation,1,400,,,RelaxSession
1625922462.98,stimulus,1,401,,,RelaxSession
1625922463.48,fixation,1,401,,,RelaxSession
1625922464.98,stimulus,1,402,,,RelaxSession
1625922465.48,fixation,1,402,,,RelaxSession
1625922466.98,stimulus,1,403,,,RelaxSession
1625922467.48,fixation,1,403,,,RelaxSession
1625922468.98,stimulus,1,404,,,RelaxSession
1625922469.48,fixation,1,404,,,RelaxSession
1625922470.98,stimulus,1,405,,,RelaxSession
1625922471.48,fixation,1,405,,,RelaxSession
1625922472.98,stimulus,1,406,,,RelaxSession
1625922473.48,fixation,1,406,,,RelaxSession
1625922474.98,stimulus,1,407,,,RelaxSession
1625922475.48,fixation,1,407,,,RelaxSession
1625922476.98,stimulus,1,408,,,RelaxSession
1625922477.48,fixation,1,408,,,RelaxSession
1625922478.98,stimulus,1,409,,,RelaxSession
1625922479.48,fixation,1,409,,,RelaxSession
1625922480.98,stimulus,1,410,,,RelaxSession
1625922481.48,fixation,1,410,,,RelaxSession
1625922482.98,stimulus,1,411,,,RelaxSession
1625922483.48,fixation,1,411,,,RelaxSession
1625922484.98,stimulus,1,412,,,RelaxSession
1625922485.48,fixation,1,412,,,RelaxSession
1625922486.98,stimulus,1,413,,,RelaxSession
1625922487.48,fixation,1,413,,,RelaxSession
1625922488.98,stimulus,1,414,,,RelaxSession
1625922489.48,fixation,1,414,,,RelaxSession
1625922490.98,stimulus,1,415,,,RelaxSession
1625922491.48,fixation,1,415,,,RelaxSession
1625922492.98,stimulus,1,416,,,RelaxSession
1625922493.48,fixation,1,416,,,RelaxSession
1625922494.98,stimulus,1,417,,,RelaxSession
1625922495.48,fixation,1,417,,,RelaxSession
1625922496.98,stimulus,1,418,,,RelaxSession
1625922497.48,fixation,1,418,,,RelaxSession
1625922498.98,stimulus,1,419,,,RelaxSession
1625922499.48,fixation,1,419,,,RelaxSession
1625922500.98,stimulus,1,420,,,RelaxSession
1625922501.48,fixation,1,420,,,RelaxSession
1625922502.98,stimulus,1,421,,,RelaxSession
1625922503.48,fixation,1,421,,,RelaxSession
1625922504.98,stimulus,1,422,,,RelaxSession
1625922505.48,fixation,1,422,,,RelaxSession
1625922506.98,stimulus,1,423,,,RelaxSession
1625922507.48,fixation,1,423,,,RelaxSession
1625922508.98,stimulus,1,424,,,RelaxSession
1625922509.48,fixation,1,424,,,RelaxSession
1625922510.98,stimulus,1,425,,,RelaxSession
1625922511.48,fixation,1,425,,,RelaxSession
1625922512.98,stimulus,1,426,,,RelaxSession
1625922513.48,fixation,1,426,,,RelaxSession
1625922514.98,stimulus,1,427,,,RelaxSession
1625922515.48,fixation,1,427,,,RelaxSession
1625922516.98,stimulus,1,428,,,RelaxSession
1625922517.48,fixation,1,428,,,RelaxSession
1625922518.98,stimulus,1,429,,,RelaxSession
1625922519.48,fixation,1,429,,,RelaxSession
1625922520.98,stimulus,1,430,,,RelaxSession
1625922521.48,fixation,1,430,,,RelaxSession
1625922522.98,stimulus,1,431,,,RelaxSession
1625922523.48,fixation,1,431,,,RelaxSession
1625922524.98,stimulus,1,432,,,RelaxSession
1625922525.48,fixation,1,432,,,RelaxSession
1625922526.98,stimulus,1,433,,,RelaxSession
1625922527.48,fixation,1,433,,,RelaxSession
1625922528.98,stimulus,1,434,,,RelaxSession
1625922529.48,fixation,1,434,,,RelaxSession
1625922530.98,stimulus,1,435,,,RelaxSession
1625922531.48,fixation,1,435,,,RelaxSession
1625922532.98,stimulus,1,436,,,RelaxSession
1625922533.48,fixation,1,436,,,RelaxSession
1625922534.98,stimulus,1,437,,,RelaxSession
1625922535.48,fixation,1,437,,,RelaxSession
1625922536.98,stimulus,1,438,,,RelaxSession
1625922537.48,fixation,1,438,,,RelaxSession
1625922538.98,stimulus,1,439,,,RelaxSession
1625922539.48,fixation,1,439,,,RelaxSession
1625922540.98,stimulus,1,440,,,RelaxSession
1625922541.48,fixation,1,440,,,RelaxSession
1625922542.98,stimulus,1,441,,,RelaxSession
1625922543.48,fixation,1,441,,,RelaxSession
1625922544.98,stimulus,1,442,,,RelaxSession
1625922545.48,fixation,1,442,,,RelaxSession
1625922546.98,stimulus,1,443,,,RelaxSession
1625922547.48,fixation,1,443,,,RelaxSession
1625922548.98,stimulus,1,444,,,RelaxSession
1625922549.48,fixation,1,444,,,RelaxSession
1625922550.98,stimulus,1,445,,,RelaxSession
1625922551.48,fixation,1,445,,,RelaxSession
1625922552.98,stimulus,1,446,,,RelaxSession
1625922553.48,fixation,1,446,,,RelaxSession
1625922554.98,stimulus,1,447,,,RelaxSession
1625922555.48,fixation,1,447,,,RelaxSession
1625922556.98,stimulus,1,448,,,RelaxSession
1625922557.48,fixation,1,448,,,RelaxSession
1625922558.98,stimulus,1,449,,,RelaxSession
1625922559.48,fixation,1,449,,,RelaxSession
1625922560.98,stimulus,1,450,,,RelaxSession
1625922561.48,fixation,1,450,,,RelaxSession
1625922562.98,stimulus,1,451,,,RelaxSession
1625922563.48,fixation,1,451,,,RelaxSession
1625922564.98,stimulus,1,452,,,RelaxSession
1625922565.48,fixation,1,452,,,RelaxSession
1625922566.98,stimulus,1,453,,,RelaxSession
1625922567.48,fixation,1,453,,,RelaxSession
1625922568.98,stimulus,1,454,,,RelaxSession
1625922569.48,fixation,1,454,,,RelaxSession
1625922570.98,stimulus,1,455,,,RelaxSession
1625922571.48,fixation,1,455,,,RelaxSession
1625922572.98,stimulus,1,456,,,RelaxSession
1625922573.48,fixation,1,456,,,RelaxSession
1625922574.98,stimulus,1,457,,,RelaxSession
1625922575.48,fixation,1,457,,,RelaxSession
1625922576.98,stimulus,1,458,,,RelaxSession
1625922577.48,fixation,1,458,,,RelaxSession
1625922578.98,stimulus,1,459,,,RelaxSession
1625922579.48,fixation,1,459,,,RelaxSession
1625922580.98,stimulus,1,460,,,RelaxSession
1625922581.48,fixation,1,460,,,RelaxSession
1625922582.98,stimulus,1,461,,,RelaxSession
1625922583.48,fixation,1,461,,,RelaxSession
1625922584.98,stimulus,1,462,,,RelaxSession
1625922585.48,fixation,1,462,,,RelaxSession
1625922586.98,stimulus,1,463,,,RelaxSession
1625922587.48,fixation,1,463,,,RelaxSession
1625922588.98,stimulus,1,464,,,RelaxSession
1625922589.48,fixation,1,464,,,RelaxSession
1625922590.98,stimulus,1,465,,,RelaxSession
1625922591.48,fixation,1,465,,,RelaxSession
1625922592.98,stimulus,1,466,,,RelaxSession
1625922593.48,fixation,1,466,,,RelaxSession
1625922594.98,stimulus,1,467,,,RelaxSession
1625922595.48,fixation,1,467,,,RelaxSession
1625922596.98,stimulus,1,468,,,RelaxSession
1625922597.48,fixation,1,468,,,RelaxSession
1625922598.98,stimulus,1,469,,,RelaxSession
1625922599.48,fixation,1,469,,,RelaxSession
1625922600.98,stimulus,1,470,,,RelaxSession
1625922601.48,fixation,1,470,,,RelaxSession
1625922602.98,stimulus,1,471,,,RelaxSession
1625922603.48,fixation,1,471,,,RelaxSession
1625922604.98,stimulus,1,472,,,RelaxSession
1625922605.48,fixation,1,472,,,RelaxSession
1625922606.98,stimulus,1,473,,,RelaxSession
1625922607.48,fixation,1,473,,,RelaxSession
1625922608.98,stimulus,1,474,,,RelaxSession
1625922609.48,fixation,1,474,,,RelaxSession
1625922610.98,stimulus,1,475,,,RelaxSession
1625922611.48,fixation,1,475,,,RelaxSession
1625922612.98,stimulus,1,476,,,RelaxSession
1625922613.48,fixation,1,476,,,RelaxSession
1625922614.98,stimulus,1,477,,,RelaxSession
1625922615.48,fixation,1,477,,,RelaxSession
1625922616.98,stimulus,1,478,,,RelaxSession
1625922617.48,fixation,1,478,,,RelaxSession
1625922618.98,stimulus,1,479,,,RelaxSession
1625922619.48,fixation,1,479,,,RelaxSession
1625922620.98,stimulus,1,480,,,RelaxSession
1625922621.48,fixation,1,480,,,RelaxSession
1625922622.98,stimulus,1,481,,,RelaxSession
1625922623.48,fixation,1,481,,,RelaxSession
1625922624.98,stimulus,1,482,,,RelaxSession
1625922625.48,fixation,1,482,,,RelaxSession
1625922626.98,stimulus,1,483,,,RelaxSession
1625922627.48,fixation,1,483,,,RelaxSession
1625922628.98,stimulus,1,484,,,RelaxSession
1625922629.48,fixation,1,484,,,RelaxSession
1625922630.98,stimulus,1,485,,,RelaxSession
1625922631.48,fixation,1,485,,,RelaxSession
1625922632.98,stimulus,1,486,,,RelaxSession
1625922633.48,fixation,1,486,,,RelaxSession
1625922634.98,stimulus,1,487,,,RelaxSession
1625922635.48,fixation,1,487,,,RelaxSession
1625922636.98,stimulus,1,488,,,RelaxSession
1625922637.23,stimulus,2,1,,,PracticeSession
1625922637.48,fixation,1,488,,,RelaxSession
1625922637.73,fixation,2,1,,,PracticeSession
1625922638.98,stimulus,1,489,,,RelaxSession
1625922639.23,stimulus,2,2,,,PracticeSession
1625922639.48,fixation,1,489,,,RelaxSession
1625922639.73,fixation,2,2,,,PracticeSession
1625922640.98,stimulus,1,490,,,RelaxSession
1625922641.23,stimulus,2,3,,,PracticeSession
1625922641.48,fixation,1,490,,,RelaxSession
1625922641.73,fixation,2,3,,,PracticeSession
1625922642.98,stimulus,1,491,,,RelaxSession
1625922643.23,stimulus,2,4,,,PracticeSession
1625922643.48,fixation,1,491,,,RelaxSession
1625922643.73,fixation,2,4,,,PracticeSession
1625922644.98,stimulus,1,492,,,RelaxSession
1625922645.23,stimulus,2,5,,,PracticeSession
1625922645.48,fixation,1,492,,,RelaxSession
1625922645.73,fixation,2,5,,,PracticeSession
1625922646.98,stimulus,1,493,,,RelaxSession
1625922647.23,stimulus,2,6,,,PracticeSession
1625922647.48,fixation,1,493,,,RelaxSession
1625922647.73,fixation,2,6,,,PracticeSession
1625922648.98,stimulus,1,494,,,RelaxSession
1625922649.23,stimulus,2,7,,,PracticeSession
1625922649.48,fixation,1,494,,,RelaxSession
1625922649.73,fixation,2,7,,,PracticeSession
1625922650.98,stimulus,1,495,,,RelaxSession
1625922651.23,stimulus,2,8,,,PracticeSession
1625922651.48,fixation,1,495,,,RelaxSession
1625922651.73,fixation,2,8,,,PracticeSession
1625922652.98,stimulus,1,496,,,RelaxSession
1625922653.23,stimulus,2,9,,,PracticeSession
1625922653.48,fixation,1,496,,,RelaxSession
1625922653.73,fixation,2,9,,,PracticeSession
1625922654.98,stimulus,1,497,,,RelaxSession
1625922655.23,stimulus,2,10,,,PracticeSession
1625922655.48,fixation,1,497,,,RelaxSession
1625922655.73,fixation,2,10,,,PracticeSession
1625922656.98,stimulus,1,498,,,RelaxSession
1625922657.23,stimulus,2,11,,,PracticeSession
1625922657.48,fixation,1,498,,,RelaxSession
1625922657.73,fixation,2,11,,,PracticeSession
1625922658.98,stimulus,1,499,,,RelaxSession
1625922659.23,stimulus,2,12,,,PracticeSession
1625922659.48,fixation,1,499,,,RelaxSession
1625922659.73,fixation,2,12,,,PracticeSession
1625922660.98,stimulus,1,500,,,RelaxSession
1625922661.23,stimulus,2,13,,,PracticeSession
1625922661.48,fixation,1,500,,,RelaxSession
1625922661.73,fixation,2,13,,,PracticeSession
1625922662.98,stimulus,1,501,,,RelaxSession
1625922663.23,stimulus,2,14,,,PracticeSession
1625922663.48,fixation,1,501,,,RelaxSession
1625922663.73,fixation,2,14,,,PracticeSession
1625922664.98,stimulus,1,502,,,RelaxSession
1625922665.23,stimulus,2,15,,,PracticeSession
1625922665.48,fixation,1,502,,,RelaxSession
1625922665.73,fixation,2,15,,,PracticeSession
1625922666.98,stimulus,1,503,,,RelaxSession
1625922667.23,stimulus,2,16,,,PracticeSession
1625922667.48,fixation,1,503,,,RelaxSession
1625922667.73,fixation,2,16,,,PracticeSession
1625922668.98,stimulus,1,504,,,RelaxSession
1625922669.23,stimulus,2,17,,,PracticeSession
1625922669.48,fixation,1,504,,,RelaxSession
1625922669.73,fixation,2,17,,,PracticeSession
1625922670.98,stimulus,1,505,,,RelaxSession
1625922671.23,stimulus,2,18,,,PracticeSession
1625922671.48,fixation,1,505,,,RelaxSession
1625922671.73,fixation,2,18,,,PracticeSession
1625922672.98,stimulus,1,506,,,RelaxSession
1625922673.23,stimulus,2,19,,,PracticeSession
1625922673.48,fixation,1,506,,,RelaxSession
1625922673.73,fixation,2,19,,,PracticeSession
1625922674.98,stimulus,1,507,,,RelaxSession
1625922675.23,stimulus,2,20,,,PracticeSession
1625922675.48,fixation,1,507,,,RelaxSession
1625922675.73,fixation,2,20,,,PracticeSession
1625922676.98,stimulus,1,508,,,RelaxSession
1625922677.23,stimulus,2,21,,,PracticeSession
1625922677.48,fixation,1,508,,,RelaxSession
1625922677.73,fixation,2,21,,,PracticeSession
1625922678.98,stimulus,1,509,,,RelaxSession
1625922679.23,stimulus,2,22,,,PracticeSession
1625922679.48,fixation,1,509,,,RelaxSession
1625922679.73,fixation,2,22,,,PracticeSession
1625922680.98,stimulus,1,510,,,RelaxSession
1625922681.23,stimulus,2,23,,,PracticeSession
1625922681.48,fixation,1,510,,,RelaxSession
1625922681.73,fixation,2,23,,,PracticeSession
1625922682.98,stimulus,1,511,,,RelaxSession
1625922683.23,stimulus,2,24,,,PracticeSession
1625922683.48,fixation,1,511,,,RelaxSession
1625922683.73,fixation,2,24,,,PracticeSession
1625922684.98,stimulus,1,512,,,RelaxSession
1625922685.23,stimulus,2,25,,,PracticeSession
1625922685.48,fixation,1,512,,,RelaxSession
1625922685.73,fixation,2,25,,,PracticeSession
1625922686.98,stimulus,1,513,,,RelaxSession
1625922687.23,stimulus,2,26,,,PracticeSession
1625922687.48,fixation,1,513,,,RelaxSession
1625922687.73,fixation,2,26,,,PracticeSession
1625922688.98,stimulus,1,514,,,RelaxSession
1625922689.23,stimulus,2,27,,,PracticeSession
1625922689.48,fixation,1,514,,,RelaxSession
1625922689.73,fixation,2,27,,,PracticeSession
1625922690.98,stimulus,1,515,,,RelaxSession
1625922691.23,stimulus,2,28,,,PracticeSession
1625922691.48,fixation,1,515,,,RelaxSession
1625922691.73,fixation,2,28,,,PracticeSession
1625922692.98,stimulus,1,516,,,RelaxSession
1625922693.23,stimulus,2,29,,,PracticeSession
1625922693.48,fixation,1,516,,,RelaxSession
1625922693.73,fixation,2,29,,,PracticeSession
1625922694.98,stimulus,1,517,,,RelaxSession
1625922695.23,stimulus,2,30,,,PracticeSession
1625922695.48,fixation,1,517,,,RelaxSession
1625922695.73,fixation,2,30,,,PracticeSession
1625922696.98,stimulus,1,518,,,RelaxSession
1625922697.23,stimulus,2,31,,,PracticeSession
1625922697.48,fixation,1,518,,,RelaxSession
1625922697.73,fixation,2,31,,,PracticeSession
1625922698.98,stimulus,1,519,,,RelaxSession
1625922699.23,stimulus,2,32,,,PracticeSession
1625922699.48,fixation,1,519,,,RelaxSession
1625922699.73,fixation,2,32,,,PracticeSession
1625922700.98,stimulus,1,520,,,RelaxSession
1625922701.23,stimulus,2,33,,,PracticeSession
1625922701.48,fixation,1,520,,,RelaxSession
1625922701.73,fixation,2,33,,,PracticeSession
1625922702.98,stimulus,1,521,,,RelaxSession
1625922703.23,stimulus,2,34,,,PracticeSession
1625922703.48,fixation,1,521,,,RelaxSession
1625922703.73,fixation,2,34,,,PracticeSession
1625922704.98,stimulus,1,522,,,RelaxSession
1625922705.23,stimulus,2,35,,,PracticeSession
1625922705.48,fixation,1,522,,,RelaxSession
1625922705.73,fixation,2,35,,,PracticeSession
1625922706.98,stimulus,1,523,,,RelaxSession
1625922707.23,stimulus,2,36,,,PracticeSession
1625922707.48,fixation,1,523,,,RelaxSession
1625922707.73,fixation,2,36,,,PracticeSession
1625922708.98,stimulus,1,524,,,RelaxSession
1625922709.23,stimulus,2,37,,,PracticeSession
1625922709.48,fixation,1,524,,,RelaxSession
1625922709.73,fixation,2,37,,,PracticeSession
1625922710.98,stimulus,1,525,,,RelaxSession
1625922711.23,stimulus,2,38,,,PracticeSession
1625922711.48,fixation,1,525,,,RelaxSession
1625922711.73,fixation,2,38,,,PracticeSession
1625922712.98,stimulus,1,526,,,RelaxSession
1625922713.23,stimulus,2,39,,,PracticeSession
1625922713.48,fixation,1,526,,,RelaxSession
1625922713.73,fixation,2,39,,,PracticeSession
1625922714.98,stimulus,1,527,,,RelaxSession
1625922715.23,stimulus,2,40,,,PracticeSession
1625922715.48,fixation,1,527,,,RelaxSession
1625922715.73,fixation,2,40,,,PracticeSession
1625922716.98,stimulus,1,528,,,RelaxSession
1625922717.23,stimulus,2,41,,,PracticeSession
1625922717.48,fixation,1,528,,,RelaxSession
1625922717.73,fixation,2,41,,,PracticeSession
1625922718.98,stimulus,1,529,,,RelaxSession
1625922719.23,stimulus,2,42,,,PracticeSession
1625922719.48,fixation,1,529,,,RelaxSession
1625922719.73,fixation,2,42,,,PracticeSession
1625922720.98,stimulus,1,530,,,RelaxSession
1625922721.23,stimulus,2,43,,,PracticeSession
1625922721.48,fixation,1,530,,,RelaxSession
1625922721.73,fixation,2,43,,,PracticeSession
1625922722.98,stimulus,1,531,,,RelaxSession
1625922723.23,stimulus,2,44,,,PracticeSession
1625922723.48,fixation,1,531,,,RelaxSession
1625922723.73,fixation,2,44,,,PracticeSession
1625922724.98,stimulus,1,532,,,RelaxSession
1625922725.23,stimulus,2,45,,,NoMusic
1625922725.48,fixation,1,532,,,RelaxSession
1625922725.73,fixation,2,45,,,NoMusic
1625922726.98,stimulus,1,533,,,RelaxSession
1625922727.23,stimulus,2,46,,,NoMusic
1625922727.48,fixation,1,533,,,RelaxSession
1625922727.73,fixation,2,46,,,NoMusic
1625922728.98,stimulus,1,534,,,RelaxSession
1625922729.23,stimulus,2,47,,,NoMusic
1625922729.48,fixation,1,534,,,RelaxSession
1625922729.73,fixation,2,47,,,NoMusic
1625922730.98,stimulus,1,535,,,RelaxSession
1625922731.23,stimulus,2,48,,,NoMusic
1625922731.48,fixation,1,535,,,RelaxSession
1625922731.73,fixation,2,48,,,NoMusic
1625922732.98,stimulus,1,536,,,RelaxSession
1625922733.23,stimulus,2,49,,,NoMusic
1625922733.48,fixation,1,536,,,RelaxSession
1625922733.73,fixation,2,49,,,NoMusic
1625922734.98,stimulus,1,537,,,RelaxSession
1625922735.23,stimulus,2,50,,,NoMusic
1625922735.48,fixation,1,537,,,RelaxSession
1625922735.73,fixation,2,50,,,NoMusic
1625922736.98,stimulus,1,538,,,RelaxSession
1625922737.23,stimulus,2,51,,,NoMusic
1625922737.48,fixation,1,538,,,RelaxSession
1625922737.73,fixation,2,51,,,NoMusic
1625922738.98,stimulus,1,539,,,RelaxSession
1625922739.23,stimulus,2,52,,,NoMusic
1625922739.48,fixation,1,539,,,RelaxSession
1625922739.73,fixation,2,52,,,NoMusic
1625922740.98,stimulus,1,540,,,RelaxSession
1625922741.23,stimulus,2,53,,,NoMusic
1625922741.48,fixation,1,540,,,RelaxSession
1625922741.73,fixation,2,53,,,NoMusic
1625922742.98,stimulus,1,541,,,RelaxSession
1625922743.23,stimulus,2,54,,,NoMusic
1625922743.48,fixation,1,541,,,RelaxSession
1625922743.73,fixation,2,54,,,NoMusic
1625922744.98,stimulus,1,542,,,RelaxSession
1625922745.23,stimulus,2,55,,,NoMusic
1625922745.48,fixation,1,542,,,RelaxSession
1625922745.73,fixation,2,55,,,NoMusic
1625922746.98,stimulus,1,543,,,RelaxSession
1625922747.23,stimulus,2,56,,,NoMusic
1625922747.48,fixation,1,543,,,RelaxSession
1625922747.73,fixation,2,56,,,NoMusic
1625922748.98,stimulus,1,544,,,RelaxSession
1625922749.23,stimulus,2,57,,,NoMusic
1625922749.48,fixation,1,544,,,RelaxSession
1625922749.73,fixation,2,57,,,NoMusic
1625922750.98,stimulus,1,545,,,RelaxSession
1625922751.23,stimulus,2,58,,,NoMusic
1625922751.48,fixation,1,545,,,RelaxSession
1625922751.73,fixation,2,58,,,NoMusic
1625922752.98,stimulus,1,546,,,RelaxSession
1625922753.23,stimulus,2,59,,,NoMusic
1625922753.48,fixation,1,546,,,RelaxSession
1625922753.73,fixation,2,59,,,NoMusic
1625922754.98,stimulus,1,547,,,RelaxSession
1625922755.23,stimulus,2,60,,,NoMusic
1625922755.48,fixation,1,547,,,RelaxSession
1625922755.73,fixation,2,60,,,NoMusic
1625922756.98,stimulus,1,548,,,RelaxSession
1625922757.23,stimulus,2,61,,,NoMusic
1625922757.48,fixation,1,548,,,RelaxSession
1625922757.73,fixation,2,61,,,NoMusic
1625922758.98,stimulus,1,549,,,RelaxSession
1625922759.23,stimulus,2,62,,,NoMusic
1625922759.48,fixation,1,549,,,RelaxSession
1625922759.73,fixation,2,62,,,NoMusic
1625922760.98,stimulus,1,550,,,RelaxSession
1625922761.23,stimulus,2,63,,,NoMusic
1625922761.48,fixation,1,550,,,RelaxSession
1625922761.73,fixation,2,63,,,NoMusic
1625922762.98,stimulus,1,551,,,RelaxSession
1625922763.23,stimulus,2,64,,,NoMusic
1625922763.48,fixation,1,551,,,RelaxSession
1625922763.73,fixation,2,64,,,NoMusic
1625922764.98,stimulus,1,552,,,RelaxSession
1625922765.23,stimulus,2,65,,,NoMusic
1625922765.48,fixation,1,552,,,RelaxSession
1625922765.73,fixation,2,65,,,NoMusic
1625922766.98,stimulus,1,553,,,RelaxSession
1625922767.23,stimulus,2,66,,,NoMusic
1625922767.48,fixation,1,553,,,RelaxSession
1625922767.73,fixation,2,66,,,NoMusic
1625922768.98,stimulus,1,554,,,RelaxSession
1625922769.23,stimulus,2,67,,,NoMusic
1625922769.48,fixation,1,554,,,RelaxSession
1625922769.73,fixation,2,67,,,NoMusic
1625922770.98,stimulus,1,555,,,RelaxSession
1625922771.23,stimulus,2,68,,,NoMusic
1625922771.48,fixation,1,555,,,RelaxSession
1625922771.73,fixation,2,68,,,NoMusic
1625922772.98,stimulus,1,556,,,RelaxSession
1625922773.23,stimulus,2,69,,,NoMusic
1625922773.48,fixation,1,556,,,RelaxSession
1625922773.73,fixation,2,69,,,NoMusic
1625922774.98,stimulus,1,557,,,RelaxSession
1625922775.23,stimulus,2,70,,,NoMusic
1625922775.48,fixation,1,557,,,RelaxSession
1625922775.73,fixation,2,70,,,NoMusic
1625922776.98,stimulus,1,558,,,RelaxSession
1625922777.23,stimulus,2,71,,,NoMusic
1625922777.48,fixation,1,558,,,RelaxSession
1625922777.73,fixation,2,71,,,NoMusic
1625922778.98,stimulus,1,559,,,RelaxSession
1625922779.23,stimulus,2,72,,,NoMusic
1625922779.48,fixation,1,559,,,RelaxSession
1625922779.73,fixation,2,72,,,NoMusic
1625922780.98,stimulus,1,560,,,RelaxSession
1625922781.23,stimulus,2,73,,,NoMusic
1625922781.48,fixation,1,560,,,RelaxSession
1625922781.73,fixation,2,73,,,NoMusic
1625922782.98,stimulus,1,561,,,RelaxSession
1625922783.23,stimulus,2,74,,,NoMusic
1625922783.48,fixation,1,561,,,RelaxSession
1625922783.73,fixation,2,74,,,NoMusic
1625922784.98,stimulus,1,562,,,RelaxSession
1625922785.23,stimulus,2,75,,,NoMusic
1625922785.48,fixation,1,562,,,RelaxSession
1625922785.73,fixation,2,75,,,NoMusic
1625922786.98,stimulus,1,563,,,RelaxSession
1625922787.23,stimulus,2,76,,,NoMusic
1625922787.48,fixation,1,563,,,RelaxSession
1625922787.73,fixation,2,76,,,NoMusic
1625922788.98,stimulus,1,564,,,RelaxSession
1625922789.23,stimulus,2,77,,,NoMusic
1625922789.48,fixation,1,564,,,RelaxSession
1625922789.73,fixation,2,77,,,NoMusic
1625922790.98,stimulus,1,565,,,RelaxSession
1625922791.23,stimulus,2,78,,,NoMusic
1625922791.48,fixation,1,565,,,RelaxSession
1625922791.73,fixation,2,78,,,NoMusic
1625922792.98,stimulus,1,566,,,RelaxSession
1625922793.23,stimulus,2,79,,,NoMusic
1625922793.48,fixation,1,566,,,RelaxSession
1625922793.73,fixation,2,79,,,NoMusic
1625922794.98,stimulus,1,567,,,RelaxSession
1625922795.23,stimulus,2,80,,,NoMusic
1625922795.48,fixation,1,567,,,RelaxSession
1625922795.73,fixation,2,80,,,NoMusic
1625922796.98,stimulus,1,568,,,RelaxSession
1625922797.23,stimulus,2,81,,,NoMusic
1625922797.48,fixation,1,568,,,RelaxSession
1625922797.73,fixation,2,81,,,NoMusic
1625922798.98,stimulus,1,569,,,RelaxSession
1625922799.23,stimulus,2,82,,,NoMusic
1625922799.48,fixation,1,569,,,RelaxSession
1625922799.73,fixation,2,82,,,NoMusic
1625922800.98,stimulus,1,570,,,RelaxSession
1625922801.23,stimulus,2,83,,,NoMusic
1625922801.48,fixation,1,570,,,RelaxSession
1625922801.73,fixation,2,83,,,NoMusic
1625922802.98,stimulus,1,571,,,RelaxSession
1625922803.23,stimulus,2,84,,,NoMusic
1625922803.48,fixation,1,571,,,RelaxSession
1625922803.73,fixation,2,84,,,NoMusic
1625922804.98,stimulus,1,572,,,RelaxSession
1625922805.23,stimulus,2,85,,,NoMusic
1625922805.48,fixation,1,572,,,RelaxSession
1625922805.73,fixation,2,85,,,NoMusic
1625922806.98,stimulus,1,573,,,RelaxSession
1625922807.23,stimulus,2,86,,,NoMusic
1625922807.48,fixation,1,573,,,RelaxSession
1625922807.73,fixation,2,86,,,NoMusic
1625922808.98,stimulus,1,574,,,RelaxSession
1625922809.23,stimulus,2,87,,,NoMusic
1625922809.48,fixation,1,574,,,RelaxSession
1625922809.73,fixation,2,87,,,NoMusic
1625922810.98,stimulus,1,575,,,RelaxSession
1625922811.23,stimulus,2,88,,,NoMusic
1625922811.48,fixation,1,575,,,RelaxSession
1625922811.73,fixation,2,88,,,NoMusic
1625922812.98,stimulus,1,576,,,RelaxSession
1625922813.23,stimulus,2,89,,,NoMusic
1625922813.48,fixation,1,576,,,RelaxSession
1625922813.73,fixation,2,89,,,NoMusic
1625922814.98,stimulus,1,577,,,RelaxSession
1625922815.23,stimulus,2,90,,,NoMusic
1625922815.48,fixation,1,577,,,RelaxSession
1625922815.73,fixation,2,90,,,NoMusic
1625922816.98,stimulus,1,578,,,RelaxSession
1625922817.23,stimulus,2,91,,,NoMusic
1625922817.48,fixation,1,578,,,RelaxSession
1625922817.73,fixation,2,91,,,NoMusic
1625922818.98,stimulus,1,579,,,RelaxSession
1625922819.23,stimulus,2,92,,,NoMusic
1625922819.48,fixation,1,579,,,RelaxSession
1625922819.73,fixation,2,92,,,NoMusic
1625922820.98,stimulus,1,580,,,RelaxSession
1625922821.23,stimulus,2,93,,,NoMusic
1625922821.48,fixation,1,580,,,RelaxSession
1625922821.73,fixation,2,93,,,NoMusic
1625922822.98,stimulus,1,581,,,RelaxSession
1625922823.23,stimulus,2,94,,,NoMusic
1625922823.48,fixation,1,581,,,RelaxSession
1625922823.73,fixation,2,94,,,NoMusic
1625922824.98,stimulus,1,582,,,RelaxSession
1625922824.98,stimulus,3,1,,,PracticeSession
1625922825.23,stimulus,2,95,,,NoMusic
1625922825.48,fixation,3,1,,,PracticeSession
1625922825.48,fixation,1,582,,,RelaxSession
1625922825.73,fixation,2,95,,,NoMusic
1625922826.98,stimulus,1,583,,,RelaxSession
1625922826.98,stimulus,3,2,,,PracticeSession
1625922827.23,stimulus,2,96,,,NoMusic
1625922827.48,fixation,3,2,,,PracticeSession
1625922827.48,fixation,1,583,,,RelaxSession
1625922827.73,fixation,2,96,,,NoMusic
1625922828.98,stimulus,1,584,,,RelaxSession
1625922828.98,stimulus,3,3,,,PracticeSession
1625922829.23,stimulus,2,97,,,NoMusic
1625922829.48,fixation,1,584,,,RelaxSession
1625922829.48,fixation,3,3,,,PracticeSession
1625922829.73,fixation,2,97,,,NoMusic
1625922830.98,stimulus,1,585,,,RelaxSession
1625922830.98,stimulus,3,4,,,PracticeSession
1625922831.23,stimulus,2,98,,,NoMusic
1625922831.48,fixation,1,585,,,RelaxSession
1625922831.48,fixation,3,4,,,PracticeSession
1625922831.73,fixation,2,98,,,NoMusic
1625922832.98,stimulus,1,586,,,RelaxSession
1625922832.98,stimulus,3,5,,,PracticeSession
1625922833.23,stimulus,2,99,,,NoMusic
1625922833.48,fixation,3,5,,,PracticeSession
1625922833.48,fixation,1,586,,,RelaxSession
1625922833.73,fixation,2,99,,,NoMusic
1625922834.98,stimulus,3,6,,,PracticeSession
1625922834.98,stimulus,1,587,,,RelaxSession
1625922835.23,stimulus,2,100,,,NoMusic
1625922835.48,fixation,3,6,,,PracticeSession
1625922835.48,fixation,1,587,,,RelaxSession
1625922835.73,fixation,2,100,,,NoMusic
1625922836.98,stimulus,1,588,,,RelaxSession
1625922836.98,stimulus,3,7,,,PracticeSession
1625922837.23,stimulus,2,101,,,NoMusic
1625922837.48,fixation,3,7,,,PracticeSession
1625922837.48,fixation,1,588,,,RelaxSession
1625922837.73,fixation,2,101,,,NoMusic
1625922838.98,stimulus,3,8,,,PracticeSession
1625922838.98,stimulus,1,589,,,RelaxSession
1625922839.23,stimulus,2,102,,,NoMusic
1625922839.48,fixation,3,8,,,PracticeSession
1625922839.48,fixation,1,589,,,RelaxSession
1625922839.73,fixation,2,102,,,NoMusic
1625922840.98,stimulus,1,590,,,RelaxSession
1625922840.98,stimulus,3,9,,,PracticeSession
1625922841.23,stimulus,2,103,,,NoMusic
1625922841.48,fixation,1,590,,,RelaxSession
1625922841.48,fixation,3,9,,,PracticeSession
1625922841.73,fixation,2,103,,,NoMusic
1625922842.98,stimulus,3,10,,,PracticeSession
1625922842.98,stimulus,1,591,,,RelaxSession
1625922843.23,stimulus,2,104,,,NoMusic
1625922843.48,fixation,3,10,,,PracticeSession
1625922843.48,fixation,1,591,,,RelaxSession
1625922843.73,fixation,2,104,,,NoMusic
1625922844.98,stimulus,3,11,,,PracticeSession
1625922844.98,stimulus,1,592,,,RelaxSession
1625922845.23,stimulus,2,105,,,NoMusic
1625922845.48,fixation,3,11,,,PracticeSession
1625922845.48,fixation,1,592,,,RelaxSession
1625922845.73,fixation,2,105,,,NoMusic
1625922846.98,stimulus,3,12,,,PracticeSession
1625922846.98,stimulus,1,593,,,RelaxSession
1625922847.23,stimulus,2,106,,,NoMusic
1625922847.48,fixation,3,12,,,PracticeSession
1625922847.48,fixation,1,593,,,RelaxSession
1625922847.73,fixation,2,106,,,NoMusic
1625922848.98,stimulus,3,13,,,PracticeSession
1625922848.98,stimulus,1,594,,,RelaxSession
1625922849.23,stimulus,2,107,,,NoMusic
1625922849.48,fixation,3,13,,,PracticeSession
1625922849.48,fixation,1,594,,,RelaxSession
1625922849.73,fixation,2,107,,,NoMusic
1625922850.98,stimulus,3,14,,,PracticeSession
1625922850.98,stimulus,1,595,,,RelaxSession
1625922851.23,stimulus,2,108,,,NoMusic
1625922851.48,fixation,1,595,,,RelaxSession
1625922851.48,fixation,3,14,,,PracticeSession
1625922851.73,fixation,2,108,,,NoMusic
1625922852.98,stimulus,1,596,,,RelaxSession
1625922852.98,stimulus,3,15,,,PracticeSession
1625922853.23,stimulus,2,109,,,NoMusic
1625922853.48,fixation,1,596,,,RelaxSession
1625922853.48,fixation,3,15,,,PracticeSession
1625922853.73,fixation,2,109,,,NoMusic
1625922854.98,stimulus,3,16,,,PracticeSession
1625922854.98,stimulus,1,597,,,RelaxSession
1625922855.23,stimulus,2,110,,,NoMusic
1625922855.48,fixation,3,16,,,PracticeSession
1625922855.48,fixation,1,597,,,RelaxSession
1625922855.73,fixation,2,110,,,NoMusic
1625922856.98,stimulus,3,17,,,PracticeSession
1625922856.98,stimulus,1,598,,,RelaxSession
1625922857.23,stimulus,2,111,,,NoMusic
1625922857.48,fixation,3,17,,,PracticeSession
1625922857.48,fixation,1,598,,,RelaxSession
1625922857.73,fixation,2,111,,,NoMusic
1625922858.98,stimulus,1,599,,,RelaxSession
1625922858.98,stimulus,3,18,,,PracticeSession
1625922859.23,stimulus,2,112,,,NoMusic
1625922859.48,fixation,3,18,,,PracticeSession
1625922859.48,fixation,1,599,,,RelaxSession
1625922859.73,fixation,2,112,,,NoMusic
1625922860.98,stimulus,3,19,,,PracticeSession
1625922860.98,stimulus,1,600,,,RelaxSession
1625922861.23,stimulus,2,113,,,NoMusic
1625922861.48,fixation,3,19,,,PracticeSession
1625922861.48,fixation,1,600,,,RelaxSession
1625922861.73,fixation,2,113,,,NoMusic
1625922862.98,stimulus,3,20,,,PracticeSession
1625922862.98,stimulus,1,601,,,RelaxSession
1625922863.23,stimulus,2,114,,,NoMusic
1625922863.48,fixation,3,20,,,PracticeSession
1625922863.48,fixation,1,601,,,RelaxSession
1625922863.73,fixation,2,114,,,NoMusic
1625922864.98,stimulus,1,602,,,RelaxSession
1625922864.98,stimulus,3,21,,,PracticeSession
1625922865.23,stimulus,2,115,,,NoMusic
1625922865.48,fixation,1,602,,,RelaxSession
1625922865.48,fixation,3,21,,,PracticeSession
1625922865.73,fixation,2,115,,,NoMusic
1625922866.98,stimulus,1,603,,,RelaxSession
1625922866.98,stimulus,3,22,,,PracticeSession
1625922867.23,stimulus,2,116,,,NoMusic
1625922867.48,fixation,1,603,,,RelaxSession
1625922867.48,fixation,3,22,,,PracticeSession
1625922867.73,fixation,2,116,,,NoMusic
1625922868.98,stimulus,1,604,,,RelaxSession
1625922868.98,stimulus,3,23,,,PracticeSession
1625922869.23,stimulus,2,117,,,NoMusic
1625922869.48,fixation,1,604,,,RelaxSession
1625922869.48,fixation,3,23,,,PracticeSession
1625922869.73,fixation,2,117,,,NoMusic
1625922870.98,stimulus,1,605,,,RelaxSession
1625922870.98,stimulus,3,24,,,PracticeSession
1625922871.23,stimulus,2,118,,,NoMusic
1625922871.48,fixation,1,605,,,RelaxSession
1625922871.48,fixation,3,24,,,PracticeSession
1625922871.73,fixation,2,118,,,NoMusic
1625922872.98,stimulus,1,606,,,RelaxSession
1625922872.98,stimulus,3,25,,,PracticeSession
1625922873.23,stimulus,2,119,,,NoMusic
1625922873.48,fixation,3,25,,,PracticeSession
1625922873.48,fixation,1,606,,,RelaxSession
1625922873.73,fixation,2,119,,,NoMusic
1625922874.98,stimulus,1,607,,,RelaxSession
1625922874.98,stimulus,3,26,,,PracticeSession
1625922875.23,stimulus,2,120,,,NoMusic
1625922875.48,fixation,1,607,,,RelaxSession
1625922875.48,fixation,3,26,,,PracticeSession
1625922875.73,fixation,2,120,,,NoMusic
1625922876.98,stimulus,3,27,,,PracticeSession
1625922876.98,stimulus,1,608,,,RelaxSession
1625922877.23,stimulus,2,121,,,NoMusic
1625922877.48,fixation,1,608,,,RelaxSession
1625922877.48,fixation,3,27,,,PracticeSession
1625922877.73,fixation,2,121,,,NoMusic
1625922878.98,stimulus,3,28,,,PracticeSession
1625922878.98,stimulus,1,609,,,RelaxSession
1625922879.23,stimulus,2,122,,,NoMusic
1625922879.48,fixation,1,609,,,RelaxSession
1625922879.48,fixation,3,28,,,PracticeSession
1625922879.73,fixation,2,122,,,NoMusic
1625922880.98,stimulus,3,29,,,PracticeSession
1625922880.98,stimulus,1,610,,,RelaxSession
1625922881.23,stimulus,2,123,,,NoMusic
1625922881.48,fixation,3,29,,,PracticeSession
1625922881.48,fixation,1,610,,,RelaxSession
1625922881.73,fixation,2,123,,,NoMusic
1625922882.98,stimulus,1,611,,,RelaxSession
1625922882.98,stimulus,3,30,,,PracticeSession
1625922883.23,stimulus,2,124,,,NoMusic
1625922883.48,fixation,3,30,,,PracticeSession
1625922883.48,fixation,1,611,,,RelaxSession
1625922883.73,fixation,2,124,,,NoMusic
1625922884.98,stimulus,1,612,,,RelaxSession
1625922884.98,stimulus,3,31,,,PracticeSession
1625922885.23,stimulus,2,125,,,NoMusic
1625922885.48,fixation,1,612,,,RelaxSession
1625922885.48,fixation,3,31,,,PracticeSession
1625922885.73,fixation,2,125,,,NoMusic
1625922886.98,stimulus,1,613,,,RelaxSession
1625922886.98,stimulus,3,32,,,PracticeSession
1625922887.23,stimulus,2,126,,,NoMusic
1625922887.48,fixation,1,613,,,RelaxSession
1625922887.48,fixation,3,32,,,PracticeSession
1625922887.73,fixation,2,126,,,NoMusic
1625922888.98,stimulus,1,614,,,RelaxSession
1625922888.98,stimulus,3,33,,,PracticeSession
1625922889.23,stimulus,2,127,,,NoMusic
1625922889.48,fixation,1,614,,,RelaxSession
1625922889.48,fixation,3,33,,,PracticeSession
1625922889.73,fixation,2,127,,,NoMusic
1625922890.98,stimulus,3,34,,,PracticeSession
1625922890.98,stimulus,1,615,,,RelaxSession
1625922891.23,stimulus,2,128,,,NoMusic
1625922891.48,fixation,1,615,,,RelaxSession
1625922891.48,fixation,3,34,,,PracticeSession
1625922891.73,fixation,2,128,,,NoMusic
1625922892.98,stimulus,1,616,,,RelaxSession
1625922892.98,stimulus,3,35,,,PracticeSession
1625922893.23,stimulus,2,129,,,NoMusic
1625922893.48,fixation,3,35,,,PracticeSession
1625922893.48,fixation,1,616,,,RelaxSession
1625922893.73,fixation,2,129,,,NoMusic
1625922894.98,stimulus,3,36,,,PracticeSession
1625922894.98,stimulus,1,617,,,RelaxSession
1625922895.23,stimulus,2,130,,,NoMusic
1625922895.48,fixation,3,36,,,PracticeSession
1625922895.48,fixation,1,617,,,RelaxSession
1625922895.73,fixation,2,130,,,NoMusic
1625922896.98,stimulus,3,37,,,PracticeSession
1625922896.98,stimulus,1,618,,,RelaxSession
1625922897.23,stimulus,2,131,,,NoMusic
1625922897.48,fixation,1,618,,,RelaxSession
1625922897.48,fixation,3,37,,,PracticeSession
1625922897.73,fixation,2,131,,,NoMusic
1625922898.98,stimulus,1,619,,,RelaxSession
1625922898.98,stimulus,3,38,,,PracticeSession
1625922899.23,stimulus,2,132,,,NoMusic
1625922899.48,fixation,1,619,,,RelaxSession
1625922899.48,fixation,3,38,,,PracticeSession
1625922899.73,fixation,2,132,,,NoMusic
1625922900.98,stimulus,3,39,,,PracticeSession
1625922900.98,stimulus,1,620,,,RelaxSession
1625922901.23,stimulus,2,133,,,NoMusic
1625922901.48,fixation,1,620,,,RelaxSession
1625922901.48,fixation,3,39,,,PracticeSession
1625922901.73,fixation,2,133,,,NoMusic
1625922902.98,stimulus,3,40,,,PracticeSession
1625922902.98,stimulus,1,621,,,RelaxSession
1625922903.23,stimulus,2,134,,,NoMusic
1625922903.48,fixation,1,621,,,RelaxSession
1625922903.48,fixation,3,40,,,PracticeSession
1625922903.73,fixation,2,134,,,NoMusic
1625922904.98,stimulus,3,41,,,PracticeSession
1625922904.98,stimulus,1,622,,,RelaxSession
1625922905.23,stimulus,2,135,,,NoMusic
1625922905.48,fixation,3,41,,,PracticeSession
1625922905.48,fixation,1,622,,,RelaxSession
1625922905.73,fixation,2,135,,,NoMusic
1625922906.98,stimulus,3,42,,,PracticeSession
1625922906.98,stimulus,1,623,,,RelaxSession
1625922907.23,stimulus,2,136,,,NoMusic
1625922907.48,fixation,1,623,,,RelaxSession
1625922907.48,fixation,3,42,,,PracticeSession
1625922907.73,fixation,2,136,,,NoMusic
1625922908.98,stimulus,3,43,,,PracticeSession
1625922908.98,stimulus,1,624,,,RelaxSession
1625922909.23,stimulus,2,137,,,NoMusic
1625922909.48,fixation,3,43,,,PracticeSession
1625922909.48,fixation,1,624,,,RelaxSession
1625922909.73,fixation,2,137,,,NoMusic
1625922910.98,stimulus,3,44,,,PracticeSession
1625922910.98,stimulus,1,625,,,RelaxSession
1625922911.23,stimulus,2,138,,,NoMusic
1625922911.48,fixation,1,625,,,RelaxSession
1625922911.48,fixation,3,44,,,PracticeSession
1625922911.73,fixation,2,138,,,NoMusic
1625922912.98,stimulus,3,45,,,NoMusic
1625922912.98,stimulus,1,626,,,RelaxSession
1625922913.23,stimulus,2,139,,,NoMusic
1625922913.48,fixation,1,626,,,RelaxSession
1625922913.48,fixation,3,45,,,NoMusic
1625922913.73,fixation,2,139,,,NoMusic
1625922914.98,stimulus,1,627,,,RelaxSession
1625922914.98,stimulus,3,46,,,NoMusic
1625922915.23,stimulus,2,140,,,NoMusic
1625922915.48,fixation,3,46,,,NoMusic
1625922915.48,fixation,1,627,,,RelaxSession
1625922915.73,fixation,2,140,,,NoMusic
1625922916.98,stimulus,1,628,,,RelaxSession
1625922916.98,stimulus,3,47,,,NoMusic
1625922917.23,stimulus,2,141,,,NoMusic
1625922917.48,fixation,1,628,,,RelaxSession
1625922917.48,fixation,3,47,,,NoMusic
1625922917.73,fixation,2,141,,,NoMusic
1625922918.98,stimulus,1,629,,,RelaxSession
1625922918.98,stimulus,3,48,,,NoMusic
1625922919.23,stimulus,2,142,,,NoMusic
1625922919.48,fixation,3,48,,,NoMusic
1625922919.48,fixation,1,629,,,RelaxSession
1625922919.73,fixation,2,142,,,NoMusic
1625922920.98,stimulus,1,630,,,RelaxSession
1625922920.98,stimulus,3,49,,,NoMusic
1625922921.23,stimulus,2,143,,,NoMusic
1625922921.48,fixation,3,49,,,NoMusic
1625922921.48,fixation,1,630,,,RelaxSession
1625922921.73,fixation,2,143,,,NoMusic
1625922922.98,stimulus,1,631,,,RelaxSession
1625922922.98,stimulus,3,50,,,NoMusic
1625922923.23,stimulus,2,144,,,NoMusic
1625922923.48,fixation,3,50,,,NoMusic
1625922923.48,fixation,1,631,,,RelaxSession
1625922923.73,fixation,2,144,,,NoMusic
1625922924.98,stimulus,1,632,,,RelaxSession
1625922924.98,stimulus,3,51,,,NoMusic
1625922925.23,stimulus,2,145,,,NoMusic
1625922925.48,fixation,3,51,,,NoMusic
1625922925.48,fixation,1,632,,,RelaxSession
1625922925.73,fixation,2,145,,,NoMusic
1625922926.98,stimulus,1,633,,,RelaxSession
1625922926.98,stimulus,3,52,,,NoMusic
1625922927.23,stimulus,2,146,,,NoMusic
1625922927.48,fixation,3,52,,,NoMusic
1625922927.48,fixation,1,633,,,RelaxSession
1625922927.73,fixation,2,146,,,NoMusic
1625922928.98,stimulus,1,634,,,RelaxSession
1625922928.98,stimulus,3,53,,,NoMusic
1625922929.23,stimulus,2,147,,,NoMusic
1625922929.48,fixation,3,53,,,NoMusic
1625922929.48,fixation,1,634,,,RelaxSession
1625922929.73,fixation,2,147,,,NoMusic
1625922930.98,stimulus,3,54,,,NoMusic
1625922930.98,stimulus,1,635,,,RelaxSession
1625922931.23,stimulus,2,148,,,NoMusic
1625922931.48,fixation,3,54,,,NoMusic
1625922931.48,fixation,1,635,,,RelaxSession
1625922931.73,fixation,2,148,,,NoMusic
1625922932.98,stimulus,3,55,,,NoMusic
1625922932.98,stimulus,1,636,,,RelaxSession
1625922933.23,stimulus,2,149,,,NoMusic
1625922933.48,fixation,1,636,,,RelaxSession
1625922933.48,fixation,3,55,,,NoMusic
1625922933.73,fixation,2,149,,,NoMusic
1625922934.98,stimulus,3,56,,,NoMusic
1625922934.98,stimulus,1,637,,,RelaxSession
1625922935.23,stimulus,2,150,,,NoMusic
1625922935.48,fixation,1,637,,,RelaxSession
1625922935.48,fixation,3,56,,,NoMusic
1625922935.73,fixation,2,150,,,NoMusic
1625922936.98,stimulus,3,57,,,NoMusic
1625922936.98,stimulus,1,638,,,RelaxSession
1625922937.23,stimulus,2,151,,,NoMusic
1625922937.48,fixation,1,638,,,RelaxSession
1625922937.48,fixation,3,57,,,NoMusic
1625922937.73,fixation,2,151,,,NoMusic
1625922938.98,stimulus,3,58,,,NoMusic
1625922938.98,stimulus,1,639,,,RelaxSession
1625922939.23,stimulus,2,152,,,NoMusic
1625922939.48,fixation,1,639,,,RelaxSession
1625922939.48,fixation,3,58,,,NoMusic
1625922939.73,fixation,2,152,,,NoMusic
1625922940.98,stimulus,1,640,,,RelaxSession
1625922940.98,stimulus,3,59,,,NoMusic
1625922941.23,stimulus,2,153,,,NoMusic
1625922941.48,fixation,1,640,,,RelaxSession
1625922941.48,fixation,3,59,,,NoMusic
1625922941.73,fixation,2,153,,,NoMusic
1625922942.98,stimulus,1,641,,,RelaxSession
1625922942.98,stimulus,3,60,,,NoMusic
1625922943.23,stimulus,2,154,,,NoMusic
1625922943.48,fixation,3,60,,,NoMusic
1625922943.48,fixation,1,641,,,RelaxSession
1625922943.73,fixation,2,154,,,NoMusic
1625922944.98,stimulus,1,642,,,RelaxSession
1625922944.98,stimulus,3,61,,,NoMusic
1625922945.23,stimulus,2,155,,,NoMusic
1625922945.48,fixation,3,61,,,NoMusic
1625922945.48,fixation,1,642,,,RelaxSession
1625922945.73,fixation,2,155,,,NoMusic
1625922946.98,stimulus,1,643,,,RelaxSession
1625922946.98,stimulus,3,62,,,NoMusic
1625922947.23,stimulus,2,156,,,NoMusic
1625922947.48,fixation,1,643,,,RelaxSession
1625922947.48,fixation,3,62,,,NoMusic
1625922947.73,fixation,2,156,,,NoMusic
1625922948.98,stimulus,1,644,,,RelaxSession
1625922948.98,stimulus,3,63,,,NoMusic
1625922949.23,stimulus,2,157,,,NoMusic
1625922949.48,fixation,3,63,,,NoMusic
1625922949.48,fixation,1,644,,,RelaxSession
1625922949.73,fixation,2,157,,,NoMusic
1625922950.98,stimulus,1,645,,,RelaxSession
1625922950.98,stimulus,3,64,,,NoMusic
1625922951.23,stimulus,2,158,,,NoMusic
1625922951.48,fixation,3,64,,,NoMusic
1625922951.48,fixation,1,645,,,RelaxSession
1625922951.73,fixation,2,158,,,NoMusic
1625922952.98,stimulus,1,646,,,RelaxSession
1625922952.98,stimulus,3,65,,,NoMusic
1625922953.23,stimulus,2,159,,,NoMusic
1625922953.48,fixation,3,65,,,NoMusic
1625922953.48,fixation,1,646,,,RelaxSession
1625922953.73,fixation,2,159,,,NoMusic
1625922954.98,stimulus,1,647,,,RelaxSession
1625922954.98,stimulus,3,66,,,NoMusic
1625922955.23,stimulus,2,160,,,NoMusic
1625922955.48,fixation,3,66,,,NoMusic
1625922955.48,fixation,1,647,,,RelaxSession
1625922955.73,fixation,2,160,,,NoMusic
1625922956.98,stimulus,3,67,,,NoMusic
1625922956.98,stimulus,1,648,,,RelaxSession
1625922957.23,stimulus,2,161,,,NoMusic
1625922957.48,fixation,1,648,,,RelaxSession
1625922957.48,fixation,3,67,,,NoMusic
1625922957.73,fixation,2,161,,,NoMusic
1625922958.98,stimulus,3,68,,,NoMusic
1625922958.98,stimulus,1,649,,,RelaxSession
1625922959.23,stimulus,2,162,,,NoMusic
1625922959.48,fixation,1,649,,,RelaxSession
1625922959.48,fixation,3,68,,,NoMusic
1625922959.73,fixation,2,162,,,NoMusic
1625922960.98,stimulus,3,69,,,NoMusic
1625922960.98,stimulus,1,650,,,RelaxSession
1625922961.23,stimulus,2,163,,,NoMusic
1625922961.48,fixation,1,650,,,RelaxSession
1625922961.48,fixation,3,69,,,NoMusic
1625922961.73,fixation,2,163,,,NoMusic
1625922962.98,stimulus,3,70,,,NoMusic
1625922962.98,stimulus,1,651,,,RelaxSession
1625922963.23,stimulus,2,164,,,NoMusic
1625922963.48,fixation,1,651,,,RelaxSession
1625922963.48,fixation,3,70,,,NoMusic
1625922963.73,fixation,2,164,,,NoMusic
1625922964.98,stimulus,1,652,,,RelaxSession
1625922964.98,stimulus,3,71,,,NoMusic
1625922965.23,stimulus,2,165,,,NoMusic
1625922965.48,fixation,1,652,,,RelaxSession
1625922965.48,fixation,3,71,,,NoMusic
1625922965.73,fixation,2,165,,,NoMusic
1625922966.98,stimulus,1,653,,,RelaxSession
1625922966.98,stimulus,3,72,,,NoMusic
1625922967.23,stimulus,2,166,,,NoMusic
1625922967.48,fixation,1,653,,,RelaxSession
1625922967.48,fixation,3,72,,,NoMusic
1625922967.73,fixation,2,166,,,NoMusic
1625922968.98,stimulus,3,73,,,NoMusic
1625922968.98,stimulus,1,654,,,RelaxSession
1625922969.23,stimulus,2,167,,,NoMusic
1625922969.48,fixation,1,654,,,RelaxSession
1625922969.48,fixation,3,73,,,NoMusic
1625922969.73,fixation,2,167,,,NoMusic
1625922970.98,stimulus,3,74,,,NoMusic
1625922970.98,stimulus,1,655,,,RelaxSession
1625922971.23,stimulus,2,168,,,NoMusic
1625922971.48,fixation,1,655,,,RelaxSession
1625922971.48,fixation,3,74,,,NoMusic
1625922971.73,fixation,2,168,,,NoMusic
1625922972.98,stimulus,3,75,,,NoMusic
1625922972.98,stimulus,1,656,,,RelaxSession
1625922973.23,stimulus,2,169,,,NoMusic
1625922973.48,fixation,1,656,,,RelaxSession
1625922973.48,fixation,3,75,,,NoMusic
1625922973.73,fixation,2,169,,,NoMusic
1625922974.98,stimulus,3,76,,,NoMusic
1625922974.98,stimulus,1,657,,,RelaxSession
1625922975.23,stimulus,2,170,,,NoMusic
1625922975.48,fixation,3,76,,,NoMusic
1625922975.48,fixation,1,657,,,RelaxSession
1625922975.73,fixation,2,170,,,NoMusic
1625922976.98,stimulus,1,658,,,RelaxSession
1625922976.98,stimulus,3,77,,,NoMusic
1625922977.23,stimulus,2,171,,,NoMusic
1625922977.48,fixation,1,658,,,RelaxSession
1625922977.48,fixation,3,77,,,NoMusic
1625922977.73,fixation,2,171,,,NoMusic
1625922978.98,stimulus,1,659,,,RelaxSession
1625922978.98,stimulus,3,78,,,NoMusic
1625922979.23,stimulus,2,172,,,NoMusic
1625922979.48,fixation,3,78,,,NoMusic
1625922979.48,fixation,1,659,,,RelaxSession
1625922979.73,fixation,2,172,,,NoMusic
1625922980.98,stimulus,1,660,,,RelaxSession
1625922980.98,stimulus,3,79,,,NoMusic
1625922981.23,stimulus,2,173,,,NoMusic
1625922981.48,fixation,3,79,,,NoMusic
1625922981.48,fixation,1,660,,,RelaxSession
1625922981.73,fixation,2,173,,,NoMusic
1625922982.98,stimulus,1,661,,,RelaxSession
1625922982.98,stimulus,3,80,,,NoMusic
1625922983.23,stimulus,2,174,,,NoMusic
1625922983.48,fixation,1,661,,,RelaxSession
1625922983.48,fixation,3,80,,,NoMusic
1625922983.73,fixation,2,174,,,NoMusic
1625922984.98,stimulus,1,662,,,RelaxSession
1625922984.98,stimulus,3,81,,,NoMusic
1625922985.23,stimulus,2,175,,,NoMusic
1625922985.48,fixation,1,662,,,RelaxSession
1625922985.48,fixation,3,81,,,NoMusic
1625922985.73,fixation,2,175,,,NoMusic
1625922986.98,stimulus,1,663,,,RelaxSession
1625922986.98,stimulus,3,82,,,NoMusic
1625922987.23,stimulus,2,176,,,NoMusic
1625922987.48,fixation,1,663,,,RelaxSession
1625922987.48,fixation,3,82,,,NoMusic
1625922987.73,fixation,2,176,,,NoMusic
1625922988.98,stimulus,3,83,,,NoMusic
1625922988.98,stimulus,1,664,,,RelaxSession
1625922989.23,stimulus,2,177,,,NoMusic
1625922989.48,fixation,3,83,,,NoMusic
1625922989.48,fixation,1,664,,,RelaxSession
1625922989.73,fixation,2,177,,,NoMusic
1625922990.98,stimulus,1,665,,,RelaxSession
1625922990.98,stimulus,3,84,,,NoMusic
1625922991.23,stimulus,2,178,,,NoMusic
1625922991.48,fixation,3,84,,,NoMusic
1625922991.48,fixation,1,665,,,RelaxSession
1625922991.73,fixation,2,178,,,NoMusic
1625922992.98,stimulus,1,666,,,RelaxSession
1625922992.98,stimulus,3,85,,,NoMusic
1625922993.23,stimulus,2,179,,,NoMusic
1625922993.48,fixation,1,666,,,RelaxSession
1625922993.48,fixation,3,85,,,NoMusic
1625922993.73,fixation,2,179,,,NoMusic
1625922994.98,stimulus,3,86,,,NoMusic
1625922994.98,stimulus,1,667,,,RelaxSession
1625922995.23,stimulus,2,180,,,NoMusic
1625922995.48,fixation,3,86,,,NoMusic
1625922995.48,fixation,1,667,,,RelaxSession
1625922995.73,fixation,2,180,,,NoMusic
1625922996.98,stimulus,3,87,,,NoMusic
1625922996.98,stimulus,1,668,,,RelaxSession
1625922997.23,stimulus,2,181,,,NoMusic
1625922997.48,fixation,3,87,,,NoMusic
1625922997.48,fixation,1,668,,,RelaxSession
1625922997.73,fixation,2,181,,,NoMusic
1625922998.98,stimulus,3,88,,,NoMusic
1625922998.98,stimulus,1,669,,,RelaxSession
1625922999.23,stimulus,2,182,,,NoMusic
1625922999.48,fixation,1,669,,,RelaxSession
1625922999.48,fixation,3,88,,,NoMusic
1625922999.73,fixation,2,182,,,NoMusic
1625923000.98,stimulus,3,89,,,NoMusic
1625923000.98,stimulus,1,670,,,RelaxSession
1625923001.23,stimulus,2,183,,,NoMusic
1625923001.48,fixation,3,89,,,NoMusic
1625923001.48,fixation,1,670,,,RelaxSession
1625923001.73,fixation,2,183,,,NoMusic
1625923002.98,stimulus,1,671,,,RelaxSession
1625923002.98,stimulus,3,90,,,NoMusic
1625923003.23,stimulus,2,184,,,NoMusic
1625923003.48,fixation,3,90,,,NoMusic
1625923003.48,fixation,1,671,,,RelaxSession
1625923003.73,fixation,2,184,,,NoMusic
1625923004.98,stimulus,3,91,,,NoMusic
1625923004.98,stimulus,1,672,,,RelaxSession
1625923005.23,stimulus,2,185,,,NoMusic
1625923005.48,fixation,3,91,,,NoMusic
1625923005.48,fixation,1,672,,,RelaxSession
1625923005.73,fixation,2,185,,,NoMusic
1625923006.98,stimulus,1,673,,,RelaxSession
1625923006.98,stimulus,3,92,,,NoMusic
1625923007.23,stimulus,2,186,,,NoMusic
1625923007.48,fixation,1,673,,,RelaxSession
1625923007.48,fixation,3,92,,,NoMusic
1625923007.73,fixation,2,186,,,NoMusic
1625923008.98,stimulus,1,674,,,RelaxSession
1625923008.98,stimulus,3,93,,,NoMusic
1625923009.23,stimulus,2,187,,,NoMusic
1625923009.48,fixation,1,674,,,RelaxSession
1625923009.48,fixation,3,93,,,NoMusic
1625923009.73,fixation,2,187,,,NoMusic
1625923010.98,stimulus,1,675,,,RelaxSession
1625923010.98,stimulus,3,94,,,NoMusic
1625923011.23,stimulus,2,188,,,NoMusic
1625923011.48,fixation,3,94,,,NoMusic
1625923011.48,fixation,1,675,,,RelaxSession
1625923011.73,fixation,2,188,,,NoMusic
1625923012.98,stimulus,1,676,,,RelaxSession
1625923012.98,stimulus,3,95,,,NoMusic
1625923013.23,stimulus,2,189,,,NoMusic
1625923013.48,fixation,3,95,,,NoMusic
1625923013.48,fixation,1,676,,,RelaxSession
1625923013.73,fixation,2,189,,,NoMusic
1625923014.98,stimulus,1,677,,,RelaxSession
1625923014.98,stimulus,3,96,,,NoMusic
1625923015.23,stimulus,2,190,,,NoMusic
1625923015.48,fixation,1,677,,,RelaxSession
1625923015.48,fixation,3,96,,,NoMusic
1625923015.73,fixation,2,190,,,NoMusic
1625923016.98,stimulus,1,678,,,RelaxSession
1625923016.98,stimulus,3,97,,,NoMusic
1625923017.23,stimulus,2,191,,,NoMusic
1625923017.48,fixation,1,678,,,RelaxSession
1625923017.48,fixation,3,97,,,NoMusic
1625923017.73,fixation,2,191,,,NoMusic
1625923018.98,stimulus,1,679,,,RelaxSession
1625923018.98,stimulus,3,98,,,NoMusic
1625923019.23,stimulus,2,192,,,NoMusic
1625923019.48,fixation,1,679,,,RelaxSession
1625923019.48,fixation,3,98,,,NoMusic
1625923019.73,fixation,2,192,,,NoMusic
1625923020.98,stimulus,1,680,,,RelaxSession
1625923020.98,stimulus,3,99,,,NoMusic
1625923021.23,stimulus,2,193,,,NoMusic
1625923021.48,fixation,1,680,,,RelaxSession
1625923021.48,fixation,3,99,,,NoMusic
1625923021.73,fixation,2,193,,,NoMusic
1625923022.98,stimulus,1,681,,,RelaxSession
1625923022.98,stimulus,3,100,,,NoMusic
1625923023.23,stimulus,2,194,,,NoMusic
1625923023.48,fixation,1,681,,,RelaxSession
1625923023.48,fixation,3,100,,,NoMusic
1625923023.73,fixation,2,194,,,NoMusic
1625923024.98,stimulus,1,682,,,RelaxSession
1625923024.98,stimulus,3,101,,,NoMusic
1625923025.23,stimulus,2,195,,,NoMusic
1625923025.48,fixation,1,682,,,RelaxSession
1625923025.48,fixation,3,101,,,NoMusic
1625923025.73,fixation,2,195,,,NoMusic
1625923026.98,stimulus,1,683,,,RelaxSession
1625923026.98,stimulus,3,102,,,NoMusic
1625923027.23,stimulus,2,196,,,NoMusic
1625923027.48,fixation,1,683,,,RelaxSession
1625923027.48,fixation,3,102,,,NoMusic
1625923027.73,fixation,2,196,,,NoMusic
1625923028.98,stimulus,1,684,,,RelaxSession
1625923028.98,stimulus,3,103,,,NoMusic
1625923029.23,stimulus,2,197,,,NoMusic
1625923029.48,fixation,3,103,,,NoMusic
1625923029.48,fixation,1,684,,,RelaxSession
1625923029.73,fixation,2,197,,,NoMusic
1625923030.98,stimulus,1,685,,,RelaxSession
1625923030.98,stimulus,3,104,,,NoMusic
1625923031.23,stimulus,2,198,,,NoMusic
1625923031.48,fixation,1,685,,,RelaxSession
1625923031.48,fixation,3,104,,,NoMusic
1625923031.73,fixation,2,198,,,NoMusic
1625923032.98,stimulus,1,686,,,RelaxSession
1625923032.98,stimulus,3,105,,,NoMusic
1625923033.23,stimulus,2,199,,,NoMusic
1625923033.48,fixation,1,686,,,RelaxSession
1625923033.48,fixation,3,105,,,NoMusic
1625923033.73,fixation,2,199,,,NoMusic
1625923034.98,stimulus,1,687,,,RelaxSession
1625923034.98,stimulus,3,106,,,NoMusic
1625923035.23,stimulus,2,200,,,NoMusic
1625923035.48,fixation,1,687,,,RelaxSession
1625923035.48,fixation,3,106,,,NoMusic
1625923035.73,fixation,2,200,,,NoMusic
1625923036.98,stimulus,1,688,,,RelaxSession
1625923036.98,stimulus,3,107,,,NoMusic
1625923037.23,stimulus,2,201,,,NoMusic
1625923037.48,fixation,1,688,,,RelaxSession
1625923037.48,fixation,3,107,,,NoMusic
1625923037.73,fixation,2,201,,,NoMusic
1625923038.98,stimulus,1,689,,,RelaxSession
1625923038.98,stimulus,3,108,,,NoMusic
1625923039.23,stimulus,2,202,,,NoMusic
1625923039.48,fixation,1,689,,,RelaxSession
1625923039.48,fixation,3,108,,,NoMusic
1625923039.73,fixation,2,202,,,NoMusic
1625923040.98,stimulus,1,690,,,RelaxSession
1625923040.98,stimulus,3,109,,,NoMusic
1625923041.23,stimulus,2,203,,,NoMusic
1625923041.48,fixation,1,690,,,RelaxSession
1625923041.48,fixation,3,109,,,NoMusic
1625923041.73,fixation,2,203,,,NoMusic
1625923042.98,stimulus,1,691,,,RelaxSession
1625923042.98,stimulus,3,110,,,NoMusic
1625923043.23,stimulus,2,204,,,NoMusic
1625923043.48,fixation,1,691,,,RelaxSession
1625923043.48,fixation,3,110,,,NoMusic
1625923043.73,fixation,2,204,,,NoMusic
1625923044.98,stimulus,3,111,,,NoMusic
1625923044.98,stimulus,1,692,,,RelaxSession
1625923045.23,stimulus,2,205,,,NoMusic
1625923045.48,fixation,3,111,,,NoMusic
1625923045.48,fixation,1,692,,,RelaxSession
1625923045.73,fixation,2,205,,,NoMusic
1625923046.98,stimulus,3,112,,,NoMusic
1625923046.98,stimulus,1,693,,,RelaxSession
1625923047.23,stimulus,2,206,,,NoMusic
1625923047.48,fixation,1,693,,,RelaxSession
1625923047.48,fixation,3,112,,,NoMusic
1625923047.73,fixation,2,206,,,NoMusic
1625923048.98,stimulus,3,113,,,NoMusic
1625923048.98,stimulus,1,694,,,RelaxSession
1625923049.23,stimulus,2,207,,,NoMusic
1625923049.48,fixation,3,113,,,NoMusic
1625923049.48,fixation,1,694,,,RelaxSession
1625923049.73,fixation,2,207,,,NoMusic
1625923050.98,stimulus,3,114,,,NoMusic
1625923050.98,stimulus,1,695,,,RelaxSession
1625923051.23,stimulus,2,208,,,NoMusic
1625923051.48,fixation,3,114,,,NoMusic
1625923051.48,fixation,1,695,,,RelaxSession
1625923051.73,fixation,2,208,,,NoMusic
1625923052.98,stimulus,3,115,,,NoMusic
1625923052.98,stimulus,1,696,,,RelaxSession
1625923053.23,stimulus,2,209,,,NoMusic
1625923053.48,fixation,3,115,,,NoMusic
1625923053.48,fixation,1,696,,,RelaxSession
1625923053.73,fixation,2,209,,,NoMusic
1625923054.98,stimulus,3,116,,,NoMusic
1625923054.98,stimulus,1,697,,,RelaxSession
1625923055.23,stimulus,2,210,,,NoMusic
1625923055.48,fixation,3,116,,,NoMusic
1625923055.48,fixation,1,697,,,RelaxSession
1625923055.73,fixation,2,210,,,NoMusic
1625923056.98,stimulus,1,698,,,RelaxSession
1625923056.98,stimulus,3,117,,,NoMusic
1625923057.23,stimulus,2,211,,,NoMusic
1625923057.48,fixation,1,698,,,RelaxSession
1625923057.48,fixation,3,117,,,NoMusic
1625923057.73,fixation,2,211,,,NoMusic
1625923058.98,stimulus,1,699,,,RelaxSession
1625923058.98,stimulus,3,118,,,NoMusic
1625923059.23,stimulus,2,212,,,NoMusic
1625923059.48,fixation,3,118,,,NoMusic
1625923059.48,fixation,1,699,,,RelaxSession
1625923059.73,fixation,2,212,,,NoMusic
1625923060.98,stimulus,1,700,,,RelaxSession
1625923060.98,stimulus,3,119,,,NoMusic
1625923061.23,stimulus,2,213,,,NoMusic
1625923061.48,fixation,1,700,,,RelaxSession
1625923061.48,fixation,3,119,,,NoMusic
1625923061.73,fixation,2,213,,,NoMusic
1625923062.98,stimulus,1,701,,,RelaxSession
1625923062.98,stimulus,3,120,,,NoMusic
1625923063.23,stimulus,2,214,,,NoMusic
1625923063.48,fixation,1,701,,,RelaxSession
1625923063.48,fixation,3,120,,,NoMusic
1625923063.73,fixation,2,214,,,NoMusic
1625923064.98,stimulus,1,702,,,RelaxSession
1625923064.98,stimulus,3,121,,,NoMusic
1625923065.23,stimulus,2,215,,,NoMusic
1625923065.48,fixation,1,702,,,RelaxSession
1625923065.48,fixation,3,121,,,NoMusic
1625923065.73,fixation,2,215,,,NoMusic
1625923066.98,stimulus,3,122,,,NoMusic
1625923066.98,stimulus,1,703,,,RelaxSession
1625923067.23,stimulus,2,216,,,NoMusic
1625923067.48,fixation,1,703,,,RelaxSession
1625923067.48,fixation,3,122,,,NoMusic
1625923067.73,fixation,2,216,,,NoMusic
1625923068.98,stimulus,1,704,,,RelaxSession
1625923068.98,stimulus,3,123,,,NoMusic
1625923069.23,stimulus,2,217,,,NoMusic
1625923069.48,fixation,3,123,,,NoMusic
1625923069.48,fixation,1,704,,,RelaxSession
1625923069.73,fixation,2,217,,,NoMusic
1625923070.98,stimulus,1,705,,,RelaxSession
1625923070.98,stimulus,3,124,,,NoMusic
1625923071.23,stimulus,2,218,,,NoMusic
1625923071.48,fixation,3,124,,,NoMusic
1625923071.48,fixation,1,705,,,RelaxSession
1625923071.73,fixation,2,218,,,NoMusic
1625923072.98,stimulus,1,706,,,RelaxSession
1625923072.98,stimulus,3,125,,,NoMusic
1625923073.23,stimulus,2,219,,,NoMusic
1625923073.48,fixation,3,125,,,NoMusic
1625923073.48,fixation,1,706,,,RelaxSession
1625923073.73,fixation,2,219,,,NoMusic
1625923074.98,stimulus,3,126,,,NoMusic
1625923074.98,stimulus,1,707,,,RelaxSession
1625923075.23,stimulus,2,220,,,NoMusic
1625923075.48,fixation,3,126,,,NoMusic
1625923075.48,fixation,1,707,,,RelaxSession
1625923075.73,fixation,2,220,,,NoMusic
1625923076.98,stimulus,3,127,,,NoMusic
1625923076.98,stimulus,1,708,,,RelaxSession
1625923077.23,stimulus,2,221,,,NoMusic
1625923077.48,fixation,1,708,,,RelaxSession
1625923077.48,fixation,3,127,,,NoMusic
1625923077.73,fixation,2,221,,,NoMusic
1625923078.98,stimulus,1,709,,,RelaxSession
1625923078.98,stimulus,3,128,,,NoMusic
1625923079.23,stimulus,2,222,,,NoMusic
1625923079.48,fixation,3,128,,,NoMusic
1625923079.48,fixation,1,709,,,RelaxSession
1625923079.73,fixation,2,222,,,NoMusic
1625923080.98,stimulus,3,129,,,NoMusic
1625923080.98,stimulus,1,710,,,RelaxSession
1625923081.23,stimulus,2,223,,,NoMusic
1625923081.48,fixation,3,129,,,NoMusic
1625923081.48,fixation,1,710,,,RelaxSession
1625923081.73,fixation,2,223,,,NoMusic
1625923082.98,stimulus,1,711,,,RelaxSession
1625923082.98,stimulus,3,130,,,NoMusic
1625923083.23,stimulus,2,224,,,NoMusic
1625923083.48,fixation,1,711,,,RelaxSession
1625923083.48,fixation,3,130,,,NoMusic
1625923083.73,fixation,2,224,,,NoMusic
1625923084.98,stimulus,1,712,,,RelaxSession
1625923084.98,stimulus,3,131,,,NoMusic
1625923085.23,stimulus,2,225,,,NoMusic
1625923085.48,fixation,1,712,,,RelaxSession
1625923085.48,fixation,3,131,,,NoMusic
1625923085.73,fixation,2,225,,,NoMusic
1625923086.98,stimulus,1,713,,,RelaxSession
1625923086.98,stimulus,3,132,,,NoMusic
1625923087.23,stimulus,2,226,,,NoMusic
1625923087.48,fixation,3,132,,,NoMusic
1625923087.48,fixation,1,713,,,RelaxSession
1625923087.73,fixation,2,226,,,NoMusic
1625923088.98,stimulus,3,133,,,NoMusic
1625923088.98,stimulus,1,714,,,RelaxSession
1625923089.23,stimulus,2,227,,,NoMusic
1625923089.48,fixation,3,133,,,NoMusic
1625923089.48,fixation,1,714,,,RelaxSession
1625923089.73,fixation,2,227,,,NoMusic
1625923090.98,stimulus,1,715,,,RelaxSession
1625923090.98,stimulus,3,134,,,NoMusic
1625923091.23,stimulus,2,228,,,NoMusic
1625923091.48,fixation,3,134,,,NoMusic
1625923091.48,fixation,1,715,,,RelaxSession
1625923091.73,fixation,2,228,,,NoMusic
1625923092.98,stimulus,3,135,,,NoMusic
1625923092.98,stimulus,1,716,,,RelaxSession
1625923093.23,stimulus,2,229,,,NoMusic
1625923093.48,fixation,3,135,,,NoMusic
1625923093.48,fixation,1,716,,,RelaxSession
1625923093.73,fixation,2,229,,,NoMusic
1625923094.98,stimulus,3,136,,,NoMusic
1625923094.98,stimulus,1,717,,,RelaxSession
1625923095.23,stimulus,2,230,,,NoMusic
1625923095.48,fixation,1,717,,,RelaxSession
1625923095.48,fixation,3,136,,,NoMusic
1625923095.73,fixation,2,230,,,NoMusic
1625923096.98,stimulus,3,137,,,NoMusic
1625923096.98,stimulus,1,718,,,RelaxSession
1625923097.23,stimulus,2,231,,,NoMusic
1625923097.48,fixation,3,137,,,NoMusic
1625923097.48,fixation,1,718,,,RelaxSession
1625923097.73,fixation,2,231,,,NoMusic
1625923098.98,stimulus,3,138,,,NoMusic
1625923098.98,stimulus,1,719,,,RelaxSession
1625923099.23,stimulus,2,232,,,NoMusic
1625923099.48,fixation,1,719,,,RelaxSession
1625923099.48,fixation,3,138,,,NoMusic
1625923099.73,fixation,2,232,,,NoMusic
1625923100.98,stimulus,3,139,,,NoMusic
1625923100.98,stimulus,1,720,,,RelaxSession
1625923101.23,stimulus,2,233,,,NoMusic
1625923101.48,fixation,3,139,,,NoMusic
1625923101.48,fixation,1,720,,,RelaxSession
1625923101.73,fixation,2,233,,,NoMusic
1625923102.98,stimulus,3,140,,,NoMusic
1625923102.98,stimulus,1,721,,,RelaxSession
1625923103.23,stimulus,2,234,,,NoMusic
1625923103.48,fixation,1,721,,,RelaxSession
1625923103.48,fixation,3,140,,,NoMusic
1625923103.73,fixation,2,234,,,NoMusic
1625923104.98,stimulus,1,722,,,RelaxSession
1625923104.98,stimulus,3,141,,,NoMusic
1625923105.23,stimulus,2,235,,,NoMusic
1625923105.48,fixation,3,141,,,NoMusic
1625923105.48,fixation,1,722,,,RelaxSession
1625923105.73,fixation,2,235,,,NoMusic
1625923106.98,stimulus,1,723,,,RelaxSession
1625923106.98,stimulus,3,142,,,NoMusic
1625923107.23,stimulus,2,236,,,NoMusic
1625923107.48,fixation,3,142,,,NoMusic
1625923107.48,fixation,1,723,,,RelaxSession
1625923107.73,fixation,2,236,,,NoMusic
1625923108.98,stimulus,3,143,,,NoMusic
1625923108.98,stimulus,1,724,,,RelaxSession
1625923109.23,stimulus,2,237,,,NoMusic
1625923109.48,fixation,3,143,,,NoMusic
1625923109.48,fixation,1,724,,,RelaxSession
1625923109.73,fixation,2,237,,,NoMusic
1625923110.98,stimulus,1,725,,,RelaxSession
1625923110.98,stimulus,3,144,,,NoMusic
1625923111.23,stimulus,2,238,,,NoMusic
1625923111.48,fixation,1,725,,,RelaxSession
1625923111.48,fixation,3,144,,,NoMusic
1625923111.73,fixation,2,238,,,NoMusic
1625923112.98,stimulus,1,726,,,RelaxSession
1625923112.98,stimulus,3,145,,,NoMusic
1625923113.23,stimulus,2,239,,,NoMusic
1625923113.48,fixation,1,726,,,RelaxSession
1625923113.48,fixation,3,145,,,NoMusic
1625923113.73,fixation,2,239,,,NoMusic
1625923114.98,stimulus,1,727,,,RelaxSession
1625923114.98,stimulus,3,146,,,NoMusic
1625923115.23,stimulus,2,240,,,NoMusic
1625923115.48,fixation,3,146,,,NoMusic
1625923115.48,fixation,1,727,,,RelaxSession
1625923115.73,fixation,2,240,,,NoMusic
1625923116.98,stimulus,1,728,,,RelaxSession
1625923116.98,stimulus,3,147,,,NoMusic
1625923117.23,stimulus,2,241,,,NoMusic
1625923117.48,fixation,3,147,,,NoMusic
1625923117.48,fixation,1,728,,,RelaxSession
1625923117.73,fixation,2,241,,,NoMusic
1625923118.98,stimulus,1,729,,,RelaxSession
1625923118.98,stimulus,3,148,,,NoMusic
1625923119.23,stimulus,2,242,,,NoMusic
1625923119.48,fixation,3,148,,,NoMusic
1625923119.48,fixation,1,729,,,RelaxSession
1625923119.73,fixation,2,242,,,NoMusic
1625923120.98,stimulus,1,730,,,RelaxSession
1625923120.98,stimulus,3,149,,,NoMusic
1625923121.23,stimulus,2,243,,,NoMusic
1625923121.48,fixation,3,149,,,NoMusic
1625923121.48,fixation,1,730,,,RelaxSession
1625923121.73,fixation,2,243,,,NoMusic
1625923122.98,stimulus,1,731,,,RelaxSession
1625923122.98,stimulus,3,150,,,NoMusic
1625923123.23,stimulus,2,244,,,NoMusic
1625923123.48,fixation,3,150,,,NoMusic
1625923123.48,fixation,1,731,,,RelaxSession
1625923123.73,fixation,2,244,,,NoMusic
1625923124.98,stimulus,1,732,,,RelaxSession
1625923124.98,stimulus,3,151,,,NoMusic
1625923125.23,stimulus,2,245,,,NoMusic
1625923125.48,fixation,3,151,,,NoMusic
1625923125.48,fixation,1,732,,,RelaxSession
1625923125.73,fixation,2,245,,,NoMusic
1625923126.98,stimulus,1,733,,,RelaxSession
1625923126.98,stimulus,3,152,,,NoMusic
1625923127.23,stimulus,2,246,,,NoMusic
1625923127.48,fixation,3,152,,,NoMusic
1625923127.48,fixation,1,733,,,RelaxSession
1625923127.73,fixation,2,246,,,NoMusic
1625923128.98,stimulus,1,734,,,RelaxSession
1625923128.98,stimulus,3,153,,,NoMusic
1625923129.23,stimulus,2,247,,,NoMusic
1625923129.48,fixation,3,153,,,NoMusic
1625923129.48,fixation,1,734,,,RelaxSession
1625923129.73,fixation,2,247,,,NoMusic
1625923130.98,stimulus,3,154,,,NoMusic
1625923130.98,stimulus,1,735,,,RelaxSession
1625923131.23,stimulus,2,248,,,NoMusic
1625923131.48,fixation,1,735,,,RelaxSession
1625923131.48,fixation,3,154,,,NoMusic
1625923131.73,fixation,2,248,,,NoMusic
1625923132.98,stimulus,1,736,,,RelaxSession
1625923132.98,stimulus,3,155,,,NoMusic
1625923133.23,stimulus,2,249,,,NoMusic
1625923133.48,fixation,3,155,,,NoMusic
1625923133.48,fixation,1,736,,,RelaxSession
1625923133.73,fixation,2,249,,,NoMusic
1625923134.98,stimulus,1,737,,,RelaxSession
1625923134.98,stimulus,3,156,,,NoMusic
1625923135.23,stimulus,2,250,,,NoMusic
1625923135.48,fixation,3,156,,,NoMusic
1625923135.48,fixation,1,737,,,RelaxSession
1625923135.73,fixation,2,250,,,NoMusic
1625923136.98,stimulus,3,157,,,NoMusic
1625923136.98,stimulus,1,738,,,RelaxSession
1625923137.23,stimulus,2,251,,,NoMusic
1625923137.48,fixation,1,738,,,RelaxSession
1625923137.48,fixation,3,157,,,NoMusic
1625923137.73,fixation,2,251,,,NoMusic
1625923138.98,stimulus,1,739,,,RelaxSession
1625923138.98,stimulus,3,158,,,NoMusic
1625923139.23,stimulus,2,252,,,NoMusic
1625923139.48,fixation,1,739,,,RelaxSession
1625923139.48,fixation,3,158,,,NoMusic
1625923139.73,fixation,2,252,,,NoMusic
1625923140.98,stimulus,3,159,,,NoMusic
1625923140.98,stimulus,1,740,,,RelaxSession
1625923141.23,stimulus,2,253,,,NoMusic
1625923141.48,fixation,1,740,,,RelaxSession
1625923141.48,fixation,3,159,,,NoMusic
1625923141.73,fixation,2,253,,,NoMusic
1625923142.98,stimulus,3,160,,,NoMusic
1625923142.98,stimulus,1,741,,,RelaxSession
1625923143.23,stimulus,2,254,,,NoMusic
1625923143.48,fixation,1,741,,,RelaxSession
1625923143.48,fixation,3,160,,,NoMusic
1625923143.73,fixation,2,254,,,NoMusic
1625923144.98,stimulus,1,742,,,RelaxSession
1625923144.98,stimulus,3,161,,,NoMusic
1625923145.23,stimulus,2,255,,,NoMusic
1625923145.48,fixation,3,161,,,NoMusic
1625923145.48,fixation,1,742,,,RelaxSession
1625923145.73,fixation,2,255,,,NoMusic
1625923146.98,stimulus,1,743,,,RelaxSession
1625923146.98,stimulus,3,162,,,NoMusic
1625923147.23,stimulus,2,256,,,NoMusic
1625923147.48,fixation,3,162,,,NoMusic
1625923147.48,fixation,1,743,,,RelaxSession
1625923147.73,fixation,2,256,,,NoMusic
1625923148.98,stimulus,1,744,,,RelaxSession
1625923148.98,stimulus,3,163,,,NoMusic
1625923149.23,stimulus,2,257,,,NoMusic
1625923149.48,fixation,1,744,,,RelaxSession
1625923149.48,fixation,3,163,,,NoMusic
1625923149.73,fixation,2,257,,,NoMusic
1625923150.98,stimulus,3,164,,,NoMusic
1625923150.98,stimulus,1,745,,,RelaxSession
