event_time_s,trial_type,session_idx,trial_idx,RT_s,ACC,session_type
1628937319.05,stimulus,1,1,,,PracticeSession
1628937319.55,fixation,1,1,,,PracticeSession
1628937321.05,stimulus,1,2,,,PracticeSession
1628937321.55,fixation,1,2,,,PracticeSession
1628937323.05,stimulus,1,3,,,PracticeSession
1628937323.55,fixation,1,3,,,PracticeSession
1628937325.05,stimulus,1,4,,,PracticeSession
1628937325.55,fixation,1,4,,,PracticeSession
1628937327.05,stimulus,1,5,,,PracticeSession
1628937327.55,fixation,1,5,,,PracticeSession
1628937329.05,stimulus,1,6,,,PracticeSession
1628937329.55,fixation,1,6,,,PracticeSession
1628937331.05,stimulus,1,7,,,PracticeSession
1628937331.55,fixation,1,7,,,PracticeSession
1628937333.05,stimulus,1,8,,,PracticeSession
1628937333.55,fixation,1,8,,,PracticeSession
1628937335.05,stimulus,1,9,,,PracticeSession
1628937335.55,fixation,1,9,,,PracticeSession
1628937337.05,stimulus,1,10,,,PracticeSession
1628937337.55,fixation,1,10,,,PracticeSession
1628937339.05,stimulus,1,11,,,PracticeSession
1628937339.55,fixation,1,11,,,PracticeSession
1628937341.05,stimulus,1,12,,,PracticeSession
1628937341.55,fixation,1,12,,,PracticeSession
1628937343.05,stimulus,1,13,,,PracticeSession
1628937343.55,fixation,1,13,,,PracticeSession
1628937345.05,stimulus,1,14,,,PracticeSession
1628937345.55,fixation,1,14,,,PracticeSession
1628937347.05,stimulus,1,15,,,PracticeSession
1628937347.55,fixation,1,15,,,PracticeSession
1628937349.05,stimulus,1,16,,,PracticeSession
1628937349.55,fixation,1,16,,,PracticeSession
1628937351.05,stimulus,1,17,,,PracticeSession
1628937351.55,fixation,1,17,,,PracticeSession
1628937353.05,stimulus,1,18,,,PracticeSession
1628937353.55,fixation,1,18,,,PracticeSession
1628937355.05,stimulus,1,19,,,PracticeSession
1628937355.55,fixation,1,19,,,PracticeSession
1628937357.05,stimulus,1,20,,,PracticeSession
1628937357.55,fixation,1,20,,,PracticeSession
1628937359.05,stimulus,1,21,,,PracticeSession
1628937359.55,fixation,1,21,,,PracticeSession
1628937361.05,stimulus,1,22,,,PracticeSession
1628937361.55,fixation,1,22,,,PracticeSession
1628937363.05,stimulus,1,23,,,PracticeSession
1628937363.55,fixation,1,23,,,PracticeSession
1628937365.05,stimulus,1,24,,,PracticeSession
1628937365.55,fixation,1,24,,,PracticeSession
1628937367.05,stimulus,1,25,,,PracticeSession
1628937367.55,fixation,1,25,,,PracticeSession
1628937369.05,stimulus,1,26,,,PracticeSession
1628937369.55,fixation,1,26,,,PracticeSession
1628937371.05,stimulus,1,27,,,PracticeSession
1628937371.55,fixation,1,27,,,PracticeSession
1628937373.05,stimulus,1,28,,,PracticeSession
1628937373.55,fixation,1,28,,,PracticeSession
1628937375.05,stimulus,1,29,,,PracticeSession
1628937375.55,fixation,1,29,,,PracticeSession
1628937377.05,stimulus,1,30,,,PracticeSession
1628937377.55,fixation,1,30,,,PracticeSession
1628937379.05,stimulus,1,31,,,PracticeSession
1628937379.55,fixation,1,31,,,PracticeSession
1628937381.05,stimulus,1,32,,,PracticeSession
1628937381.55,fixation,1,32,,,PracticeSession
1628937383.05,stimulus,1,33,,,PracticeSession
1628937383.55,fixation,1,33,,,PracticeSession
1628937385.05,stimulus,1,34,,,PracticeSession
1628937385.55,fixation,1,34,,,PracticeSession
1628937387.05,stimulus,1,35,,,PracticeSession
1628937387.55,fixation,1,35,,,PracticeSession
1628937389.05,stimulus,1,36,,,PracticeSession
1628937389.55,fixation,1,36,,,PracticeSession
1628937391.05,stimulus,1,37,,,PracticeSession
1628937391.55,fixation,1,37,,,PracticeSession
1628937393.05,stimulus,1,38,,,PracticeSession
1628937393.55,fixation,1,38,,,PracticeSession
1628937395.05,stimulus,1,39,,,PracticeSession
1628937395.55,fixation,1,39,,,PracticeSession
1628937397.05,stimulus,1,40,,,PracticeSession
1628937397.55,fixation,1,40,,,PracticeSession
1628937399.05,stimulus,1,41,,,PracticeSession
1628937399.55,fixation,1,41,,,PracticeSession
1628937401.05,stimulus,1,42,,,PracticeSession
1628937401.55,fixation,1,42,,,PracticeSession
1628937403.05,stimulus,1,43,,,PracticeSession
1628937403.55,fixation,1,43,,,PracticeSession
1628937405.05,stimulus,1,44,,,PracticeSession
1628937405.55,fixation,1,44,,,PracticeSession
1628937407.05,stimulus,1,45,,0.0,NoMusic
1628937407.6829998,fixation,1,45,0.133,0.0,NoMusic
1628937409.05,stimulus,1,46,,0.0,NoMusic
1628937409.768,fixation,1,46,0.218,1.0,NoMusic
1628937411.05,stimulus,1,47,,0.0,NoMusic
1628937411.9329998,fixation,1,47,0.383,1.0,NoMusic
1628937413.05,stimulus,1,48,,0.0,NoMusic
1628937413.809,fixation,1,48,0.259,1.0,NoMusic
1628937415.05,stimulus,1,49,,0.0,NoMusic
1628937415.824,fixation,1,49,0.274,1.0,NoMusic
1628937417.05,stimulus,1,50,,0.0,NoMusic
1628937417.664,fixation,1,50,0.114,1.0,NoMusic
1628937419.05,stimulus,1,51,,0.0,NoMusic
1628937419.6399999,fixation,1,51,0.09,0.0,NoMusic
1628937421.05,stimulus,1,52,,0.0,NoMusic
1628937421.804,fixation,1,52,0.254,1.0,NoMusic
1628937423.05,stimulus,1,53,,0.0,NoMusic
1628937423.677,fixation,1,53,0.127,1.0,NoMusic
1628937425.05,stimulus,1,54,,0.0,NoMusic
1628937425.799,fixation,1,54,0.249,1.0,NoMusic
1628937427.05,stimulus,1,55,,0.0,NoMusic
1628937427.907,fixation,1,55,0.357,1.0,NoMusic
1628937429.05,stimulus,1,56,,0.0,NoMusic
1628937429.955,fixation,1,56,0.405,1.0,NoMusic
1628937431.05,stimulus,1,57,,0.0,NoMusic
1628937432.1469998,fixation,1,57,0.597,1.0,NoMusic
1628937433.05,stimulus,1,58,,0.0,NoMusic
1628937433.981,fixation,1,58,0.431,1.0,NoMusic
1628937435.05,stimulus,1,59,,0.0,NoMusic
1628937436.018,fixation,1,59,0.468,1.0,NoMusic
1628937437.05,stimulus,1,60,,0.0,NoMusic
1628937438.001,fixation,1,60,0.451,1.0,NoMusic
1628937439.05,stimulus,1,61,,0.0,NoMusic
1628937440.075,fixation,1,61,0.525,1.0,NoMusic
1628937441.05,stimulus,1,62,,0.0,NoMusic
1628937442.1929998,fixation,1,62,0.643,1.0,NoMusic
1628937443.05,stimulus,1,63,,0.0,NoMusic
1628937444.263,fixation,1,63,0.713,1.0,NoMusic
1628937445.05,stimulus,1,64,,0.0,NoMusic
1628937446.254,fixation,1,64,0.704,1.0,NoMusic
1628937447.05,stimulus,1,65,,0.0,NoMusic
1628937448.175,fixation,1,65,0.625,1.0,NoMusic
1628937449.05,stimulus,1,66,,0.0,NoMusic
1628937450.1039999,fixation,1,66,0.554,1.0,NoMusic
1628937451.05,stimulus,1,67,,0.0,NoMusic
1628937452.146,fixation,1,67,0.596,1.0,NoMusic
1628937453.05,stimulus,1,68,,0.0,NoMusic
1628937453.8079998,fixation,1,68,0.258,1.0,NoMusic
1628937455.05,stimulus,1,69,,0.0,NoMusic
1628937455.651,fixation,1,69,0.101,1.0,NoMusic
1628937457.05,stimulus,1,70,,0.0,NoMusic
1628937457.951,fixation,1,70,0.401,1.0,NoMusic
1628937459.05,stimulus,1,71,,0.0,NoMusic
1628937459.9359999,fixation,1,71,0.386,1.0,NoMusic
1628937461.05,stimulus,1,72,,0.0,NoMusic
1628937462.177,fixation,1,72,0.627,0.0,NoMusic
1628937463.05,stimulus,1,73,,0.0,NoMusic
1628937464.1269999,fixation,1,73,0.577,1.0,NoMusic
1628937465.05,stimulus,1,74,,0.0,NoMusic
1628937465.931,fixation,1,74,0.381,1.0,NoMusic
1628937467.05,stimulus,1,75,,0.0,NoMusic
1628937468.296,fixation,1,75,0.746,0.0,NoMusic
1628937469.05,stimulus,1,76,,0.0,NoMusic
1628937470.233,fixation,1,76,0.683,1.0,NoMusic
1628937471.05,stimulus,1,77,,0.0,NoMusic
1628937471.737,fixation,1,77,0.187,0.0,NoMusic
1628937473.05,stimulus,1,78,,0.0,NoMusic
1628937474.7549999,fixation,1,78,1.205,1.0,NoMusic
1628937475.05,stimulus,1,79,,0.0,NoMusic
1628937476.428,fixation,1,79,0.878,1.0,NoMusic
1628937477.05,stimulus,1,80,,0.0,NoMusic
1628937477.975,fixation,1,80,0.425,1.0,NoMusic
1628937479.05,stimulus,1,81,,0.0,NoMusic
1628937480.088,fixation,1,81,0.538,1.0,NoMusic
1628937481.05,stimulus,1,82,,0.0,NoMusic
1628937482.1239998,fixation,1,82,0.574,0.0,NoMusic
1628937483.05,stimulus,1,83,,0.0,NoMusic
1628937484.81,fixation,1,83,1.26,1.0,NoMusic
1628937485.05,stimulus,1,84,,0.0,NoMusic
1628937485.55,fixation,1,84,,0.0,NoMusic
1628937487.412,stimulus,1,85,0.362,1.0,NoMusic
1628937487.55,fixation,1,85,,0.0,NoMusic
1628937489.05,stimulus,1,86,,0.0,NoMusic
1628937490.2619998,fixation,1,86,0.712,1.0,NoMusic
1628937491.05,stimulus,1,87,,0.0,NoMusic
1628937492.059,fixation,1,87,0.509,1.0,NoMusic
1628937493.05,stimulus,1,88,,0.0,NoMusic
1628937494.074,fixation,1,88,0.524,1.0,NoMusic
1628937495.05,stimulus,1,89,,0.0,NoMusic
1628937495.768,fixation,1,89,0.218,1.0,NoMusic
1628937497.513,stimulus,1,90,0.463,1.0,NoMusic
1628937497.55,fixation,1,90,,0.0,NoMusic
1628937499.361,stimulus,1,91,0.311,1.0,NoMusic
1628937499.55,fixation,1,91,,0.0,NoMusic
1628937501.05,stimulus,1,92,,0.0,NoMusic
1628937501.7489998,fixation,1,92,0.199,1.0,NoMusic
1628937503.05,stimulus,1,93,,0.0,NoMusic
1628937503.971,fixation,1,93,0.421,0.0,NoMusic
1628937505.05,stimulus,1,94,,0.0,NoMusic
1628937505.886,fixation,1,94,0.336,1.0,NoMusic
1628937507.05,stimulus,1,95,,0.0,NoMusic
1628937508.4889998,fixation,1,95,0.939,1.0,NoMusic
1628937509.05,stimulus,1,96,,0.0,NoMusic
1628937510.254,fixation,1,96,0.704,1.0,NoMusic
1628937511.05,stimulus,1,97,,0.0,NoMusic
1628937512.1529999,fixation,1,97,0.603,1.0,NoMusic
1628937513.05,stimulus,1,98,,0.0,NoMusic
1628937514.0119998,fixation,1,98,0.462,1.0,NoMusic
1628937515.05,stimulus,1,99,,0.0,NoMusic
1628937515.917,fixation,1,99,0.367,1.0,NoMusic
1628937517.05,stimulus,1,100,,0.0,NoMusic
1628937517.917,fixation,1,100,0.367,1.0,NoMusic
1628937519.05,stimulus,1,101,,0.0,NoMusic
1628937520.0479999,fixation,1,101,0.498,0.0,NoMusic
1628937521.05,stimulus,1,102,,0.0,NoMusic
1628937522.029,fixation,1,102,0.479,1.0,NoMusic
1628937523.05,stimulus,1,103,,0.0,NoMusic
1628937524.0279999,fixation,1,103,0.478,1.0,NoMusic
1628937525.05,stimulus,1,104,,0.0,NoMusic
1628937526.1,fixation,1,104,0.55,1.0,NoMusic
1628937527.05,stimulus,1,105,,0.0,NoMusic
1628937528.063,fixation,1,105,0.513,1.0,NoMusic
1628937529.05,stimulus,1,106,,0.0,NoMusic
1628937530.498,fixation,1,106,0.948,1.0,NoMusic
1628937531.05,stimulus,1,107,,0.0,NoMusic
1628937532.428,fixation,1,107,0.878,1.0,NoMusic
1628937533.05,stimulus,1,108,,0.0,NoMusic
1628937534.1699998,fixation,1,108,0.62,1.0,NoMusic
1628937535.05,stimulus,1,109,,0.0,NoMusic
1628937536.189,fixation,1,109,0.639,1.0,NoMusic
1628937537.05,stimulus,1,110,,0.0,NoMusic
1628937538.142,fixation,1,110,0.592,1.0,NoMusic
1628937539.05,stimulus,1,111,,0.0,NoMusic
1628937539.827,fixation,1,111,0.277,1.0,NoMusic
1628937541.05,stimulus,1,112,,0.0,NoMusic
1628937541.747,fixation,1,112,0.197,1.0,NoMusic
1628937543.05,stimulus,1,113,,0.0,NoMusic
1628937543.699,fixation,1,113,0.149,1.0,NoMusic
1628937545.05,stimulus,1,114,,0.0,NoMusic
1628937545.836,fixation,1,114,0.286,1.0,NoMusic
1628937547.05,stimulus,1,115,,0.0,NoMusic
1628937547.891,fixation,1,115,0.341,1.0,NoMusic
1628937549.05,stimulus,1,116,,0.0,NoMusic
1628937549.73,fixation,1,116,0.18,1.0,NoMusic
1628937551.518,stimulus,1,117,0.468,1.0,NoMusic
1628937551.55,fixation,1,117,,0.0,NoMusic
1628937553.05,stimulus,1,118,,0.0,NoMusic
1628937553.8009999,fixation,1,118,0.251,1.0,NoMusic
1628937555.05,stimulus,1,119,,0.0,NoMusic
1628937555.689,fixation,1,119,0.139,1.0,NoMusic
1628937557.05,stimulus,1,120,,0.0,NoMusic
1628937557.832,fixation,1,120,0.282,1.0,NoMusic
1628937559.05,stimulus,1,121,,0.0,NoMusic
1628937559.8639998,fixation,1,121,0.314,1.0,NoMusic
1628937561.05,stimulus,1,122,,0.0,NoMusic
1628937561.971,fixation,1,122,0.421,1.0,NoMusic
1628937563.05,stimulus,1,123,,0.0,NoMusic
1628937564.0279999,fixation,1,123,0.478,1.0,NoMusic
1628937565.05,stimulus,1,124,,0.0,NoMusic
1628937565.7489998,fixation,1,124,0.199,1.0,NoMusic
1628937567.05,stimulus,1,125,,0.0,NoMusic
1628937568.089,fixation,1,125,0.539,1.0,NoMusic
1628937569.05,stimulus,1,126,,0.0,NoMusic
1628937570.263,fixation,1,126,0.713,1.0,NoMusic
1628937571.05,stimulus,1,127,,0.0,NoMusic
1628937572.017,fixation,1,127,0.467,1.0,NoMusic
1628937573.05,stimulus,1,128,,0.0,NoMusic
1628937574.011,fixation,1,128,0.461,1.0,NoMusic
1628937575.05,stimulus,1,129,,0.0,NoMusic
1628937575.932,fixation,1,129,0.382,1.0,NoMusic
1628937577.05,stimulus,1,130,,0.0,NoMusic
1628937577.894,fixation,1,130,0.344,1.0,NoMusic
1628937579.05,stimulus,1,131,,0.0,NoMusic
1628937579.895,fixation,1,131,0.345,1.0,NoMusic
1628937581.05,stimulus,1,132,,0.0,NoMusic
1628937581.828,fixation,1,132,0.278,1.0,NoMusic
1628937583.05,stimulus,1,133,,0.0,NoMusic
1628937584.1929998,fixation,1,133,0.643,1.0,NoMusic
1628937585.05,stimulus,1,134,,0.0,NoMusic
1628937585.934,fixation,1,134,0.384,1.0,NoMusic
1628937587.05,stimulus,1,135,,0.0,NoMusic
1628937587.645,fixation,1,135,0.095,1.0,NoMusic
1628937589.05,stimulus,1,136,,0.0,NoMusic
1628937589.894,fixation,1,136,0.344,1.0,NoMusic
1628937591.05,stimulus,1,137,,0.0,NoMusic
1628937591.957,fixation,1,137,0.407,1.0,NoMusic
1628937593.05,stimulus,1,138,,0.0,NoMusic
1628937593.919,fixation,1,138,0.369,1.0,NoMusic
1628937595.05,stimulus,1,139,,0.0,NoMusic
1628937596.0279999,fixation,1,139,0.478,1.0,NoMusic
1628937597.05,stimulus,1,140,,0.0,NoMusic
1628937597.889,fixation,1,140,0.339,1.0,NoMusic
1628937599.05,stimulus,1,141,,0.0,NoMusic
1628937600.346,fixation,1,141,0.796,0.0,NoMusic
1628937601.05,stimulus,1,142,,0.0,NoMusic
1628937602.511,fixation,1,142,0.961,1.0,NoMusic
1628937603.05,stimulus,1,143,,0.0,NoMusic
1628937604.244,fixation,1,143,0.694,1.0,NoMusic
1628937605.05,stimulus,1,144,,0.0,NoMusic
1628937605.971,fixation,1,144,0.421,1.0,NoMusic
1628937607.05,stimulus,1,145,,0.0,NoMusic
1628937608.0479999,fixation,1,145,0.498,0.0,NoMusic
1628937609.05,stimulus,1,146,,0.0,NoMusic
1628937610.549,fixation,1,146,0.999,1.0,NoMusic
1628937611.05,stimulus,1,147,,0.0,NoMusic
1628937612.757,fixation,1,147,1.207,1.0,NoMusic
1628937613.05,stimulus,1,148,,0.0,NoMusic
1628937614.06,fixation,1,148,0.51,1.0,NoMusic
1628937615.05,stimulus,1,149,,0.0,NoMusic
1628937616.109,fixation,1,149,0.559,1.0,NoMusic
1628937617.05,stimulus,1,150,,0.0,NoMusic
1628937617.907,fixation,1,150,0.357,0.0,NoMusic
1628937619.05,stimulus,1,151,,0.0,NoMusic
1628937619.9919999,fixation,1,151,0.442,0.0,NoMusic
1628937621.05,stimulus,1,152,,0.0,NoMusic
1628937622.05,fixation,1,152,0.5,0.0,NoMusic
1628937623.05,stimulus,1,153,,0.0,NoMusic
1628937624.018,fixation,1,153,0.468,1.0,NoMusic
1628937625.05,stimulus,1,154,,0.0,NoMusic
1628937625.9689999,fixation,1,154,0.419,1.0,NoMusic
1628937627.05,stimulus,1,155,,0.0,NoMusic
1628937627.652,fixation,1,155,0.102,1.0,NoMusic
1628937629.4329998,stimulus,1,156,0.383,1.0,NoMusic
1628937629.55,fixation,1,156,,0.0,NoMusic
1628937631.05,stimulus,1,157,,0.0,NoMusic
1628937631.643,fixation,1,157,0.093,1.0,NoMusic
1628937633.05,stimulus,1,158,,0.0,NoMusic
1628937634.083,fixation,1,158,0.533,1.0,NoMusic
1628937635.05,stimulus,1,159,,0.0,NoMusic
1628937635.95,fixation,1,159,0.4,1.0,NoMusic
1628937637.05,stimulus,1,160,,0.0,NoMusic
1628937638.027,fixation,1,160,0.477,1.0,NoMusic
1628937639.05,stimulus,1,161,,0.0,NoMusic
1628937639.924,fixation,1,161,0.374,1.0,NoMusic
1628937641.05,stimulus,1,162,,0.0,NoMusic
1628937642.056,fixation,1,162,0.506,1.0,NoMusic
1628937643.05,stimulus,1,163,,0.0,NoMusic
1628937644.268,fixation,1,163,0.718,1.0,NoMusic
1628937645.05,stimulus,1,164,,0.0,NoMusic
1628937646.162,fixation,1,164,0.612,1.0,NoMusic
1628937647.05,stimulus,1,165,,0.0,NoMusic
1628937648.0679998,fixation,1,165,0.518,1.0,NoMusic
1628937649.05,stimulus,1,166,,0.0,NoMusic
1628937650.108,fixation,1,166,0.558,1.0,NoMusic
1628937651.05,stimulus,1,167,,0.0,NoMusic
1628937652.2949998,fixation,1,167,0.745,1.0,NoMusic
1628937653.05,stimulus,1,168,,0.0,NoMusic
1628937654.0679998,fixation,1,168,0.518,1.0,NoMusic
1628937655.05,stimulus,1,169,,0.0,NoMusic
1628937656.029,fixation,1,169,0.479,1.0,NoMusic
1628937657.05,stimulus,1,170,,0.0,NoMusic
1628937657.907,fixation,1,170,0.357,1.0,NoMusic
1628937659.05,stimulus,1,171,,0.0,NoMusic
1628937660.074,fixation,1,171,0.524,1.0,NoMusic
1628937661.05,stimulus,1,172,,0.0,NoMusic
1628937662.125,fixation,1,172,0.575,1.0,NoMusic
1628937663.05,stimulus,1,173,,0.0,NoMusic
1628937664.079,fixation,1,173,0.529,1.0,NoMusic
1628937665.05,stimulus,1,174,,0.0,NoMusic
1628937666.231,fixation,1,174,0.681,1.0,NoMusic
1628937667.05,stimulus,1,175,,0.0,NoMusic
1628937668.378,fixation,1,175,0.828,0.0,NoMusic
1628937669.05,stimulus,1,176,,0.0,NoMusic
1628937670.534,fixation,1,176,0.984,1.0,NoMusic
1628937671.05,stimulus,1,177,,0.0,NoMusic
1628937672.141,fixation,1,177,0.591,1.0,NoMusic
1628937673.05,stimulus,1,178,,0.0,NoMusic
1628937673.8209999,fixation,1,178,0.271,1.0,NoMusic
1628937675.05,stimulus,1,179,,0.0,NoMusic
1628937675.679,fixation,1,179,0.129,1.0,NoMusic
1628937677.05,stimulus,1,180,,0.0,NoMusic
1628937678.132,fixation,1,180,0.582,1.0,NoMusic
1628937679.05,stimulus,1,181,,0.0,NoMusic
1628937679.8409998,fixation,1,181,0.291,1.0,NoMusic
1628937681.05,stimulus,1,182,,0.0,NoMusic
1628937682.0449998,fixation,1,182,0.495,1.0,NoMusic
1628937683.05,stimulus,1,183,,0.0,NoMusic
1628937684.181,fixation,1,183,0.631,1.0,NoMusic
1628937685.05,stimulus,1,184,,0.0,NoMusic
1628937686.144,fixation,1,184,0.594,1.0,NoMusic
1628937687.05,stimulus,1,185,,0.0,NoMusic
1628937688.004,fixation,1,185,0.454,1.0,NoMusic
1628937689.05,stimulus,1,186,,0.0,NoMusic
1628937690.02,fixation,1,186,0.47,1.0,NoMusic
1628937691.05,stimulus,1,187,,0.0,NoMusic
1628937692.2489998,fixation,1,187,0.699,1.0,NoMusic
1628937693.05,stimulus,1,188,,0.0,NoMusic
1628937694.046,fixation,1,188,0.496,1.0,NoMusic
1628937695.05,stimulus,1,189,,0.0,NoMusic
1628937695.9919999,fixation,1,189,0.442,1.0,NoMusic
1628937697.05,stimulus,1,190,,0.0,NoMusic
1628937698.1699998,fixation,1,190,0.62,1.0,NoMusic
1628937699.05,stimulus,1,191,,0.0,NoMusic
1628937700.075,fixation,1,191,0.525,1.0,NoMusic
1628937701.05,stimulus,1,192,,0.0,NoMusic
1628937701.986,fixation,1,192,0.436,1.0,NoMusic
1628937703.05,stimulus,1,193,,0.0,NoMusic
1628937703.9589999,fixation,1,193,0.409,1.0,NoMusic
1628937705.05,stimulus,1,194,,0.0,NoMusic
1628937706.087,fixation,1,194,0.537,1.0,NoMusic
1628937707.05,stimulus,1,195,,0.0,NoMusic
1628937708.085,fixation,1,195,0.535,1.0,NoMusic
1628937709.05,stimulus,1,196,,0.0,NoMusic
1628937710.011,fixation,1,196,0.461,1.0,NoMusic
1628937711.05,stimulus,1,197,,0.0,NoMusic
1628937712.221,fixation,1,197,0.671,1.0,NoMusic
1628937713.05,stimulus,1,198,,0.0,NoMusic
1628937714.059,fixation,1,198,0.509,1.0,NoMusic
1628937715.05,stimulus,1,199,,0.0,NoMusic
1628937715.899,fixation,1,199,0.349,1.0,NoMusic
1628937717.5279999,stimulus,1,200,0.478,1.0,NoMusic
1628937717.55,fixation,1,200,,0.0,NoMusic
1628937719.371,stimulus,1,201,0.321,1.0,NoMusic
1628937719.55,fixation,1,201,,0.0,NoMusic
1628937721.05,stimulus,1,202,,0.0,NoMusic
1628937721.751,fixation,1,202,0.201,1.0,NoMusic
1628937723.05,stimulus,1,203,,0.0,NoMusic
1628937723.934,fixation,1,203,0.384,1.0,NoMusic
1628937725.05,stimulus,1,204,,0.0,NoMusic
1628937725.994,fixation,1,204,0.444,1.0,NoMusic
1628937727.05,stimulus,1,205,,0.0,NoMusic
1628937728.4659998,fixation,1,205,0.916,1.0,NoMusic
1628937729.05,stimulus,1,206,,0.0,NoMusic
1628937730.415,fixation,1,206,0.865,1.0,NoMusic
1628937731.05,stimulus,1,207,,0.0,NoMusic
1628937732.168,fixation,1,207,0.618,0.0,NoMusic
1628937733.05,stimulus,1,208,,0.0,NoMusic
1628937734.144,fixation,1,208,0.594,0.0,NoMusic
1628937735.05,stimulus,1,209,,0.0,NoMusic
1628937736.208,fixation,1,209,0.658,1.0,NoMusic
1628937737.05,stimulus,1,210,,0.0,NoMusic
1628937738.129,fixation,1,210,0.579,1.0,NoMusic
1628937739.05,stimulus,1,211,,0.0,NoMusic
1628937740.029,fixation,1,211,0.479,1.0,NoMusic
1628937741.05,stimulus,1,212,,0.0,NoMusic
1628937741.974,fixation,1,212,0.424,1.0,NoMusic
1628937743.05,stimulus,1,213,,0.0,NoMusic
1628937743.939,fixation,1,213,0.389,1.0,NoMusic
1628937745.05,stimulus,1,214,,0.0,NoMusic
1628937746.036,fixation,1,214,0.486,1.0,NoMusic
1628937747.05,stimulus,1,215,,0.0,NoMusic
1628937748.093,fixation,1,215,0.543,0.0,NoMusic
1628937749.05,stimulus,1,216,,0.0,NoMusic
1628937750.439,fixation,1,216,0.889,1.0,NoMusic
1628937751.05,stimulus,1,217,,0.0,NoMusic
1628937752.6959999,fixation,1,217,1.146,0.0,NoMusic
1628937753.05,stimulus,1,218,,0.0,NoMusic
1628937754.175,fixation,1,218,0.625,1.0,NoMusic
1628937755.05,stimulus,1,219,,0.0,NoMusic
1628937756.256,fixation,1,219,0.706,1.0,NoMusic
1628937757.05,stimulus,1,220,,0.0,NoMusic
1628937758.055,fixation,1,220,0.505,1.0,NoMusic
1628937759.05,stimulus,1,221,,,NoMusic
1628937759.55,fixation,1,221,,,NoMusic
1628937761.05,stimulus,1,222,,0.0,NoMusic
1628937762.077,fixation,1,222,0.527,1.0,NoMusic
1628937763.05,stimulus,1,223,,0.0,NoMusic
1628937763.59,fixation,1,223,0.04,1.0,NoMusic
1628937765.487,stimulus,1,224,0.437,1.0,NoMusic
1628937765.55,fixation,1,224,,0.0,NoMusic
1628937767.05,stimulus,1,225,,0.0,NoMusic
1628937767.69,fixation,1,225,0.14,1.0,NoMusic
1628937769.05,stimulus,1,226,,0.0,NoMusic
1628937770.125,fixation,1,226,0.575,1.0,NoMusic
1628937771.05,stimulus,1,227,,0.0,NoMusic
1628937772.52,fixation,1,227,0.97,1.0,NoMusic
1628937773.05,stimulus,1,228,,0.0,NoMusic
1628937774.243,fixation,1,228,0.693,1.0,NoMusic
1628937775.05,stimulus,1,229,,0.0,NoMusic
1628937776.191,fixation,1,229,0.641,1.0,NoMusic
1628937777.05,stimulus,1,230,,0.0,NoMusic
1628937778.076,fixation,1,230,0.526,0.0,NoMusic
1628937779.05,stimulus,1,231,,0.0,NoMusic
1628937779.97,fixation,1,231,0.42,1.0,NoMusic
1628937781.05,stimulus,1,232,,0.0,NoMusic
1628937782.723,fixation,1,232,1.173,1.0,NoMusic
1628937783.05,stimulus,1,233,,0.0,NoMusic
1628937784.126,fixation,1,233,0.576,0.0,NoMusic
1628937785.05,stimulus,1,234,,0.0,NoMusic
1628937785.9789999,fixation,1,234,0.429,1.0,NoMusic
1628937787.05,stimulus,1,235,,0.0,NoMusic
1628937787.55,fixation,1,235,,0.0,NoMusic
1628937789.05,stimulus,1,236,,0.0,NoMusic
1628937789.9659998,fixation,1,236,0.416,1.0,NoMusic
1628937791.05,stimulus,1,237,,0.0,NoMusic
1628937791.962,fixation,1,237,0.412,1.0,NoMusic
1628937793.05,stimulus,1,238,,0.0,NoMusic
1628937794.078,fixation,1,238,0.528,1.0,NoMusic
1628937795.05,stimulus,1,239,,0.0,NoMusic
1628937796.052,fixation,1,239,0.502,1.0,NoMusic
1628937797.05,stimulus,1,240,,0.0,NoMusic
1628937798.099,fixation,1,240,0.549,1.0,NoMusic
1628937799.05,stimulus,1,241,,0.0,NoMusic
1628937799.884,fixation,1,241,0.334,0.0,NoMusic
1628937801.05,stimulus,1,242,,0.0,NoMusic
1628937802.657,fixation,1,242,1.107,1.0,NoMusic
1628937803.05,stimulus,1,243,,0.0,NoMusic
1628937804.379,fixation,1,243,0.829,1.0,NoMusic
1628937805.05,stimulus,1,244,,0.0,NoMusic
1628937806.0709999,fixation,1,244,0.521,1.0,NoMusic
1628937807.05,stimulus,1,245,,0.0,NoMusic
1628937807.842,fixation,1,245,0.292,1.0,NoMusic
1628937809.05,stimulus,1,246,,0.0,NoMusic
1628937809.904,fixation,1,246,0.354,1.0,NoMusic
1628937811.05,stimulus,1,247,,0.0,NoMusic
1628937811.983,fixation,1,247,0.433,1.0,NoMusic
1628937813.05,stimulus,1,248,,0.0,NoMusic
1628937813.791,fixation,1,248,0.241,1.0,NoMusic
1628937815.05,stimulus,1,249,,0.0,NoMusic
1628937815.726,fixation,1,249,0.176,1.0,NoMusic
1628937817.05,stimulus,1,250,,0.0,NoMusic
1628937817.634,fixation,1,250,0.084,1.0,NoMusic
1628937819.05,stimulus,1,251,,0.0,NoMusic
1628937819.893,fixation,1,251,0.343,1.0,NoMusic
1628937821.05,stimulus,1,252,,0.0,NoMusic
1628937821.917,fixation,1,252,0.367,1.0,NoMusic
1628937823.05,stimulus,1,253,,0.0,NoMusic
1628937823.935,fixation,1,253,0.385,1.0,NoMusic
1628937825.05,stimulus,1,254,,0.0,NoMusic
1628937825.917,fixation,1,254,0.367,1.0,NoMusic
1628937827.05,stimulus,1,255,,0.0,NoMusic
1628937827.8739998,fixation,1,255,0.324,1.0,NoMusic
1628937829.05,stimulus,1,256,,0.0,NoMusic
1628937830.047,fixation,1,256,0.497,1.0,NoMusic
1628937831.05,stimulus,1,257,,0.0,NoMusic
1628937832.034,fixation,1,257,0.484,1.0,NoMusic
1628937833.05,stimulus,1,258,,0.0,NoMusic
1628937833.921,fixation,1,258,0.371,1.0,NoMusic
1628937835.05,stimulus,1,259,,0.0,NoMusic
1628937835.875,fixation,1,259,0.325,1.0,NoMusic
1628937837.05,stimulus,1,260,,0.0,NoMusic
1628937837.871,fixation,1,260,0.321,1.0,NoMusic
1628937839.05,stimulus,1,261,,0.0,NoMusic
1628937839.771,fixation,1,261,0.221,1.0,NoMusic
1628937841.05,stimulus,1,262,,0.0,NoMusic
1628937841.711,fixation,1,262,0.161,1.0,NoMusic
1628937843.05,stimulus,1,263,,0.0,NoMusic
1628937843.891,fixation,1,263,0.341,1.0,NoMusic
1628937845.05,stimulus,1,264,,0.0,NoMusic
1628937845.9989998,fixation,1,264,0.449,1.0,NoMusic
1628937847.05,stimulus,1,265,,0.0,NoMusic
1628937848.03,fixation,1,265,0.48,1.0,NoMusic
1628937849.05,stimulus,1,266,,0.0,NoMusic
1628937850.412,fixation,1,266,0.862,1.0,NoMusic
1628937851.05,stimulus,1,267,,0.0,NoMusic
1628937852.105,fixation,1,267,0.555,1.0,NoMusic
1628937853.05,stimulus,1,268,,0.0,NoMusic
1628937853.9229999,fixation,1,268,0.373,1.0,NoMusic
1628937855.05,stimulus,1,269,,0.0,NoMusic
1628937855.996,fixation,1,269,0.446,1.0,NoMusic
1628937857.05,stimulus,1,270,,0.0,NoMusic
1628937858.044,fixation,1,270,0.494,1.0,NoMusic
1628937859.05,stimulus,1,271,,0.0,NoMusic
1628937860.096,fixation,1,271,0.546,1.0,NoMusic
1628937861.05,stimulus,1,272,,0.0,NoMusic
1628937861.924,fixation,1,272,0.374,1.0,NoMusic
1628937863.05,stimulus,1,273,,0.0,NoMusic
1628937863.9329998,fixation,1,273,0.383,1.0,NoMusic
1628937865.05,stimulus,1,274,,0.0,NoMusic
1628937865.942,fixation,1,274,0.392,1.0,NoMusic
1628937867.05,stimulus,1,275,,0.0,NoMusic
1628937868.154,fixation,1,275,0.604,1.0,NoMusic
1628937869.05,stimulus,1,276,,0.0,NoMusic
1628937869.894,fixation,1,276,0.344,1.0,NoMusic
1628937871.05,stimulus,1,277,,0.0,NoMusic
1628937871.961,fixation,1,277,0.411,1.0,NoMusic
1628937873.05,stimulus,1,278,,0.0,NoMusic
1628937874.0609999,fixation,1,278,0.511,1.0,NoMusic
1628937875.05,stimulus,1,279,,0.0,NoMusic
1628937876.088,fixation,1,279,0.538,1.0,NoMusic
1628937877.05,stimulus,1,280,,0.0,NoMusic
1628937878.006,fixation,1,280,0.456,1.0,NoMusic
1628937879.05,stimulus,1,281,,0.0,NoMusic
1628937880.0839999,fixation,1,281,0.534,1.0,NoMusic
1628937881.05,stimulus,1,282,,0.0,NoMusic
1628937882.006,fixation,1,282,0.456,1.0,NoMusic
1628937883.05,stimulus,1,283,,0.0,NoMusic
1628937884.0939999,fixation,1,283,0.544,1.0,NoMusic
1628937885.05,stimulus,1,284,,0.0,NoMusic
1628937886.096,fixation,1,284,0.546,1.0,NoMusic
1628937887.05,stimulus,1,285,,0.0,NoMusic
1628937888.12,fixation,1,285,0.57,1.0,NoMusic
1628937889.05,stimulus,1,286,,0.0,NoMusic
1628937890.065,fixation,1,286,0.515,1.0,NoMusic
1628937891.05,stimulus,1,287,,0.0,NoMusic
1628937891.94,fixation,1,287,0.39,1.0,NoMusic
1628937893.05,stimulus,1,288,,0.0,NoMusic
1628937893.8669999,fixation,1,288,0.317,1.0,NoMusic
1628937895.05,stimulus,1,289,,0.0,NoMusic
1628937895.567,fixation,1,289,0.017,1.0,NoMusic
1628937897.4359999,stimulus,1,290,0.386,1.0,NoMusic
1628937897.55,fixation,1,290,,0.0,NoMusic
1628937899.05,stimulus,1,291,,0.0,NoMusic
1628937899.816,fixation,1,291,0.266,1.0,NoMusic
1628937901.05,stimulus,1,292,,0.0,NoMusic
1628937902.118,fixation,1,292,0.568,1.0,NoMusic
1628937903.05,stimulus,1,293,,0.0,NoMusic
1628937904.142,fixation,1,293,0.592,1.0,NoMusic
1628937905.05,stimulus,1,294,,0.0,NoMusic
1628937906.055,fixation,1,294,0.505,0.0,NoMusic
1628937907.05,stimulus,1,295,,0.0,NoMusic
1628937907.98,fixation,1,295,0.43,1.0,NoMusic
1628937909.05,stimulus,1,296,,0.0,NoMusic
1628937910.029,fixation,1,296,0.479,1.0,NoMusic
1628937911.05,stimulus,1,297,,0.0,NoMusic
1628937912.006,fixation,1,297,0.456,1.0,NoMusic
1628937913.05,stimulus,1,298,,0.0,NoMusic
1628937914.143,fixation,1,298,0.593,0.0,NoMusic
1628937915.05,stimulus,1,299,,0.0,NoMusic
1628937916.282,fixation,1,299,0.732,1.0,NoMusic
1628937917.05,stimulus,1,300,,0.0,NoMusic
1628937918.527,fixation,1,300,0.977,1.0,NoMusic
1628937919.05,stimulus,1,301,,0.0,NoMusic
1628937920.3339999,fixation,1,301,0.784,1.0,NoMusic
1628937921.05,stimulus,1,302,,0.0,NoMusic
1628937922.064,fixation,1,302,0.514,1.0,NoMusic
1628937923.05,stimulus,1,303,,0.0,NoMusic
1628937924.075,fixation,1,303,0.525,1.0,NoMusic
1628937925.05,stimulus,1,304,,0.0,NoMusic
1628937926.126,fixation,1,304,0.576,1.0,NoMusic
1628937927.05,stimulus,1,305,,0.0,NoMusic
1628937928.0839999,fixation,1,305,0.534,1.0,NoMusic
1628937929.05,stimulus,1,306,,0.0,NoMusic
1628937930.164,fixation,1,306,0.614,0.0,NoMusic
1628937931.05,stimulus,1,307,,0.0,NoMusic
1628937932.1529999,fixation,1,307,0.603,1.0,NoMusic
1628937933.05,stimulus,1,308,,0.0,NoMusic
1628937934.016,fixation,1,308,0.466,1.0,NoMusic
1628937935.05,stimulus,1,309,,0.0,NoMusic
1628937936.2289999,fixation,1,309,0.679,1.0,NoMusic
1628937937.05,stimulus,1,310,,0.0,NoMusic
1628937937.593,fixation,1,310,0.043,1.0,NoMusic
1628937939.05,stimulus,1,311,,0.0,NoMusic
1628937939.763,fixation,1,311,0.213,1.0,NoMusic
1628937941.05,stimulus,1,312,,0.0,NoMusic
1628937941.744,fixation,1,312,0.194,1.0,NoMusic
1628937943.05,stimulus,1,313,,0.0,NoMusic
1628937943.636,fixation,1,313,0.086,1.0,NoMusic
1628937945.05,stimulus,1,314,,0.0,NoMusic
1628937946.0279999,fixation,1,314,0.478,1.0,NoMusic
1628937947.05,stimulus,1,315,,0.0,NoMusic
1628937948.0149999,fixation,1,315,0.465,1.0,NoMusic
1628937949.05,stimulus,1,316,,0.0,NoMusic
1628937950.304,fixation,1,316,0.754,1.0,NoMusic
1628937951.05,stimulus,1,317,,0.0,NoMusic
1628937952.126,fixation,1,317,0.576,1.0,NoMusic
1628937953.05,stimulus,1,318,,0.0,NoMusic
1628937953.949,fixation,1,318,0.399,1.0,NoMusic
1628937955.05,stimulus,1,319,,0.0,NoMusic
1628937956.1069999,fixation,1,319,0.557,0.0,NoMusic
1628937957.05,stimulus,1,320,,0.0,NoMusic
1628937958.029,fixation,1,320,0.479,1.0,NoMusic
1628937959.05,stimulus,1,321,,0.0,NoMusic
1628937960.129,fixation,1,321,0.579,1.0,NoMusic
1628937961.05,stimulus,1,322,,0.0,NoMusic
1628937962.621,fixation,1,322,1.071,1.0,NoMusic
1628937963.05,stimulus,1,323,,0.0,NoMusic
1628937964.189,fixation,1,323,0.639,1.0,NoMusic
1628937965.05,stimulus,1,324,,0.0,NoMusic
1628937966.0249999,fixation,1,324,0.475,1.0,NoMusic
1628937967.05,stimulus,1,325,,0.0,NoMusic
1628937968.086,fixation,1,325,0.536,1.0,NoMusic
1628937969.05,stimulus,1,326,,0.0,NoMusic
1628937970.116,fixation,1,326,0.566,1.0,NoMusic
1628937971.05,stimulus,1,327,,0.0,NoMusic
1628937972.257,fixation,1,327,0.707,1.0,NoMusic
1628937973.05,stimulus,1,328,,0.0,NoMusic
1628937974.118,fixation,1,328,0.568,1.0,NoMusic
1628937975.05,stimulus,1,329,,0.0,NoMusic
1628937976.1859999,fixation,1,329,0.636,1.0,NoMusic
1628937977.05,stimulus,1,330,,0.0,NoMusic
1628937978.526,fixation,1,330,0.976,1.0,NoMusic
1628937979.05,stimulus,1,331,,0.0,NoMusic
1628937980.58,fixation,1,331,1.03,1.0,NoMusic
1628937981.05,stimulus,1,332,,0.0,NoMusic
1628937982.0,fixation,1,332,0.45,1.0,NoMusic
1628937983.05,stimulus,1,333,,0.0,NoMusic
1628937983.819,fixation,1,333,0.269,1.0,NoMusic
1628937985.05,stimulus,1,334,,0.0,NoMusic
1628937985.9029999,fixation,1,334,0.353,1.0,NoMusic
1628937987.05,stimulus,1,335,,0.0,NoMusic
1628937988.289,fixation,1,335,0.739,1.0,NoMusic
1628937989.05,stimulus,1,336,,0.0,NoMusic
1628937989.978,fixation,1,336,0.428,1.0,NoMusic
1628937991.05,stimulus,1,337,,0.0,NoMusic
1628937991.927,fixation,1,337,0.377,1.0,NoMusic
1628937993.05,stimulus,1,338,,0.0,NoMusic
1628937993.7389998,fixation,1,338,0.189,1.0,NoMusic
1628937995.05,stimulus,1,339,,0.0,NoMusic
1628937995.769,fixation,1,339,0.219,0.0,NoMusic
1628937997.05,stimulus,1,340,,0.0,NoMusic
1628937997.9889998,fixation,1,340,0.439,1.0,NoMusic
1628937999.05,stimulus,1,341,,0.0,NoMusic
1628937999.932,fixation,1,341,0.382,1.0,NoMusic
1628938001.05,stimulus,1,342,,0.0,NoMusic
1628938001.908,fixation,1,342,0.358,1.0,NoMusic
1628938003.05,stimulus,1,343,,0.0,NoMusic
1628938004.066,fixation,1,343,0.516,1.0,NoMusic
1628938005.05,stimulus,1,344,,0.0,NoMusic
1628938005.9559999,fixation,1,344,0.406,1.0,NoMusic
1628938007.05,stimulus,1,345,,0.0,NoMusic
1628938008.021,fixation,1,345,0.471,1.0,NoMusic
1628938009.05,stimulus,1,346,,0.0,NoMusic
1628938010.003,fixation,1,346,0.453,1.0,NoMusic
1628938011.05,stimulus,1,347,,0.0,NoMusic
1628938012.115,fixation,1,347,0.565,1.0,NoMusic
1628938013.05,stimulus,1,348,,0.0,NoMusic
1628938014.1399999,fixation,1,348,0.59,1.0,NoMusic
1628938015.05,stimulus,1,349,,0.0,NoMusic
1628938015.93,fixation,1,349,0.38,1.0,NoMusic
1628938017.05,stimulus,1,350,,0.0,NoMusic
1628938018.02,fixation,1,350,0.47,1.0,NoMusic
1628938019.05,stimulus,1,351,,0.0,NoMusic
1628938020.024,fixation,1,351,0.474,1.0,NoMusic
1628938021.05,stimulus,1,352,,0.0,NoMusic
1628938022.073,fixation,1,352,0.523,1.0,NoMusic
1628938023.05,stimulus,1,353,,0.0,NoMusic
1628938023.964,fixation,1,353,0.414,1.0,NoMusic
1628938025.05,stimulus,1,354,,0.0,NoMusic
1628938026.031,fixation,1,354,0.481,1.0,NoMusic
1628938027.5149999,stimulus,1,355,0.465,1.0,NoMusic
1628938027.55,fixation,1,355,,0.0,NoMusic
1628938029.376,stimulus,1,356,0.326,1.0,NoMusic
1628938029.55,fixation,1,356,,0.0,NoMusic
1628938031.05,stimulus,1,357,,0.0,NoMusic
1628938032.0119998,fixation,1,357,0.462,1.0,NoMusic
1628938033.05,stimulus,1,358,,0.0,NoMusic
1628938034.1959999,fixation,1,358,0.646,0.0,NoMusic
1628938035.05,stimulus,1,359,,0.0,NoMusic
1628938035.9989998,fixation,1,359,0.449,1.0,NoMusic
1628938037.05,stimulus,1,360,,0.0,NoMusic
1628938038.3209999,fixation,1,360,0.771,1.0,NoMusic
1628938039.05,stimulus,1,361,,0.0,NoMusic
1628938040.1239998,fixation,1,361,0.574,1.0,NoMusic
1628938041.05,stimulus,1,362,,0.0,NoMusic
1628938042.211,fixation,1,362,0.661,1.0,NoMusic
1628938043.05,stimulus,1,363,,0.0,NoMusic
1628938044.167,fixation,1,363,0.617,1.0,NoMusic
1628938045.05,stimulus,1,364,,0.0,NoMusic
1628938046.18,fixation,1,364,0.63,0.0,NoMusic
1628938047.05,stimulus,1,365,,0.0,NoMusic
1628938048.148,fixation,1,365,0.598,1.0,NoMusic
1628938049.05,stimulus,1,366,,0.0,NoMusic
1628938050.003,fixation,1,366,0.453,1.0,NoMusic
1628938051.05,stimulus,1,367,,0.0,NoMusic
1628938051.997,fixation,1,367,0.447,1.0,NoMusic
1628938053.05,stimulus,1,368,,0.0,NoMusic
1628938054.0119998,fixation,1,368,0.462,1.0,NoMusic
1628938055.05,stimulus,1,369,,0.0,NoMusic
1628938056.075,fixation,1,369,0.525,1.0,NoMusic
1628938057.05,stimulus,1,370,,0.0,NoMusic
1628938058.337,fixation,1,370,0.787,1.0,NoMusic
1628938059.05,stimulus,1,371,,0.0,NoMusic
1628938060.138,fixation,1,371,0.588,1.0,NoMusic
1628938061.05,stimulus,1,372,,0.0,NoMusic
1628938062.067,fixation,1,372,0.517,0.0,NoMusic
1628938063.05,stimulus,1,373,,0.0,NoMusic
1628938064.212,fixation,1,373,0.662,1.0,NoMusic
1628938065.05,stimulus,1,374,,0.0,NoMusic
1628938066.148,fixation,1,374,0.598,0.0,NoMusic
1628938067.05,stimulus,1,375,,0.0,NoMusic
1628938068.234,fixation,1,375,0.684,1.0,NoMusic
1628938069.05,stimulus,1,376,,0.0,NoMusic
1628938069.703,fixation,1,376,0.153,1.0,NoMusic
1628938071.05,stimulus,1,377,,0.0,NoMusic
1628938071.794,fixation,1,377,0.244,1.0,NoMusic
1628938073.05,stimulus,1,378,,0.0,NoMusic
1628938074.019,fixation,1,378,0.469,1.0,NoMusic
1628938075.05,stimulus,1,379,,0.0,NoMusic
1628938076.245,fixation,1,379,0.695,1.0,NoMusic
1628938077.05,stimulus,1,380,,0.0,NoMusic
1628938078.0279999,fixation,1,380,0.478,1.0,NoMusic
1628938079.05,stimulus,1,381,,0.0,NoMusic
1628938079.891,fixation,1,381,0.341,1.0,NoMusic
1628938081.05,stimulus,1,382,,0.0,NoMusic
1628938081.9819999,fixation,1,382,0.432,1.0,NoMusic
1628938083.05,stimulus,1,383,,0.0,NoMusic
1628938083.963,fixation,1,383,0.413,1.0,NoMusic
1628938085.05,stimulus,1,384,,0.0,NoMusic
1628938085.868,fixation,1,384,0.318,1.0,NoMusic
1628938087.05,stimulus,1,385,,0.0,NoMusic
1628938087.927,fixation,1,385,0.377,1.0,NoMusic
1628938089.05,stimulus,1,386,,0.0,NoMusic
1628938089.912,fixation,1,386,0.362,1.0,NoMusic
1628938091.05,stimulus,1,387,,0.0,NoMusic
1628938092.05,fixation,1,387,0.5,1.0,NoMusic
1628938093.05,stimulus,1,388,,0.0,NoMusic
1628938093.9329998,fixation,1,388,0.383,1.0,NoMusic
1628938095.05,stimulus,1,389,,0.0,NoMusic
1628938095.997,fixation,1,389,0.447,1.0,NoMusic
1628938097.05,stimulus,1,390,,0.0,NoMusic
1628938098.105,fixation,1,390,0.555,1.0,NoMusic
1628938099.05,stimulus,1,391,,0.0,NoMusic
1628938100.07,fixation,1,391,0.52,1.0,NoMusic
1628938101.05,stimulus,1,392,,0.0,NoMusic
1628938102.075,fixation,1,392,0.525,1.0,NoMusic
1628938103.05,stimulus,1,393,,0.0,NoMusic
1628938104.156,fixation,1,393,0.606,1.0,NoMusic
1628938105.05,stimulus,1,394,,0.0,NoMusic
1628938106.1,fixation,1,394,0.55,1.0,NoMusic
1628938107.05,stimulus,1,395,,0.0,NoMusic
1628938108.042,fixation,1,395,0.492,1.0,NoMusic
1628938109.05,stimulus,1,396,,0.0,NoMusic
1628938109.983,fixation,1,396,0.433,1.0,NoMusic
1628938111.05,stimulus,1,397,,0.0,NoMusic
1628938111.9129999,fixation,1,397,0.363,1.0,NoMusic
1628938113.05,stimulus,1,398,,,RelaxSession
1628938113.55,fixation,1,398,,,RelaxSession
1628938115.05,stimulus,1,399,,,RelaxSession
1628938115.55,fixation,1,399,,,RelaxSession
1628938117.05,stimulus,1,400,,,RelaxSession
1628938117.55,fixation,1,400,,,RelaxSession
1628938119.05,stimulus,1,401,,,RelaxSession
1628938119.55,fixation,1,401,,,RelaxSession
1628938121.05,stimulus,1,402,,,RelaxSession
1628938121.55,fixation,1,402,,,RelaxSession
1628938123.05,stimulus,1,403,,,RelaxSession
1628938123.55,fixation,1,403,,,RelaxSession
1628938125.05,stimulus,1,404,,,RelaxSession
1628938125.55,fixation,1,404,,,RelaxSession
1628938127.05,stimulus,1,405,,,RelaxSession
1628938127.55,fixation,1,405,,,RelaxSession
1628938129.05,stimulus,1,406,,,RelaxSession
1628938129.55,fixation,1,406,,,RelaxSession
1628938131.05,stimulus,1,407,,,RelaxSession
1628938131.55,fixation,1,407,,,RelaxSession
1628938133.05,stimulus,1,408,,,RelaxSession
1628938133.55,fixation,1,408,,,RelaxSession
1628938135.05,stimulus,1,409,,,RelaxSession
1628938135.55,fixation,1,409,,,RelaxSession
1628938137.05,stimulus,1,410,,,RelaxSession
1628938137.55,fixation,1,410,,,RelaxSession
1628938139.05,stimulus,1,411,,,RelaxSession
1628938139.55,fixation,1,411,,,RelaxSession
1628938141.05,stimulus,1,412,,,RelaxSession
1628938141.55,fixation,1,412,,,RelaxSession
1628938143.05,stimulus,1,413,,,RelaxSession
1628938143.55,fixation,1,413,,,RelaxSession
1628938145.05,stimulus,1,414,,,RelaxSession
1628938145.55,fixation,1,414,,,RelaxSession
1628938147.05,stimulus,1,415,,,RelaxSession
1628938147.55,fixation,1,415,,,RelaxSession
1628938149.05,stimulus,1,416,,,RelaxSession
1628938149.55,fixation,1,416,,,RelaxSession
1628938151.05,stimulus,1,417,,,RelaxSession
1628938151.55,fixation,1,417,,,RelaxSession
1628938153.05,stimulus,1,418,,,RelaxSession
1628938153.55,fixation,1,418,,,RelaxSession
1628938155.05,stimulus,1,419,,,RelaxSession
1628938155.55,fixation,1,419,,,RelaxSession
1628938157.05,stimulus,1,420,,,RelaxSession
1628938157.55,fixation,1,420,,,RelaxSession
1628938159.05,stimulus,1,421,,,RelaxSession
1628938159.55,fixation,1,421,,,RelaxSession
1628938161.05,stimulus,1,422,,,RelaxSession
1628938161.55,fixation,1,422,,,RelaxSession
1628938163.05,stimulus,1,423,,,RelaxSession
1628938163.55,fixation,1,423,,,RelaxSession
1628938165.05,stimulus,1,424,,,RelaxSession
1628938165.55,fixation,1,424,,,RelaxSession
1628938167.05,stimulus,1,425,,,RelaxSession
1628938167.55,fixation,1,425,,,RelaxSession
1628938169.05,stimulus,1,426,,,RelaxSession
1628938169.55,fixation,1,426,,,RelaxSession
1628938171.05,stimulus,1,427,,,RelaxSession
1628938171.55,fixation,1,427,,,RelaxSession
1628938173.05,stimulus,1,428,,,RelaxSession
1628938173.55,fixation,1,428,,,RelaxSession
1628938175.05,stimulus,1,429,,,RelaxSession
1628938175.55,fixation,1,429,,,RelaxSession
1628938177.05,stimulus,1,430,,,RelaxSession
1628938177.55,fixation,1,430,,,RelaxSession
1628938179.05,stimulus,1,431,,,RelaxSession
1628938179.55,fixation,1,431,,,RelaxSession
1628938181.05,stimulus,1,432,,,RelaxSession
1628938181.55,fixation,1,432,,,RelaxSession
1628938183.05,stimulus,1,433,,,RelaxSession
1628938183.55,fixation,1,433,,,RelaxSession
1628938185.05,stimulus,1,434,,,RelaxSession
1628938185.55,fixation,1,434,,,RelaxSession
1628938187.05,stimulus,1,435,,,RelaxSession
1628938187.55,fixation,1,435,,,RelaxSession
1628938189.05,stimulus,1,436,,,RelaxSession
1628938189.55,fixation,1,436,,,RelaxSession
1628938191.05,stimulus,1,437,,,RelaxSession
1628938191.55,fixation,1,437,,,RelaxSession
1628938193.05,stimulus,1,438,,,RelaxSession
1628938193.55,fixation,1,438,,,RelaxSession
1628938195.05,stimulus,1,439,,,RelaxSession
1628938195.55,fixation,1,439,,,RelaxSession
1628938197.05,stimulus,1,440,,,RelaxSession
1628938197.55,fixation,1,440,,,RelaxSession
1628938199.05,stimulus,1,441,,,RelaxSession
1628938199.55,fixation,1,441,,,RelaxSession
1628938201.05,stimulus,1,442,,,RelaxSession
1628938201.55,fixation,1,442,,,RelaxSession
1628938203.05,stimulus,1,443,,,RelaxSession
1628938203.55,fixation,1,443,,,RelaxSession
1628938205.05,stimulus,1,444,,,RelaxSession
1628938205.55,fixation,1,444,,,RelaxSession
1628938207.05,stimulus,1,445,,,RelaxSession
1628938207.55,fixation,1,445,,,RelaxSession
1628938209.05,stimulus,1,446,,,RelaxSession
1628938209.55,fixation,1,446,,,RelaxSession
1628938211.05,stimulus,1,447,,,RelaxSession
1628938211.55,fixation,1,447,,,RelaxSession
1628938213.05,stimulus,1,448,,,RelaxSession
1628938213.55,fixation,1,448,,,RelaxSession
1628938215.05,stimulus,1,449,,,RelaxSession
1628938215.55,fixation,1,449,,,RelaxSession
1628938217.05,stimulus,1,450,,,RelaxSession
1628938217.55,fixation,1,450,,,RelaxSession
1628938219.05,stimulus,1,451,,,RelaxSession
1628938219.55,fixation,1,451,,,RelaxSession
1628938221.05,stimulus,1,452,,,RelaxSession
1628938221.55,fixation,1,452,,,RelaxSession
1628938223.05,stimulus,1,453,,,RelaxSession
1628938223.55,fixation,1,453,,,RelaxSession
1628938225.05,stimulus,1,454,,,RelaxSession
1628938225.55,fixation,1,454,,,RelaxSession
1628938227.05,stimulus,1,455,,,RelaxSession
1628938227.55,fixation,1,455,,,RelaxSession
1628938229.05,stimulus,1,456,,,RelaxSession
1628938229.55,fixation,1,456,,,RelaxSession
1628938231.05,stimulus,1,457,,,RelaxSession
1628938231.55,fixation,1,457,,,RelaxSession
1628938233.05,stimulus,1,458,,,RelaxSession
1628938233.55,fixation,1,458,,,RelaxSession
1628938235.05,stimulus,1,459,,,RelaxSession
1628938235.55,fixation,1,459,,,RelaxSession
1628938237.05,stimulus,1,460,,,RelaxSession
1628938237.55,fixation,1,460,,,RelaxSession
1628938239.05,stimulus,1,461,,,RelaxSession
1628938239.55,fixation,1,461,,,RelaxSession
1628938241.05,stimulus,1,462,,,RelaxSession
1628938241.55,fixation,1,462,,,RelaxSession
1628938243.05,stimulus,1,463,,,RelaxSession
1628938243.55,fixation,1,463,,,RelaxSession
1628938245.05,stimulus,1,464,,,RelaxSession
1628938245.55,fixation,1,464,,,RelaxSession
1628938247.05,stimulus,1,465,,,RelaxSession
1628938247.55,fixation,1,465,,,RelaxSession
1628938249.05,stimulus,1,466,,,RelaxSession
1628938249.55,fixation,1,466,,,RelaxSession
1628938251.05,stimulus,1,467,,,RelaxSession
1628938251.55,fixation,1,467,,,RelaxSession
1628938253.05,stimulus,1,468,,,RelaxSession
1628938253.55,fixation,1,468,,,RelaxSession
1628938255.05,stimulus,1,469,,,RelaxSession
1628938255.55,fixation,1,469,,,RelaxSession
1628938257.05,stimulus,1,470,,,RelaxSession
1628938257.55,fixation,1,470,,,RelaxSession
1628938259.05,stimulus,1,471,,,RelaxSession
1628938259.55,fixation,1,471,,,RelaxSession
1628938261.05,stimulus,1,472,,,RelaxSession
1628938261.55,fixation,1,472,,,RelaxSession
1628938263.05,stimulus,1,473,,,RelaxSession
1628938263.55,fixation,1,473,,,RelaxSession
1628938265.05,stimulus,1,474,,,RelaxSession
1628938265.55,fixation,1,474,,,RelaxSession
1628938267.05,stimulus,1,475,,,RelaxSession
1628938267.55,fixation,1,475,,,RelaxSession
1628938269.05,stimulus,1,476,,,RelaxSession
1628938269.55,fixation,1,476,,,RelaxSession
1628938271.05,stimulus,1,477,,,RelaxSession
1628938271.55,fixation,1,477,,,RelaxSession
1628938273.05,stimulus,1,478,,,RelaxSession
1628938273.55,fixation,1,478,,,RelaxSession
1628938275.05,stimulus,1,479,,,RelaxSession
1628938275.55,fixation,1,479,,,RelaxSession
1628938277.05,stimulus,1,480,,,RelaxSession
1628938277.55,fixation,1,480,,,RelaxSession
1628938279.05,stimulus,1,481,,,RelaxSession
1628938279.55,fixation,1,481,,,RelaxSession
1628938281.05,stimulus,1,482,,,RelaxSession
1628938281.55,fixation,1,482,,,RelaxSession
1628938281.92,stimulus,2,1,,,PracticeSession
1628938282.42,fixation,2,1,,,PracticeSession
1628938283.05,stimulus,1,483,,,RelaxSession
1628938283.55,fixation,1,483,,,RelaxSession
1628938283.92,stimulus,2,2,,,PracticeSession
1628938284.42,fixation,2,2,,,PracticeSession
1628938285.05,stimulus,1,484,,,RelaxSession
1628938285.55,fixation,1,484,,,RelaxSession
1628938285.92,stimulus,2,3,,,PracticeSession
1628938286.42,fixation,2,3,,,PracticeSession
1628938287.05,stimulus,1,485,,,RelaxSession
1628938287.55,fixation,1,485,,,RelaxSession
1628938287.92,stimulus,2,4,,,PracticeSession
1628938288.42,fixation,2,4,,,PracticeSession
1628938289.05,stimulus,1,486,,,RelaxSession
1628938289.55,fixation,1,486,,,RelaxSession
1628938289.92,stimulus,2,5,,,PracticeSession
1628938290.42,fixation,2,5,,,PracticeSession
1628938291.05,stimulus,1,487,,,RelaxSession
1628938291.55,fixation,1,487,,,RelaxSession
1628938291.92,stimulus,2,6,,,PracticeSession
1628938292.42,fixation,2,6,,,PracticeSession
1628938293.05,stimulus,1,488,,,RelaxSession
1628938293.55,fixation,1,488,,,RelaxSession
1628938293.92,stimulus,2,7,,,PracticeSession
1628938294.42,fixation,2,7,,,PracticeSession
1628938295.05,stimulus,1,489,,,RelaxSession
1628938295.55,fixation,1,489,,,RelaxSession
1628938295.92,stimulus,2,8,,,PracticeSession
1628938296.42,fixation,2,8,,,PracticeSession
1628938297.05,stimulus,1,490,,,RelaxSession
1628938297.55,fixation,1,490,,,RelaxSession
1628938297.92,stimulus,2,9,,,PracticeSession
1628938298.42,fixation,2,9,,,PracticeSession
1628938299.05,stimulus,1,491,,,RelaxSession
1628938299.55,fixation,1,491,,,RelaxSession
1628938299.92,stimulus,2,10,,,PracticeSession
1628938300.42,fixation,2,10,,,PracticeSession
1628938301.05,stimulus,1,492,,,RelaxSession
1628938301.55,fixation,1,492,,,RelaxSession
1628938301.92,stimulus,2,11,,,PracticeSession
1628938302.42,fixation,2,11,,,PracticeSession
1628938303.05,stimulus,1,493,,,RelaxSession
1628938303.55,fixation,1,493,,,RelaxSession
1628938303.92,stimulus,2,12,,,PracticeSession
1628938304.42,fixation,2,12,,,PracticeSession
1628938305.05,stimulus,1,494,,,RelaxSession
1628938305.55,fixation,1,494,,,RelaxSession
1628938305.92,stimulus,2,13,,,PracticeSession
1628938306.42,fixation,2,13,,,PracticeSession
1628938307.05,stimulus,1,495,,,RelaxSession
1628938307.55,fixation,1,495,,,RelaxSession
1628938307.92,stimulus,2,14,,,PracticeSession
1628938308.42,fixation,2,14,,,PracticeSession
1628938309.05,stimulus,1,496,,,RelaxSession
1628938309.55,fixation,1,496,,,RelaxSession
1628938309.92,stimulus,2,15,,,PracticeSession
1628938310.42,fixation,2,15,,,PracticeSession
1628938311.05,stimulus,1,497,,,RelaxSession
1628938311.55,fixation,1,497,,,RelaxSession
1628938311.92,stimulus,2,16,,,PracticeSession
1628938312.42,fixation,2,16,,,PracticeSession
1628938313.05,stimulus,1,498,,,RelaxSession
1628938313.55,fixation,1,498,,,RelaxSession
1628938313.92,stimulus,2,17,,,PracticeSession
1628938314.42,fixation,2,17,,,PracticeSession
1628938315.05,stimulus,1,499,,,RelaxSession
1628938315.55,fixation,1,499,,,RelaxSession
1628938315.92,stimulus,2,18,,,PracticeSession
1628938316.42,fixation,2,18,,,PracticeSession
1628938317.05,stimulus,1,500,,,RelaxSession
1628938317.55,fixation,1,500,,,RelaxSession
1628938317.92,stimulus,2,19,,,PracticeSession
1628938318.42,fixation,2,19,,,PracticeSession
1628938319.05,stimulus,1,501,,,RelaxSession
1628938319.55,fixation,1,501,,,RelaxSession
1628938319.92,stimulus,2,20,,,PracticeSession
1628938320.42,fixation,2,20,,,PracticeSession
1628938321.05,stimulus,1,502,,,RelaxSession
1628938321.55,fixation,1,502,,,RelaxSession
1628938321.92,stimulus,2,21,,,PracticeSession
1628938322.42,fixation,2,21,,,PracticeSession
1628938323.05,stimulus,1,503,,,RelaxSession
1628938323.55,fixation,1,503,,,RelaxSession
1628938323.92,stimulus,2,22,,,PracticeSession
1628938324.42,fixation,2,22,,,PracticeSession
1628938325.05,stimulus,1,504,,,RelaxSession
1628938325.55,fixation,1,504,,,RelaxSession
1628938325.92,stimulus,2,23,,,PracticeSession
1628938326.42,fixation,2,23,,,PracticeSession
1628938327.05,stimulus,1,505,,,RelaxSession
1628938327.55,fixation,1,505,,,RelaxSession
1628938327.92,stimulus,2,24,,,PracticeSession
1628938328.42,fixation,2,24,,,PracticeSession
1628938329.05,stimulus,1,506,,,RelaxSession
1628938329.55,fixation,1,506,,,RelaxSession
1628938329.92,stimulus,2,25,,,PracticeSession
1628938330.42,fixation,2,25,,,PracticeSession
1628938331.05,stimulus,1,507,,,RelaxSession
1628938331.55,fixation,1,507,,,RelaxSession
1628938331.92,stimulus,2,26,,,PracticeSession
1628938332.42,fixation,2,26,,,PracticeSession
1628938333.05,stimulus,1,508,,,RelaxSession
1628938333.55,fixation,1,508,,,RelaxSession
1628938333.92,stimulus,2,27,,,PracticeSession
1628938334.42,fixation,2,27,,,PracticeSession
1628938335.05,stimulus,1,509,,,RelaxSession
1628938335.55,fixation,1,509,,,RelaxSession
1628938335.92,stimulus,2,28,,,PracticeSession
1628938336.42,fixation,2,28,,,PracticeSession
1628938337.05,stimulus,1,510,,,RelaxSession
1628938337.55,fixation,1,510,,,RelaxSession
1628938337.92,stimulus,2,29,,,PracticeSession
1628938338.42,fixation,2,29,,,PracticeSession
1628938339.05,stimulus,1,511,,,RelaxSession
1628938339.55,fixation,1,511,,,RelaxSession
1628938339.92,stimulus,2,30,,,PracticeSession
1628938340.42,fixation,2,30,,,PracticeSession
1628938341.05,stimulus,1,512,,,RelaxSession
1628938341.55,fixation,1,512,,,RelaxSession
1628938341.92,stimulus,2,31,,,PracticeSession
1628938342.42,fixation,2,31,,,PracticeSession
1628938343.05,stimulus,1,513,,,RelaxSession
1628938343.55,fixation,1,513,,,RelaxSession
1628938343.92,stimulus,2,32,,,PracticeSession
1628938344.42,fixation,2,32,,,PracticeSession
1628938345.05,stimulus,1,514,,,RelaxSession
1628938345.55,fixation,1,514,,,RelaxSession
1628938345.92,stimulus,2,33,,,PracticeSession
1628938346.42,fixation,2,33,,,PracticeSession
1628938347.05,stimulus,1,515,,,RelaxSession
1628938347.55,fixation,1,515,,,RelaxSession
1628938347.92,stimulus,2,34,,,PracticeSession
1628938348.42,fixation,2,34,,,PracticeSession
1628938349.05,stimulus,1,516,,,RelaxSession
1628938349.55,fixation,1,516,,,RelaxSession
1628938349.92,stimulus,2,35,,,PracticeSession
1628938350.42,fixation,2,35,,,PracticeSession
1628938351.05,stimulus,1,517,,,RelaxSession
1628938351.55,fixation,1,517,,,RelaxSession
1628938351.92,stimulus,2,36,,,PracticeSession
1628938352.42,fixation,2,36,,,PracticeSession
1628938353.05,stimulus,1,518,,,RelaxSession
1628938353.55,fixation,1,518,,,RelaxSession
1628938353.92,stimulus,2,37,,,PracticeSession
1628938354.42,fixation,2,37,,,PracticeSession
1628938355.05,stimulus,1,519,,,RelaxSession
1628938355.55,fixation,1,519,,,RelaxSession
1628938355.92,stimulus,2,38,,,PracticeSession
1628938356.42,fixation,2,38,,,PracticeSession
1628938357.05,stimulus,1,520,,,RelaxSession
1628938357.55,fixation,1,520,,,RelaxSession
1628938357.92,stimulus,2,39,,,PracticeSession
1628938358.42,fixation,2,39,,,PracticeSession
1628938359.05,stimulus,1,521,,,RelaxSession
1628938359.55,fixation,1,521,,,RelaxSession
1628938359.92,stimulus,2,40,,,PracticeSession
1628938360.42,fixation,2,40,,,PracticeSession
1628938361.05,stimulus,1,522,,,RelaxSession
1628938361.55,fixation,1,522,,,RelaxSession
1628938361.92,stimulus,2,41,,,PracticeSession
1628938362.42,fixation,2,41,,,PracticeSession
1628938363.05,stimulus,1,523,,,RelaxSession
1628938363.55,fixation,1,523,,,RelaxSession
1628938363.92,stimulus,2,42,,,PracticeSession
1628938364.42,fixation,2,42,,,PracticeSession
1628938365.05,stimulus,1,524,,,RelaxSession
1628938365.55,fixation,1,524,,,RelaxSession
1628938365.92,stimulus,2,43,,,PracticeSession
1628938366.42,fixation,2,43,,,PracticeSession
1628938367.05,stimulus,1,525,,,RelaxSession
1628938367.55,fixation,1,525,,,RelaxSession
1628938367.92,stimulus,2,44,,,PracticeSession
1628938368.42,fixation,2,44,,,PracticeSession
1628938369.05,stimulus,1,526,,,RelaxSession
1628938369.55,fixation,1,526,,,RelaxSession
1628938369.92,stimulus,2,45,,,NoMusic
1628938370.42,fixation,2,45,,,NoMusic
1628938371.05,stimulus,1,527,,,RelaxSession
1628938371.55,fixation,1,527,,,RelaxSession
1628938371.92,stimulus,2,46,,,NoMusic
1628938372.42,fixation,2,46,,,NoMusic
1628938373.05,stimulus,1,528,,,RelaxSession
1628938373.55,fixation,1,528,,,RelaxSession
1628938373.92,stimulus,2,47,,,NoMusic
1628938374.42,fixation,2,47,,,NoMusic
1628938375.05,stimulus,1,529,,,RelaxSession
1628938375.55,fixation,1,529,,,RelaxSession
1628938375.92,stimulus,2,48,,,NoMusic
1628938376.42,fixation,2,48,,,NoMusic
1628938377.05,stimulus,1,530,,,RelaxSession
1628938377.55,fixation,1,530,,,RelaxSession
1628938377.92,stimulus,2,49,,,NoMusic
1628938378.42,fixation,2,49,,,NoMusic
1628938379.05,stimulus,1,531,,,RelaxSession
1628938379.55,fixation,1,531,,,RelaxSession
1628938379.92,stimulus,2,50,,,NoMusic
1628938380.42,fixation,2,50,,,NoMusic
1628938381.05,stimulus,1,532,,,RelaxSession
1628938381.55,fixation,1,532,,,RelaxSession
1628938381.92,stimulus,2,51,,,NoMusic
1628938382.42,fixation,2,51,,,NoMusic
1628938383.05,stimulus,1,533,,,RelaxSession
1628938383.55,fixation,1,533,,,RelaxSession
1628938383.92,stimulus,2,52,,,NoMusic
1628938384.42,fixation,2,52,,,NoMusic
1628938385.05,stimulus,1,534,,,RelaxSession
1628938385.55,fixation,1,534,,,RelaxSession
1628938385.92,stimulus,2,53,,,NoMusic
1628938386.42,fixation,2,53,,,NoMusic
1628938387.05,stimulus,1,535,,,RelaxSession
1628938387.55,fixation,1,535,,,RelaxSession
1628938387.92,stimulus,2,54,,,NoMusic
1628938388.42,fixation,2,54,,,NoMusic
1628938389.05,stimulus,1,536,,,RelaxSession
1628938389.55,fixation,1,536,,,RelaxSession
1628938389.92,stimulus,2,55,,,NoMusic
1628938390.42,fixation,2,55,,,NoMusic
1628938391.05,stimulus,1,537,,,RelaxSession
1628938391.55,fixation,1,537,,,RelaxSession
1628938391.92,stimulus,2,56,,,NoMusic
1628938392.42,fixation,2,56,,,NoMusic
1628938393.05,stimulus,1,538,,,RelaxSession
1628938393.55,fixation,1,538,,,RelaxSession
1628938393.92,stimulus,2,57,,,NoMusic
1628938394.42,fixation,2,57,,,NoMusic
1628938395.05,stimulus,1,539,,,RelaxSession
1628938395.55,fixation,1,539,,,RelaxSession
1628938395.92,stimulus,2,58,,,NoMusic
1628938396.42,fixation,2,58,,,NoMusic
1628938397.05,stimulus,1,540,,,RelaxSession
1628938397.55,fixation,1,540,,,RelaxSession
1628938397.92,stimulus,2,59,,,NoMusic
1628938398.42,fixation,2,59,,,NoMusic
1628938399.05,stimulus,1,541,,,RelaxSession
1628938399.55,fixation,1,541,,,RelaxSession
1628938399.92,stimulus,2,60,,,NoMusic
1628938400.42,fixation,2,60,,,NoMusic
1628938401.05,stimulus,1,542,,,RelaxSession
1628938401.55,fixation,1,542,,,RelaxSession
1628938401.92,stimulus,2,61,,,NoMusic
1628938402.42,fixation,2,61,,,NoMusic
1628938403.05,stimulus,1,543,,,RelaxSession
1628938403.55,fixation,1,543,,,RelaxSession
1628938403.92,stimulus,2,62,,,NoMusic
1628938404.42,fixation,2,62,,,NoMusic
1628938405.05,stimulus,1,544,,,RelaxSession
1628938405.55,fixation,1,544,,,RelaxSession
1628938405.92,stimulus,2,63,,,NoMusic
1628938406.42,fixation,2,63,,,NoMusic
1628938407.05,stimulus,1,545,,,RelaxSession
1628938407.55,fixation,1,545,,,RelaxSession
1628938407.92,stimulus,2,64,,,NoMusic
1628938408.42,fixation,2,64,,,NoMusic
1628938409.05,stimulus,1,546,,,RelaxSession
1628938409.55,fixation,1,546,,,RelaxSession
1628938409.92,stimulus,2,65,,,NoMusic
1628938410.42,fixation,2,65,,,NoMusic
1628938411.05,stimulus,1,547,,,RelaxSession
1628938411.55,fixation,1,547,,,RelaxSession
1628938411.92,stimulus,2,66,,,NoMusic
1628938412.42,fixation,2,66,,,NoMusic
1628938413.05,stimulus,1,548,,,RelaxSession
1628938413.55,fixation,1,548,,,RelaxSession
1628938413.92,stimulus,2,67,,,NoMusic
1628938414.42,fixation,2,67,,,NoMusic
1628938415.05,stimulus,1,549,,,RelaxSession
1628938415.55,fixation,1,549,,,RelaxSession
1628938415.92,stimulus,2,68,,,NoMusic
1628938416.42,fixation,2,68,,,NoMusic
1628938417.05,stimulus,1,550,,,RelaxSession
1628938417.55,fixation,1,550,,,RelaxSession
1628938417.92,stimulus,2,69,,,NoMusic
1628938418.42,fixation,2,69,,,NoMusic
1628938419.05,stimulus,1,551,,,RelaxSession
1628938419.55,fixation,1,551,,,RelaxSession
1628938419.92,stimulus,2,70,,,NoMusic
1628938420.42,fixation,2,70,,,NoMusic
1628938421.05,stimulus,1,552,,,RelaxSession
1628938421.55,fixation,1,552,,,RelaxSession
1628938421.92,stimulus,2,71,,,NoMusic
1628938422.42,fixation,2,71,,,NoMusic
1628938423.05,stimulus,1,553,,,RelaxSession
1628938423.55,fixation,1,553,,,RelaxSession
1628938423.92,stimulus,2,72,,,NoMusic
1628938424.42,fixation,2,72,,,NoMusic
1628938425.05,stimulus,1,554,,,RelaxSession
1628938425.55,fixation,1,554,,,RelaxSession
1628938425.92,stimulus,2,73,,,NoMusic
1628938426.42,fixation,2,73,,,NoMusic
1628938427.05,stimulus,1,555,,,RelaxSession
1628938427.55,fixation,1,555,,,RelaxSession
1628938427.92,stimulus,2,74,,,NoMusic
1628938428.42,fixation,2,74,,,NoMusic
1628938429.05,stimulus,1,556,,,RelaxSession
1628938429.55,fixation,1,556,,,RelaxSession
1628938429.92,stimulus,2,75,,,NoMusic
1628938430.42,fixation,2,75,,,NoMusic
1628938431.05,stimulus,1,557,,,RelaxSession
1628938431.55,fixation,1,557,,,RelaxSession
1628938431.92,stimulus,2,76,,,NoMusic
1628938432.42,fixation,2,76,,,NoMusic
1628938433.05,stimulus,1,558,,,RelaxSession
1628938433.55,fixation,1,558,,,RelaxSession
1628938433.92,stimulus,2,77,,,NoMusic
1628938434.42,fixation,2,77,,,NoMusic
1628938435.05,stimulus,1,559,,,RelaxSession
1628938435.55,fixation,1,559,,,RelaxSession
1628938435.92,stimulus,2,78,,,NoMusic
1628938436.42,fixation,2,78,,,NoMusic
1628938437.05,stimulus,1,560,,,RelaxSession
1628938437.55,fixation,1,560,,,RelaxSession
1628938437.92,stimulus,2,79,,,NoMusic
1628938438.42,fixation,2,79,,,NoMusic
1628938439.05,stimulus,1,561,,,RelaxSession
1628938439.55,fixation,1,561,,,RelaxSession
1628938439.92,stimulus,2,80,,,NoMusic
1628938440.42,fixation,2,80,,,NoMusic
1628938441.05,stimulus,1,562,,,RelaxSession
1628938441.55,fixation,1,562,,,RelaxSession
1628938441.92,stimulus,2,81,,,NoMusic
1628938442.42,fixation,2,81,,,NoMusic
1628938443.05,stimulus,1,563,,,RelaxSession
1628938443.55,fixation,1,563,,,RelaxSession
1628938443.92,stimulus,2,82,,,NoMusic
1628938444.42,fixation,2,82,,,NoMusic
1628938445.05,stimulus,1,564,,,RelaxSession
1628938445.55,fixation,1,564,,,RelaxSession
1628938445.92,stimulus,2,83,,,NoMusic
1628938446.42,fixation,2,83,,,NoMusic
1628938447.05,stimulus,1,565,,,RelaxSession
1628938447.55,fixation,1,565,,,RelaxSession
1628938447.92,stimulus,2,84,,,NoMusic
1628938448.42,fixation,2,84,,,NoMusic
1628938449.05,stimulus,1,566,,,RelaxSession
1628938449.55,fixation,1,566,,,RelaxSession
1628938449.92,stimulus,2,85,,,NoMusic
1628938450.42,fixation,2,85,,,NoMusic
1628938451.05,stimulus,1,567,,,RelaxSession
1628938451.55,fixation,1,567,,,RelaxSession
1628938451.92,stimulus,2,86,,,NoMusic
1628938452.42,fixation,2,86,,,NoMusic
1628938453.05,stimulus,1,568,,,RelaxSession
1628938453.55,fixation,1,568,,,RelaxSession
1628938453.92,stimulus,2,87,,,NoMusic
1628938454.42,fixation,2,87,,,NoMusic
1628938455.05,stimulus,1,569,,,RelaxSession
1628938455.55,fixation,1,569,,,RelaxSession
1628938455.92,stimulus,2,88,,,NoMusic
1628938456.42,fixation,2,88,,,NoMusic
1628938457.05,stimulus,1,570,,,RelaxSession
1628938457.55,fixation,1,570,,,RelaxSession
1628938457.92,stimulus,2,89,,,NoMusic
1628938458.42,fixation,2,89,,,NoMusic
1628938459.05,stimulus,1,571,,,RelaxSession
1628938459.55,fixation,1,571,,,RelaxSession
1628938459.92,stimulus,2,90,,,NoMusic
1628938460.42,fixation,2,90,,,NoMusic
1628938461.05,stimulus,1,572,,,RelaxSession
1628938461.55,fixation,1,572,,,RelaxSession
1628938461.92,stimulus,2,91,,,NoMusic
1628938462.42,fixation,2,91,,,NoMusic
1628938463.05,stimulus,1,573,,,RelaxSession
1628938463.55,fixation,1,573,,,RelaxSession
1628938463.66,stimulus,3,1,,,PracticeSession
1628938463.92,stimulus,2,92,,,NoMusic
1628938464.16,fixation,3,1,,,PracticeSession
1628938464.42,fixation,2,92,,,NoMusic
1628938465.05,stimulus,1,574,,,RelaxSession
1628938465.55,fixation,1,574,,,RelaxSession
1628938465.66,stimulus,3,2,,,PracticeSession
1628938465.92,stimulus,2,93,,,NoMusic
1628938466.16,fixation,3,2,,,PracticeSession
1628938466.42,fixation,2,93,,,NoMusic
1628938467.05,stimulus,1,575,,,RelaxSession
1628938467.55,fixation,1,575,,,RelaxSession
1628938467.66,stimulus,3,3,,,PracticeSession
1628938467.92,stimulus,2,94,,,NoMusic
1628938468.16,fixation,3,3,,,PracticeSession
1628938468.42,fixation,2,94,,,NoMusic
1628938469.05,stimulus,1,576,,,RelaxSession
1628938469.55,fixation,1,576,,,RelaxSession
1628938469.66,stimulus,3,4,,,PracticeSession
1628938469.92,stimulus,2,95,,,NoMusic
1628938470.16,fixation,3,4,,,PracticeSession
1628938470.42,fixation,2,95,,,NoMusic
1628938471.05,stimulus,1,577,,,RelaxSession
1628938471.55,fixation,1,577,,,RelaxSession
1628938471.66,stimulus,3,5,,,PracticeSession
1628938471.92,stimulus,2,96,,,NoMusic
1628938472.16,fixation,3,5,,,PracticeSession
1628938472.42,fixation,2,96,,,NoMusic
1628938473.05,stimulus,1,578,,,RelaxSession
1628938473.55,fixation,1,578,,,RelaxSession
1628938473.66,stimulus,3,6,,,PracticeSession
1628938473.92,stimulus,2,97,,,NoMusic
1628938474.16,fixation,3,6,,,PracticeSession
1628938474.42,fixation,2,97,,,NoMusic
1628938475.05,stimulus,1,579,,,RelaxSession
1628938475.55,fixation,1,579,,,RelaxSession
1628938475.66,stimulus,3,7,,,PracticeSession
1628938475.92,stimulus,2,98,,,NoMusic
1628938476.16,fixation,3,7,,,PracticeSession
1628938476.42,fixation,2,98,,,NoMusic
1628938477.05,stimulus,1,580,,,RelaxSession
1628938477.55,fixation,1,580,,,RelaxSession
1628938477.66,stimulus,3,8,,,PracticeSession
1628938477.92,stimulus,2,99,,,NoMusic
1628938478.16,fixation,3,8,,,PracticeSession
1628938478.42,fixation,2,99,,,NoMusic
1628938479.05,stimulus,1,581,,,RelaxSession
1628938479.55,fixation,1,581,,,RelaxSession
1628938479.66,stimulus,3,9,,,PracticeSession
1628938479.92,stimulus,2,100,,,NoMusic
1628938480.16,fixation,3,9,,,PracticeSession
1628938480.42,fixation,2,100,,,NoMusic
1628938481.05,stimulus,1,582,,,RelaxSession
1628938481.55,fixation,1,582,,,RelaxSession
1628938481.66,stimulus,3,10,,,PracticeSession
1628938481.92,stimulus,2,101,,,NoMusic
1628938482.16,fixation,3,10,,,PracticeSession
1628938482.42,fixation,2,101,,,NoMusic
1628938483.05,stimulus,1,583,,,RelaxSession
1628938483.55,fixation,1,583,,,RelaxSession
1628938483.66,stimulus,3,11,,,PracticeSession
1628938483.92,stimulus,2,102,,,NoMusic
1628938484.16,fixation,3,11,,,PracticeSession
1628938484.42,fixation,2,102,,,NoMusic
1628938485.05,stimulus,1,584,,,RelaxSession
1628938485.55,fixation,1,584,,,RelaxSession
1628938485.66,stimulus,3,12,,,PracticeSession
1628938485.92,stimulus,2,103,,,NoMusic
1628938486.16,fixation,3,12,,,PracticeSession
1628938486.42,fixation,2,103,,,NoMusic
1628938487.05,stimulus,1,585,,,RelaxSession
1628938487.55,fixation,1,585,,,RelaxSession
1628938487.66,stimulus,3,13,,,PracticeSession
1628938487.92,stimulus,2,104,,,NoMusic
1628938488.16,fixation,3,13,,,PracticeSession
1628938488.42,fixation,2,104,,,NoMusic
1628938489.05,stimulus,1,586,,,RelaxSession
1628938489.55,fixation,1,586,,,RelaxSession
1628938489.66,stimulus,3,14,,,PracticeSession
1628938489.92,stimulus,2,105,,,NoMusic
1628938490.16,fixation,3,14,,,PracticeSession
1628938490.42,fixation,2,105,,,NoMusic
1628938491.05,stimulus,1,587,,,RelaxSession
1628938491.55,fixation,1,587,,,RelaxSession
1628938491.66,stimulus,3,15,,,PracticeSession
1628938491.92,stimulus,2,106,,,NoMusic
1628938492.16,fixation,3,15,,,PracticeSession
1628938492.42,fixation,2,106,,,NoMusic
1628938493.05,stimulus,1,588,,,RelaxSession
1628938493.55,fixation,1,588,,,RelaxSession
1628938493.66,stimulus,3,16,,,PracticeSession
1628938493.92,stimulus,2,107,,,NoMusic
1628938494.16,fixation,3,16,,,PracticeSession
1628938494.42,fixation,2,107,,,NoMusic
1628938495.05,stimulus,1,589,,,RelaxSession
1628938495.55,fixation,1,589,,,RelaxSession
1628938495.66,stimulus,3,17,,,PracticeSession
1628938495.92,stimulus,2,108,,,NoMusic
1628938496.16,fixation,3,17,,,PracticeSession
1628938496.42,fixation,2,108,,,NoMusic
1628938497.05,stimulus,1,590,,,RelaxSession
1628938497.55,fixation,1,590,,,RelaxSession
1628938497.66,stimulus,3,18,,,PracticeSession
1628938497.92,stimulus,2,109,,,NoMusic
1628938498.16,fixation,3,18,,,PracticeSession
1628938498.42,fixation,2,109,,,NoMusic
1628938499.05,stimulus,1,591,,,RelaxSession
1628938499.55,fixation,1,591,,,RelaxSession
1628938499.66,stimulus,3,19,,,PracticeSession
1628938499.92,stimulus,2,110,,,NoMusic
1628938500.16,fixation,3,19,,,PracticeSession
1628938500.42,fixation,2,110,,,NoMusic
1628938501.05,stimulus,1,592,,,RelaxSession
1628938501.55,fixation,1,592,,,RelaxSession
1628938501.66,stimulus,3,20,,,PracticeSession
1628938501.92,stimulus,2,111,,,NoMusic
1628938502.16,fixation,3,20,,,PracticeSession
1628938502.42,fixation,2,111,,,NoMusic
1628938503.05,stimulus,1,593,,,RelaxSession
1628938503.55,fixation,1,593,,,RelaxSession
1628938503.66,stimulus,3,21,,,PracticeSession
1628938503.92,stimulus,2,112,,,NoMusic
1628938504.16,fixation,3,21,,,PracticeSession
1628938504.42,fixation,2,112,,,NoMusic
1628938505.05,stimulus,1,594,,,RelaxSession
1628938505.55,fixation,1,594,,,RelaxSession
1628938505.66,stimulus,3,22,,,PracticeSession
1628938505.92,stimulus,2,113,,,NoMusic
1628938506.16,fixation,3,22,,,PracticeSession
1628938506.42,fixation,2,113,,,NoMusic
1628938507.05,stimulus,1,595,,,RelaxSession
1628938507.55,fixation,1,595,,,RelaxSession
1628938507.66,stimulus,3,23,,,PracticeSession
1628938507.92,stimulus,2,114,,,NoMusic
1628938508.16,fixation,3,23,,,PracticeSession
1628938508.42,fixation,2,114,,,NoMusic
1628938509.05,stimulus,1,596,,,RelaxSession
1628938509.55,fixation,1,596,,,RelaxSession
1628938509.66,stimulus,3,24,,,PracticeSession
1628938509.92,stimulus,2,115,,,NoMusic
1628938510.16,fixation,3,24,,,PracticeSession
1628938510.42,fixation,2,115,,,NoMusic
1628938511.05,stimulus,1,597,,,RelaxSession
1628938511.55,fixation,1,597,,,RelaxSession
1628938511.66,stimulus,3,25,,,PracticeSession
1628938511.92,stimulus,2,116,,,NoMusic
1628938512.16,fixation,3,25,,,PracticeSession
1628938512.42,fixation,2,116,,,NoMusic
1628938513.05,stimulus,1,598,,,RelaxSession
1628938513.55,fixation,1,598,,,RelaxSession
1628938513.66,stimulus,3,26,,,PracticeSession
1628938513.92,stimulus,2,117,,,NoMusic
1628938514.16,fixation,3,26,,,PracticeSession
1628938514.42,fixation,2,117,,,NoMusic
1628938515.05,stimulus,1,599,,,RelaxSession
1628938515.55,fixation,1,599,,,RelaxSession
1628938515.66,stimulus,3,27,,,PracticeSession
1628938515.92,stimulus,2,118,,,NoMusic
1628938516.16,fixation,3,27,,,PracticeSession
1628938516.42,fixation,2,118,,,NoMusic
1628938517.05,stimulus,1,600,,,RelaxSession
1628938517.55,fixation,1,600,,,RelaxSession
1628938517.66,stimulus,3,28,,,PracticeSession
1628938517.92,stimulus,2,119,,,NoMusic
1628938518.16,fixation,3,28,,,PracticeSession
1628938518.42,fixation,2,119,,,NoMusic
1628938519.05,stimulus,1,601,,,RelaxSession
1628938519.55,fixation,1,601,,,RelaxSession
1628938519.66,stimulus,3,29,,,PracticeSession
1628938519.92,stimulus,2,120,,,NoMusic
1628938520.16,fixation,3,29,,,PracticeSession
1628938520.42,fixation,2,120,,,NoMusic
1628938521.05,stimulus,1,602,,,RelaxSession
1628938521.55,fixation,1,602,,,RelaxSession
1628938521.66,stimulus,3,30,,,PracticeSession
1628938521.92,stimulus,2,121,,,NoMusic
1628938522.16,fixation,3,30,,,PracticeSession
1628938522.42,fixation,2,121,,,NoMusic
1628938523.05,stimulus,1,603,,,RelaxSession
1628938523.55,fixation,1,603,,,RelaxSession
1628938523.66,stimulus,3,31,,,PracticeSession
1628938523.92,stimulus,2,122,,,NoMusic
1628938524.16,fixation,3,31,,,PracticeSession
1628938524.42,fixation,2,122,,,NoMusic
1628938525.05,stimulus,1,604,,,RelaxSession
1628938525.55,fixation,1,604,,,RelaxSession
1628938525.66,stimulus,3,32,,,PracticeSession
1628938525.92,stimulus,2,123,,,NoMusic
1628938526.16,fixation,3,32,,,PracticeSession
1628938526.42,fixation,2,123,,,NoMusic
1628938527.05,stimulus,1,605,,,RelaxSession
1628938527.55,fixation,1,605,,,RelaxSession
1628938527.66,stimulus,3,33,,,PracticeSession
1628938527.92,stimulus,2,124,,,NoMusic
1628938528.16,fixation,3,33,,,PracticeSession
1628938528.42,fixation,2,124,,,NoMusic
1628938529.05,stimulus,1,606,,,RelaxSession
1628938529.55,fixation,1,606,,,RelaxSession
1628938529.66,stimulus,3,34,,,PracticeSession
1628938529.92,stimulus,2,125,,,NoMusic
1628938530.16,fixation,3,34,,,PracticeSession
1628938530.42,fixation,2,125,,,NoMusic
1628938531.05,stimulus,1,607,,,RelaxSession
1628938531.55,fixation,1,607,,,RelaxSession
1628938531.66,stimulus,3,35,,,PracticeSession
1628938531.92,stimulus,2,126,,,NoMusic
1628938532.16,fixation,3,35,,,PracticeSession
1628938532.42,fixation,2,126,,,NoMusic
1628938533.05,stimulus,1,608,,,RelaxSession
1628938533.55,fixation,1,608,,,RelaxSession
1628938533.66,stimulus,3,36,,,PracticeSession
1628938533.92,stimulus,2,127,,,NoMusic
1628938534.16,fixation,3,36,,,PracticeSession
1628938534.42,fixation,2,127,,,NoMusic
1628938535.05,stimulus,1,609,,,RelaxSession
1628938535.55,fixation,1,609,,,RelaxSession
1628938535.66,stimulus,3,37,,,PracticeSession
1628938535.92,stimulus,2,128,,,NoMusic
1628938536.16,fixation,3,37,,,PracticeSession
1628938536.42,fixation,2,128,,,NoMusic
1628938537.05,stimulus,1,610,,,RelaxSession
1628938537.55,fixation,1,610,,,RelaxSession
1628938537.66,stimulus,3,38,,,PracticeSession
1628938537.92,stimulus,2,129,,,NoMusic
1628938538.16,fixation,3,38,,,PracticeSession
1628938538.42,fixation,2,129,,,NoMusic
1628938539.05,stimulus,1,611,,,RelaxSession
1628938539.55,fixation,1,611,,,RelaxSession
1628938539.66,stimulus,3,39,,,PracticeSession
1628938539.92,stimulus,2,130,,,NoMusic
1628938540.16,fixation,3,39,,,PracticeSession
1628938540.42,fixation,2,130,,,NoMusic
1628938541.05,stimulus,1,612,,,RelaxSession
1628938541.55,fixation,1,612,,,RelaxSession
1628938541.66,stimulus,3,40,,,PracticeSession
1628938541.92,stimulus,2,131,,,NoMusic
1628938542.16,fixation,3,40,,,PracticeSession
1628938542.42,fixation,2,131,,,NoMusic
1628938543.05,stimulus,1,613,,,RelaxSession
1628938543.55,fixation,1,613,,,RelaxSession
1628938543.66,stimulus,3,41,,,PracticeSession
1628938543.92,stimulus,2,132,,,NoMusic
1628938544.16,fixation,3,41,,,PracticeSession
1628938544.42,fixation,2,132,,,NoMusic
1628938545.05,stimulus,1,614,,,RelaxSession
1628938545.55,fixation,1,614,,,RelaxSession
1628938545.66,stimulus,3,42,,,PracticeSession
1628938545.92,stimulus,2,133,,,NoMusic
1628938546.16,fixation,3,42,,,PracticeSession
1628938546.42,fixation,2,133,,,NoMusic
1628938547.05,stimulus,1,615,,,RelaxSession
1628938547.55,fixation,1,615,,,RelaxSession
1628938547.66,stimulus,3,43,,,PracticeSession
1628938547.92,stimulus,2,134,,,NoMusic
1628938548.16,fixation,3,43,,,PracticeSession
1628938548.42,fixation,2,134,,,NoMusic
1628938549.05,stimulus,1,616,,,RelaxSession
1628938549.55,fixation,1,616,,,RelaxSession
1628938549.66,stimulus,3,44,,,PracticeSession
1628938549.92,stimulus,2,135,,,NoMusic
1628938550.16,fixation,3,44,,,PracticeSession
1628938550.42,fixation,2,135,,,NoMusic
1628938551.05,stimulus,1,617,,,RelaxSession
1628938551.55,fixation,1,617,,,RelaxSession
1628938551.66,stimulus,3,45,,,NoMusic
1628938551.92,stimulus,2,136,,,NoMusic
1628938552.16,fixation,3,45,,,NoMusic
1628938552.42,fixation,2,136,,,NoMusic
1628938553.05,stimulus,1,618,,,RelaxSession
1628938553.55,fixation,1,618,,,RelaxSession
1628938553.66,stimulus,3,46,,,NoMusic
1628938553.92,stimulus,2,137,,,NoMusic
1628938554.16,fixation,3,46,,,NoMusic
1628938554.42,fixation,2,137,,,NoMusic
1628938555.05,stimulus,1,619,,,RelaxSession
1628938555.55,fixation,1,619,,,RelaxSession
1628938555.66,stimulus,3,47,,,NoMusic
1628938555.92,stimulus,2,138,,,NoMusic
1628938556.16,fixation,3,47,,,NoMusic
1628938556.42,fixation,2,138,,,NoMusic
1628938557.05,stimulus,1,620,,,RelaxSession
1628938557.55,fixation,1,620,,,RelaxSession
1628938557.66,stimulus,3,48,,,NoMusic
1628938557.92,stimulus,2,139,,,NoMusic
1628938558.16,fixation,3,48,,,NoMusic
1628938558.42,fixation,2,139,,,NoMusic
1628938559.05,stimulus,1,621,,,RelaxSession
1628938559.55,fixation,1,621,,,RelaxSession
1628938559.66,stimulus,3,49,,,NoMusic
1628938559.92,stimulus,2,140,,,NoMusic
1628938560.16,fixation,3,49,,,NoMusic
1628938560.42,fixation,2,140,,,NoMusic
1628938561.05,stimulus,1,622,,,RelaxSession
1628938561.55,fixation,1,622,,,RelaxSession
1628938561.66,stimulus,3,50,,,NoMusic
1628938561.92,stimulus,2,141,,,NoMusic
1628938562.16,fixation,3,50,,,NoMusic
1628938562.42,fixation,2,141,,,NoMusic
1628938563.05,stimulus,1,623,,,RelaxSession
1628938563.55,fixation,1,623,,,RelaxSession
1628938563.66,stimulus,3,51,,,NoMusic
1628938563.92,stimulus,2,142,,,NoMusic
1628938564.16,fixation,3,51,,,NoMusic
1628938564.42,fixation,2,142,,,NoMusic
1628938565.05,stimulus,1,624,,,RelaxSession
1628938565.55,fixation,1,624,,,RelaxSession
1628938565.66,stimulus,3,52,,,NoMusic
1628938565.92,stimulus,2,143,,,NoMusic
1628938566.16,fixation,3,52,,,NoMusic
1628938566.42,fixation,2,143,,,NoMusic
1628938567.05,stimulus,1,625,,,RelaxSession
1628938567.55,fixation,1,625,,,RelaxSession
1628938567.66,stimulus,3,53,,,NoMusic
1628938567.92,stimulus,2,144,,,NoMusic
1628938568.16,fixation,3,53,,,NoMusic
1628938568.42,fixation,2,144,,,NoMusic
1628938569.05,stimulus,1,626,,,RelaxSession
1628938569.55,fixation,1,626,,,RelaxSession
1628938569.66,stimulus,3,54,,,NoMusic
1628938569.92,stimulus,2,145,,,NoMusic
1628938570.16,fixation,3,54,,,NoMusic
1628938570.42,fixation,2,145,,,NoMusic
1628938571.05,stimulus,1,627,,,RelaxSession
1628938571.55,fixation,1,627,,,RelaxSession
1628938571.66,stimulus,3,55,,,NoMusic
1628938571.92,stimulus,2,146,,,NoMusic
1628938572.16,fixation,3,55,,,NoMusic
1628938572.42,fixation,2,146,,,NoMusic
1628938573.05,stimulus,1,628,,,RelaxSession
1628938573.55,fixation,1,628,,,RelaxSession
1628938573.66,stimulus,3,56,,,NoMusic
1628938573.92,stimulus,2,147,,,NoMusic
1628938574.16,fixation,3,56,,,NoMusic
1628938574.42,fixation,2,147,,,NoMusic
1628938575.05,stimulus,1,629,,,RelaxSession
1628938575.55,fixation,1,629,,,RelaxSession
1628938575.66,stimulus,3,57,,,NoMusic
1628938575.92,stimulus,2,148,,,NoMusic
1628938576.16,fixation,3,57,,,NoMusic
1628938576.42,fixation,2,148,,,NoMusic
1628938577.05,stimulus,1,630,,,RelaxSession
1628938577.55,fixation,1,630,,,RelaxSession
1628938577.66,stimulus,3,58,,,NoMusic
1628938577.92,stimulus,2,149,,,NoMusic
1628938578.16,fixation,3,58,,,NoMusic
1628938578.42,fixation,2,149,,,NoMusic
1628938579.05,stimulus,1,631,,,RelaxSession
1628938579.55,fixation,1,631,,,RelaxSession
1628938579.66,stimulus,3,59,,,NoMusic
1628938579.92,stimulus,2,150,,,NoMusic
1628938580.16,fixation,3,59,,,NoMusic
1628938580.42,fixation,2,150,,,NoMusic
1628938581.05,stimulus,1,632,,,RelaxSession
1628938581.55,fixation,1,632,,,RelaxSession
1628938581.66,stimulus,3,60,,,NoMusic
1628938581.92,stimulus,2,151,,,NoMusic
1628938582.16,fixation,3,60,,,NoMusic
1628938582.42,fixation,2,151,,,NoMusic
1628938583.05,stimulus,1,633,,,RelaxSession
1628938583.55,fixation,1,633,,,RelaxSession
1628938583.66,stimulus,3,61,,,NoMusic
1628938583.92,stimulus,2,152,,,NoMusic
1628938584.16,fixation,3,61,,,NoMusic
1628938584.42,fixation,2,152,,,NoMusic
1628938585.05,stimulus,1,634,,,RelaxSession
1628938585.55,fixation,1,634,,,RelaxSession
1628938585.66,stimulus,3,62,,,NoMusic
1628938585.92,stimulus,2,153,,,NoMusic
1628938586.16,fixation,3,62,,,NoMusic
1628938586.42,fixation,2,153,,,NoMusic
1628938587.05,stimulus,1,635,,,RelaxSession
1628938587.55,fixation,1,635,,,RelaxSession
1628938587.66,stimulus,3,63,,,NoMusic
1628938587.92,stimulus,2,154,,,NoMusic
1628938588.16,fixation,3,63,,,NoMusic
1628938588.42,fixation,2,154,,,NoMusic
1628938589.05,stimulus,1,636,,,RelaxSession
1628938589.55,fixation,1,636,,,RelaxSession
1628938589.66,stimulus,3,64,,,NoMusic
1628938589.92,stimulus,2,155,,,NoMusic
1628938590.16,fixation,3,64,,,NoMusic
1628938590.42,fixation,2,155,,,NoMusic
1628938591.05,stimulus,1,637,,,RelaxSession
1628938591.55,fixation,1,637,,,RelaxSession
1628938591.66,stimulus,3,65,,,NoMusic
1628938591.92,stimulus,2,156,,,NoMusic
1628938592.16,fixation,3,65,,,NoMusic
1628938592.42,fixation,2,156,,,NoMusic
1628938593.05,stimulus,1,638,,,RelaxSession
1628938593.55,fixation,1,638,,,RelaxSession
1628938593.66,stimulus,3,66,,,NoMusic
1628938593.92,stimulus,2,157,,,NoMusic
1628938594.16,fixation,3,66,,,NoMusic
1628938594.42,fixation,2,157,,,NoMusic
1628938595.05,stimulus,1,639,,,RelaxSession
1628938595.55,fixation,1,639,,,RelaxSession
1628938595.66,stimulus,3,67,,,NoMusic
1628938595.92,stimulus,2,158,,,NoMusic
1628938596.16,fixation,3,67,,,NoMusic
1628938596.42,fixation,2,158,,,NoMusic
1628938597.05,stimulus,1,640,,,RelaxSession
1628938597.55,fixation,1,640,,,RelaxSession
1628938597.66,stimulus,3,68,,,NoMusic
1628938597.92,stimulus,2,159,,,NoMusic
1628938598.16,fixation,3,68,,,NoMusic
1628938598.42,fixation,2,159,,,NoMusic
1628938599.05,stimulus,1,641,,,RelaxSession
1628938599.55,fixation,1,641,,,RelaxSession
1628938599.66,stimulus,3,69,,,NoMusic
1628938599.92,stimulus,2,160,,,NoMusic
1628938600.16,fixation,3,69,,,NoMusic
1628938600.42,fixation,2,160,,,NoMusic
1628938601.05,stimulus,1,642,,,RelaxSession
1628938601.55,fixation,1,642,,,RelaxSession
1628938601.66,stimulus,3,70,,,NoMusic
1628938601.92,stimulus,2,161,,,NoMusic
1628938602.16,fixation,3,70,,,NoMusic
1628938602.42,fixation,2,161,,,NoMusic
1628938603.05,stimulus,1,643,,,RelaxSession
1628938603.55,fixation,1,643,,,RelaxSession
1628938603.66,stimulus,3,71,,,NoMusic
1628938603.92,stimulus,2,162,,,NoMusic
1628938604.16,fixation,3,71,,,NoMusic
1628938604.42,fixation,2,162,,,NoMusic
1628938605.05,stimulus,1,644,,,RelaxSession
1628938605.55,fixation,1,644,,,RelaxSession
1628938605.66,stimulus,3,72,,,NoMusic
1628938605.92,stimulus,2,163,,,NoMusic
1628938606.16,fixation,3,72,,,NoMusic
1628938606.42,fixation,2,163,,,NoMusic
1628938607.05,stimulus,1,645,,,RelaxSession
1628938607.55,fixation,1,645,,,RelaxSession
1628938607.66,stimulus,3,73,,,NoMusic
1628938607.92,stimulus,2,164,,,NoMusic
1628938608.16,fixation,3,73,,,NoMusic
1628938608.42,fixation,2,164,,,NoMusic
1628938609.05,stimulus,1,646,,,RelaxSession
1628938609.55,fixation,1,646,,,RelaxSession
1628938609.66,stimulus,3,74,,,NoMusic
1628938609.92,stimulus,2,165,,,NoMusic
1628938610.16,fixation,3,74,,,NoMusic
1628938610.42,fixation,2,165,,,NoMusic
1628938611.05,stimulus,1,647,,,RelaxSession
1628938611.55,fixation,1,647,,,RelaxSession
1628938611.66,stimulus,3,75,,,NoMusic
1628938611.92,stimulus,2,166,,,NoMusic
1628938612.16,fixation,3,75,,,NoMusic
1628938612.42,fixation,2,166,,,NoMusic
1628938613.05,stimulus,1,648,,,RelaxSession
1628938613.55,fixation,1,648,,,RelaxSession
1628938613.66,stimulus,3,76,,,NoMusic
1628938613.92,stimulus,2,167,,,NoMusic
1628938614.16,fixation,3,76,,,NoMusic
1628938614.42,fixation,2,167,,,NoMusic
1628938615.05,stimulus,1,649,,,RelaxSession
1628938615.55,fixation,1,649,,,RelaxSession
1628938615.66,stimulus,3,77,,,NoMusic
1628938615.92,stimulus,2,168,,,NoMusic
1628938616.16,fixation,3,77,,,NoMusic
1628938616.42,fixation,2,168,,,NoMusic
1628938617.05,stimulus,1,650,,,RelaxSession
1628938617.55,fixation,1,650,,,RelaxSession
1628938617.66,stimulus,3,78,,,NoMusic
1628938617.92,stimulus,2,169,,,NoMusic
1628938618.16,fixation,3,78,,,NoMusic
1628938618.42,fixation,2,169,,,NoMusic
1628938619.05,stimulus,1,651,,,RelaxSession
1628938619.55,fixation,1,651,,,RelaxSession
1628938619.66,stimulus,3,79,,,NoMusic
1628938619.92,stimulus,2,170,,,NoMusic
1628938620.16,fixation,3,79,,,NoMusic
1628938620.42,fixation,2,170,,,NoMusic
1628938621.05,stimulus,1,652,,,RelaxSession
1628938621.55,fixation,1,652,,,RelaxSession
1628938621.66,stimulus,3,80,,,NoMusic
1628938621.92,stimulus,2,171,,,NoMusic
1628938622.16,fixation,3,80,,,NoMusic
1628938622.42,fixation,2,171,,,NoMusic
1628938623.05,stimulus,1,653,,,RelaxSession
1628938623.55,fixation,1,653,,,RelaxSession
1628938623.66,stimulus,3,81,,,NoMusic
1628938623.92,stimulus,2,172,,,NoMusic
1628938624.16,fixation,3,81,,,NoMusic
1628938624.42,fixation,2,172,,,NoMusic
1628938625.05,stimulus,1,654,,,RelaxSession
1628938625.55,fixation,1,654,,,RelaxSession
1628938625.66,stimulus,3,82,,,NoMusic
1628938625.92,stimulus,2,173,,,NoMusic
1628938626.16,fixation,3,82,,,NoMusic
1628938626.42,fixation,2,173,,,NoMusic
1628938627.05,stimulus,1,655,,,RelaxSession
1628938627.55,fixation,1,655,,,RelaxSession
1628938627.66,stimulus,3,83,,,NoMusic
1628938627.92,stimulus,2,174,,,NoMusic
1628938628.16,fixation,3,83,,,NoMusic
1628938628.42,fixation,2,174,,,NoMusic
1628938629.05,stimulus,1,656,,,RelaxSession
1628938629.55,fixation,1,656,,,RelaxSession
1628938629.66,stimulus,3,84,,,NoMusic
1628938629.92,stimulus,2,175,,,NoMusic
1628938630.16,fixation,3,84,,,NoMusic
1628938630.42,fixation,2,175,,,NoMusic
1628938631.05,stimulus,1,657,,,RelaxSession
1628938631.55,fixation,1,657,,,RelaxSession
1628938631.66,stimulus,3,85,,,NoMusic
1628938631.92,stimulus,2,176,,,NoMusic
1628938632.16,fixation,3,85,,,NoMusic
1628938632.42,fixation,2,176,,,NoMusic
1628938633.05,stimulus,1,658,,,RelaxSession
1628938633.55,fixation,1,658,,,RelaxSession
1628938633.66,stimulus,3,86,,,NoMusic
1628938633.92,stimulus,2,177,,,NoMusic
1628938634.16,fixation,3,86,,,NoMusic
1628938634.42,fixation,2,177,,,NoMusic
1628938635.05,stimulus,1,659,,,RelaxSession
1628938635.55,fixation,1,659,,,RelaxSession
1628938635.66,stimulus,3,87,,,NoMusic
1628938635.92,stimulus,2,178,,,NoMusic
1628938636.16,fixation,3,87,,,NoMusic
1628938636.42,fixation,2,178,,,NoMusic
1628938637.05,stimulus,1,660,,,RelaxSession
1628938637.55,fixation,1,660,,,RelaxSession
1628938637.66,stimulus,3,88,,,NoMusic
1628938637.92,stimulus,2,179,,,NoMusic
1628938638.16,fixation,3,88,,,NoMusic
1628938638.42,fixation,2,179,,,NoMusic
1628938639.05,stimulus,1,661,,,RelaxSession
1628938639.55,fixation,1,661,,,RelaxSession
1628938639.66,stimulus,3,89,,,NoMusic
1628938639.92,stimulus,2,180,,,NoMusic
1628938640.16,fixation,3,89,,,NoMusic
1628938640.42,fixation,2,180,,,NoMusic
1628938641.05,stimulus,1,662,,,RelaxSession
1628938641.55,fixation,1,662,,,RelaxSession
1628938641.66,stimulus,3,90,,,NoMusic
1628938641.92,stimulus,2,181,,,NoMusic
1628938642.16,fixation,3,90,,,NoMusic
1628938642.42,fixation,2,181,,,NoMusic
1628938643.05,stimulus,1,663,,,RelaxSession
1628938643.55,fixation,1,663,,,RelaxSession
1628938643.66,stimulus,3,91,,,NoMusic
1628938643.92,stimulus,2,182,,,NoMusic
1628938644.16,fixation,3,91,,,NoMusic
1628938644.42,fixation,2,182,,,NoMusic
1628938645.05,stimulus,1,664,,,RelaxSession
1628938645.55,fixation,1,664,,,RelaxSession
1628938645.66,stimulus,3,92,,,NoMusic
1628938645.92,stimulus,2,183,,,NoMusic
1628938646.16,fixation,3,92,,,NoMusic
1628938646.42,fixation,2,183,,,NoMusic
1628938647.05,stimulus,1,665,,,RelaxSession
1628938647.55,fixation,1,665,,,RelaxSession
1628938647.66,stimulus,3,93,,,NoMusic
1628938647.92,stimulus,2,184,,,NoMusic
1628938648.16,fixation,3,93,,,NoMusic
1628938648.42,fixation,2,184,,,NoMusic
1628938649.05,stimulus,1,666,,,RelaxSession
1628938649.55,fixation,1,666,,,RelaxSession
1628938649.66,stimulus,3,94,,,NoMusic
1628938649.92,stimulus,2,185,,,NoMusic
1628938650.16,fixation,3,94,,,NoMusic
1628938650.42,fixation,2,185,,,NoMusic
1628938651.05,stimulus,1,667,,,RelaxSession
1628938651.55,fixation,1,667,,,RelaxSession
1628938651.66,stimulus,3,95,,,NoMusic
1628938651.92,stimulus,2,186,,,NoMusic
1628938652.16,fixation,3,95,,,NoMusic
1628938652.42,fixation,2,186,,,NoMusic
1628938653.05,stimulus,1,668,,,RelaxSession
1628938653.55,fixation,1,668,,,RelaxSession
1628938653.66,stimulus,3,96,,,NoMusic
1628938653.92,stimulus,2,187,,,NoMusic
1628938654.16,fixation,3,96,,,NoMusic
1628938654.42,fixation,2,187,,,NoMusic
1628938655.05,stimulus,1,669,,,RelaxSession
1628938655.55,fixation,1,669,,,RelaxSession
1628938655.66,stimulus,3,97,,,NoMusic
1628938655.92,stimulus,2,188,,,NoMusic
1628938656.16,fixation,3,97,,,NoMusic
1628938656.42,fixation,2,188,,,NoMusic
1628938657.05,stimulus,1,670,,,RelaxSession
1628938657.55,fixation,1,670,,,RelaxSession
1628938657.66,stimulus,3,98,,,NoMusic
1628938657.92,stimulus,2,189,,,NoMusic
1628938658.16,fixation,3,98,,,NoMusic
1628938658.42,fixation,2,189,,,NoMusic
1628938659.05,stimulus,1,671,,,RelaxSession
1628938659.55,fixation,1,671,,,RelaxSession
1628938659.66,stimulus,3,99,,,NoMusic
1628938659.92,stimulus,2,190,,,NoMusic
1628938660.16,fixation,3,99,,,NoMusic
1628938660.42,fixation,2,190,,,NoMusic
1628938661.05,stimulus,1,672,,,RelaxSession
1628938661.55,fixation,1,672,,,RelaxSession
1628938661.66,stimulus,3,100,,,NoMusic
1628938661.92,stimulus,2,191,,,NoMusic
1628938662.16,fixation,3,100,,,NoMusic
1628938662.42,fixation,2,191,,,NoMusic
1628938663.05,stimulus,1,673,,,RelaxSession
1628938663.55,fixation,1,673,,,RelaxSession
1628938663.66,stimulus,3,101,,,NoMusic
1628938663.92,stimulus,2,192,,,NoMusic
1628938664.16,fixation,3,101,,,NoMusic
1628938664.42,fixation,2,192,,,NoMusic
1628938665.05,stimulus,1,674,,,RelaxSession
1628938665.55,fixation,1,674,,,RelaxSession
1628938665.66,stimulus,3,102,,,NoMusic
1628938665.92,stimulus,2,193,,,NoMusic
1628938666.16,fixation,3,102,,,NoMusic
1628938666.42,fixation,2,193,,,NoMusic
1628938667.05,stimulus,1,675,,,RelaxSession
1628938667.55,fixation,1,675,,,RelaxSession
1628938667.66,stimulus,3,103,,,NoMusic
1628938667.92,stimulus,2,194,,,NoMusic
1628938668.16,fixation,3,103,,,NoMusic
1628938668.42,fixation,2,194,,,NoMusic
1628938669.05,stimulus,1,676,,,RelaxSession
1628938669.55,fixation,1,676,,,RelaxSession
1628938669.66,stimulus,3,104,,,NoMusic
1628938669.92,stimulus,2,195,,,NoMusic
1628938670.16,fixation,3,104,,,NoMusic
1628938670.42,fixation,2,195,,,NoMusic
1628938671.05,stimulus,1,677,,,RelaxSession
1628938671.55,fixation,1,677,,,RelaxSession
1628938671.66,stimulus,3,105,,,NoMusic
1628938671.92,stimulus,2,196,,,NoMusic
1628938672.16,fixation,3,105,,,NoMusic
1628938672.42,fixation,2,196,,,NoMusic
1628938673.05,stimulus,1,678,,,RelaxSession
1628938673.55,fixation,1,678,,,RelaxSession
1628938673.66,stimulus,3,106,,,NoMusic
1628938673.92,stimulus,2,197,,,NoMusic
1628938674.16,fixation,3,106,,,NoMusic
1628938674.42,fixation,2,197,,,NoMusic
1628938675.05,stimulus,1,679,,,RelaxSession
1628938675.55,fixation,1,679,,,RelaxSession
1628938675.66,stimulus,3,107,,,NoMusic
1628938675.92,stimulus,2,198,,,NoMusic
1628938676.16,fixation,3,107,,,NoMusic
1628938676.42,fixation,2,198,,,NoMusic
1628938677.05,stimulus,1,680,,,RelaxSession
1628938677.55,fixation,1,680,,,RelaxSession
1628938677.66,stimulus,3,108,,,NoMusic
1628938677.92,stimulus,2,199,,,NoMusic
1628938678.16,fixation,3,108,,,NoMusic
1628938678.42,fixation,2,199,,,NoMusic
1628938679.05,stimulus,1,681,,,RelaxSession
1628938679.55,fixation,1,681,,,RelaxSession
1628938679.66,stimulus,3,109,,,NoMusic
1628938679.92,stimulus,2,200,,,NoMusic
1628938680.16,fixation,3,109,,,NoMusic
1628938680.42,fixation,2,200,,,NoMusic
1628938681.05,stimulus,1,682,,,RelaxSession
1628938681.55,fixation,1,682,,,RelaxSession
1628938681.66,stimulus,3,110,,,NoMusic
1628938681.92,stimulus,2,201,,,NoMusic
1628938682.16,fixation,3,110,,,NoMusic
1628938682.42,fixation,2,201,,,NoMusic
1628938683.05,stimulus,1,683,,,RelaxSession
1628938683.55,fixation,1,683,,,RelaxSession
1628938683.66,stimulus,3,111,,,NoMusic
1628938683.92,stimulus,2,202,,,NoMusic
1628938684.16,fixation,3,111,,,NoMusic
1628938684.42,fixation,2,202,,,NoMusic
1628938685.05,stimulus,1,684,,,RelaxSession
1628938685.55,fixation,1,684,,,RelaxSession
1628938685.66,stimulus,3,112,,,NoMusic
1628938685.92,stimulus,2,203,,,NoMusic
1628938686.16,fixation,3,112,,,NoMusic
1628938686.42,fixation,2,203,,,NoMusic
1628938687.05,stimulus,1,685,,,RelaxSession
1628938687.55,fixation,1,685,,,RelaxSession
1628938687.66,stimulus,3,113,,,NoMusic
1628938687.92,stimulus,2,204,,,NoMusic
1628938688.16,fixation,3,113,,,NoMusic
1628938688.42,fixation,2,204,,,NoMusic
1628938689.05,stimulus,1,686,,,RelaxSession
1628938689.55,fixation,1,686,,,RelaxSession
1628938689.66,stimulus,3,114,,,NoMusic
1628938689.92,stimulus,2,205,,,NoMusic
1628938690.16,fixation,3,114,,,NoMusic
1628938690.42,fixation,2,205,,,NoMusic
1628938691.05,stimulus,1,687,,,RelaxSession
1628938691.55,fixation,1,687,,,RelaxSession
1628938691.66,stimulus,3,115,,,NoMusic
1628938691.92,stimulus,2,206,,,NoMusic
1628938692.16,fixation,3,115,,,NoMusic
1628938692.42,fixation,2,206,,,NoMusic
1628938693.05,stimulus,1,688,,,RelaxSession
1628938693.55,fixation,1,688,,,RelaxSession
1628938693.66,stimulus,3,116,,,NoMusic
1628938693.92,stimulus,2,207,,,NoMusic
1628938694.16,fixation,3,116,,,NoMusic
1628938694.42,fixation,2,207,,,NoMusic
1628938695.05,stimulus,1,689,,,RelaxSession
1628938695.55,fixation,1,689,,,RelaxSession
1628938695.66,stimulus,3,117,,,NoMusic
1628938695.92,stimulus,2,208,,,NoMusic
1628938696.16,fixation,3,117,,,NoMusic
1628938696.42,fixation,2,208,,,NoMusic
1628938697.05,stimulus,1,690,,,RelaxSession
1628938697.55,fixation,1,690,,,RelaxSession
1628938697.66,stimulus,3,118,,,NoMusic
1628938697.92,stimulus,2,209,,,NoMusic
1628938698.16,fixation,3,118,,,NoMusic
1628938698.42,fixation,2,209,,,NoMusic
1628938699.05,stimulus,1,691,,,RelaxSession
1628938699.55,fixation,1,691,,,RelaxSession
1628938699.66,stimulus,3,119,,,NoMusic
1628938699.92,stimulus,2,210,,,NoMusic
1628938700.16,fixation,3,119,,,NoMusic
1628938700.42,fixation,2,210,,,NoMusic
1628938701.05,stimulus,1,692,,,RelaxSession
1628938701.55,fixation,1,692,,,RelaxSession
1628938701.66,stimulus,3,120,,,NoMusic
1628938701.92,stimulus,2,211,,,NoMusic
1628938702.16,fixation,3,120,,,NoMusic
1628938702.42,fixation,2,211,,,NoMusic
1628938703.05,stimulus,1,693,,,RelaxSession
1628938703.55,fixation,1,693,,,RelaxSession
1628938703.66,stimulus,3,121,,,NoMusic
1628938703.92,stimulus,2,212,,,NoMusic
1628938704.16,fixation,3,121,,,NoMusic
1628938704.42,fixation,2,212,,,NoMusic
1628938705.05,stimulus,1,694,,,RelaxSession
1628938705.55,fixation,1,694,,,RelaxSession
1628938705.66,stimulus,3,122,,,NoMusic
1628938705.92,stimulus,2,213,,,NoMusic
1628938706.16,fixation,3,122,,,NoMusic
1628938706.42,fixation,2,213,,,NoMusic
1628938707.05,stimulus,1,695,,,RelaxSession
1628938707.55,fixation,1,695,,,RelaxSession
1628938707.66,stimulus,3,123,,,NoMusic
1628938707.92,stimulus,2,214,,,NoMusic
1628938708.16,fixation,3,123,,,NoMusic
1628938708.42,fixation,2,214,,,NoMusic
1628938709.05,stimulus,1,696,,,RelaxSession
1628938709.55,fixation,1,696,,,RelaxSession
1628938709.66,stimulus,3,124,,,NoMusic
1628938709.92,stimulus,2,215,,,NoMusic
1628938710.16,fixation,3,124,,,NoMusic
1628938710.42,fixation,2,215,,,NoMusic
1628938711.05,stimulus,1,697,,,RelaxSession
1628938711.55,fixation,1,697,,,RelaxSession
1628938711.66,stimulus,3,125,,,NoMusic
1628938711.92,stimulus,2,216,,,NoMusic
1628938712.16,fixation,3,125,,,NoMusic
1628938712.42,fixation,2,216,,,NoMusic
1628938713.05,stimulus,1,698,,,RelaxSession
1628938713.55,fixation,1,698,,,RelaxSession
1628938713.66,stimulus,3,126,,,NoMusic
1628938713.92,stimulus,2,217,,,NoMusic
1628938714.16,fixation,3,126,,,NoMusic
1628938714.42,fixation,2,217,,,NoMusic
1628938715.05,stimulus,1,699,,,RelaxSession
1628938715.55,fixation,1,699,,,RelaxSession
1628938715.66,stimulus,3,127,,,NoMusic
1628938715.92,stimulus,2,218,,,NoMusic
1628938716.16,fixation,3,127,,,NoMusic
1628938716.42,fixation,2,218,,,NoMusic
1628938717.05,stimulus,1,700,,,RelaxSession
1628938717.55,fixation,1,700,,,RelaxSession
1628938717.66,stimulus,3,128,,,NoMusic
1628938717.92,stimulus,2,219,,,NoMusic
1628938718.16,fixation,3,128,,,NoMusic
1628938718.42,fixation,2,219,,,NoMusic
1628938719.05,stimulus,1,701,,,RelaxSession
1628938719.55,fixation,1,701,,,RelaxSession
1628938719.66,stimulus,3,129,,,NoMusic
1628938719.92,stimulus,2,220,,,NoMusic
1628938720.16,fixation,3,129,,,NoMusic
1628938720.42,fixation,2,220,,,NoMusic
1628938721.05,stimulus,1,702,,,RelaxSession
1628938721.55,fixation,1,702,,,RelaxSession
1628938721.66,stimulus,3,130,,,NoMusic
1628938721.92,stimulus,2,221,,,NoMusic
1628938722.16,fixation,3,130,,,NoMusic
1628938722.42,fixation,2,221,,,NoMusic
1628938723.05,stimulus,1,703,,,RelaxSession
1628938723.55,fixation,1,703,,,RelaxSession
1628938723.66,stimulus,3,131,,,NoMusic
1628938723.92,stimulus,2,222,,,NoMusic
1628938724.16,fixation,3,131,,,NoMusic
1628938724.42,fixation,2,222,,,NoMusic
1628938725.05,stimulus,1,704,,,RelaxSession
1628938725.55,fixation,1,704,,,RelaxSession
1628938725.66,stimulus,3,132,,,NoMusic
1628938725.92,stimulus,2,223,,,NoMusic
1628938726.16,fixation,3,132,,,NoMusic
1628938726.42,fixation,2,223,,,NoMusic
1628938727.05,stimulus,1,705,,,RelaxSession
1628938727.55,fixation,1,705,,,RelaxSession
1628938727.66,stimulus,3,133,,,NoMusic
1628938727.92,stimulus,2,224,,,NoMusic
1628938728.16,fixation,3,133,,,NoMusic
1628938728.42,fixation,2,224,,,NoMusic
1628938729.05,stimulus,1,706,,,RelaxSession
1628938729.55,fixation,1,706,,,RelaxSession
1628938729.66,stimulus,3,134,,,NoMusic
1628938729.92,stimulus,2,225,,,NoMusic
1628938730.16,fixation,3,134,,,NoMusic
1628938730.42,fixation,2,225,,,NoMusic
1628938731.05,stimulus,1,707,,,RelaxSession
1628938731.55,fixation,1,707,,,RelaxSession
1628938731.66,stimulus,3,135,,,NoMusic
1628938731.92,stimulus,2,226,,,NoMusic
1628938732.16,fixation,3,135,,,NoMusic
1628938732.42,fixation,2,226,,,NoMusic
1628938733.05,stimulus,1,708,,,RelaxSession
1628938733.55,fixation,1,708,,,RelaxSession
1628938733.66,stimulus,3,136,,,NoMusic
1628938733.92,stimulus,2,227,,,NoMusic
1628938734.16,fixation,3,136,,,NoMusic
1628938734.42,fixation,2,227,,,NoMusic
1628938735.05,stimulus,1,709,,,RelaxSession
1628938735.55,fixation,1,709,,,RelaxSession
1628938735.66,stimulus,3,137,,,NoMusic
1628938735.92,stimulus,2,228,,,NoMusic
1628938736.16,fixation,3,137,,,NoMusic
1628938736.42,fixation,2,228,,,NoMusic
1628938737.05,stimulus,1,710,,,RelaxSession
1628938737.55,fixation,1,710,,,RelaxSession
1628938737.66,stimulus,3,138,,,NoMusic
1628938737.92,stimulus,2,229,,,NoMusic
1628938738.16,fixation,3,138,,,NoMusic
1628938738.42,fixation,2,229,,,NoMusic
1628938739.05,stimulus,1,711,,,RelaxSession
1628938739.55,fixation,1,711,,,RelaxSession
1628938739.66,stimulus,3,139,,,NoMusic
1628938739.92,stimulus,2,230,,,NoMusic
1628938740.16,fixation,3,139,,,NoMusic
1628938740.42,fixation,2,230,,,NoMusic
1628938741.05,stimulus,1,712,,,RelaxSession
1628938741.55,fixation,1,712,,,RelaxSession
1628938741.66,stimulus,3,140,,,NoMusic
1628938741.92,stimulus,2,231,,,NoMusic
1628938742.16,fixation,3,140,,,NoMusic
1628938742.42,fixation,2,231,,,NoMusic
1628938743.05,stimulus,1,713,,,RelaxSession
1628938743.55,fixation,1,713,,,RelaxSession
1628938743.66,stimulus,3,141,,,NoMusic
1628938743.92,stimulus,2,232,,,NoMusic
1628938744.16,fixation,3,141,,,NoMusic
1628938744.42,fixation,2,232,,,NoMusic
1628938745.05,stimulus,1,714,,,RelaxSession
1628938745.55,fixation,1,714,,,RelaxSession
1628938745.66,stimulus,3,142,,,NoMusic
1628938745.92,stimulus,2,233,,,NoMusic
1628938746.16,fixation,3,142,,,NoMusic
1628938746.42,fixation,2,233,,,NoMusic
1628938747.05,stimulus,1,715,,,RelaxSession
1628938747.55,fixation,1,715,,,RelaxSession
1628938747.66,stimulus,3,143,,,NoMusic
1628938747.92,stimulus,2,234,,,NoMusic
1628938748.16,fixation,3,143,,,NoMusic
1628938748.42,fixation,2,234,,,NoMusic
1628938749.05,stimulus,1,716,,,RelaxSession
1628938749.55,fixation,1,716,,,RelaxSession
1628938749.66,stimulus,3,144,,,NoMusic
1628938749.92,stimulus,2,235,,,NoMusic
1628938750.16,fixation,3,144,,,NoMusic
1628938750.42,fixation,2,235,,,NoMusic
1628938751.05,stimulus,1,717,,,RelaxSession
1628938751.55,fixation,1,717,,,RelaxSession
1628938751.66,stimulus,3,145,,,NoMusic
1628938751.92,stimulus,2,236,,,NoMusic
1628938752.16,fixation,3,145,,,NoMusic
1628938752.42,fixation,2,236,,,NoMusic
1628938753.05,stimulus,1,718,,,RelaxSession
1628938753.55,fixation,1,718,,,RelaxSession
1628938753.66,stimulus,3,146,,,NoMusic
1628938753.92,stimulus,2,237,,,NoMusic
1628938754.16,fixation,3,146,,,NoMusic
1628938754.42,fixation,2,237,,,NoMusic
1628938755.05,stimulus,1,719,,,RelaxSession
1628938755.55,fixation,1,719,,,RelaxSession
1628938755.66,stimulus,3,147,,,NoMusic
1628938755.92,stimulus,2,238,,,NoMusic
1628938756.16,fixation,3,147,,,NoMusic
1628938756.42,fixation,2,238,,,NoMusic
1628938757.05,stimulus,1,720,,,RelaxSession
1628938757.55,fixation,1,720,,,RelaxSession
1628938757.66,stimulus,3,148,,,NoMusic
1628938757.92,stimulus,2,239,,,NoMusic
1628938758.16,fixation,3,148,,,NoMusic
1628938758.42,fixation,2,239,,,NoMusic
1628938759.05,stimulus,1,721,,,RelaxSession
1628938759.55,fixation,1,721,,,RelaxSession
1628938759.66,stimulus,3,149,,,NoMusic
1628938759.92,stimulus,2,240,,,NoMusic
1628938760.16,fixation,3,149,,,NoMusic
1628938760.42,fixation,2,240,,,NoMusic
1628938761.05,stimulus,1,722,,,RelaxSession
1628938761.55,fixation,1,722,,,RelaxSession
1628938761.66,stimulus,3,150,,,NoMusic
1628938761.92,stimulus,2,241,,,NoMusic
1628938762.16,fixation,3,150,,,NoMusic
1628938762.42,fixation,2,241,,,NoMusic
1628938763.05,stimulus,1,723,,,RelaxSession
1628938763.55,fixation,1,723,,,RelaxSession
1628938763.66,stimulus,3,151,,,NoMusic
1628938763.92,stimulus,2,242,,,NoMusic
1628938764.16,fixation,3,151,,,NoMusic
1628938764.42,fixation,2,242,,,NoMusic
1628938765.05,stimulus,1,724,,,RelaxSession
1628938765.55,fixation,1,724,,,RelaxSession
1628938765.66,stimulus,3,152,,,NoMusic
1628938765.92,stimulus,2,243,,,NoMusic
1628938766.16,fixation,3,152,,,NoMusic
1628938766.42,fixation,2,243,,,NoMusic
1628938767.05,stimulus,1,725,,,RelaxSession
1628938767.55,fixation,1,725,,,RelaxSession
1628938767.66,stimulus,3,153,,,NoMusic
1628938767.92,stimulus,2,244,,,NoMusic
1628938768.16,fixation,3,153,,,NoMusic
1628938768.42,fixation,2,244,,,NoMusic
1628938769.05,stimulus,1,726,,,RelaxSession
1628938769.55,fixation,1,726,,,RelaxSession
1628938769.66,stimulus,3,154,,,NoMusic
1628938769.92,stimulus,2,245,,,NoMusic
1628938770.16,fixation,3,154,,,NoMusic
1628938770.42,fixation,2,245,,,NoMusic
1628938771.05,stimulus,1,727,,,RelaxSession
1628938771.55,fixation,1,727,,,RelaxSession
1628938771.66,stimulus,3,155,,,NoMusic
1628938771.92,stimulus,2,246,,,NoMusic
1628938772.16,fixation,3,155,,,NoMusic
1628938772.42,fixation,2,246,,,NoMusic
1628938773.05,stimulus,1,728,,,RelaxSession
1628938773.55,fixation,1,728,,,RelaxSession
1628938773.66,stimulus,3,156,,,NoMusic
1628938773.92,stimulus,2,247,,,NoMusic
1628938774.16,fixation,3,156,,,NoMusic
1628938774.42,fixation,2,247,,,NoMusic
1628938775.05,stimulus,1,729,,,RelaxSession
1628938775.55,fixation,1,729,,,RelaxSession
1628938775.66,stimulus,3,157,,,NoMusic
1628938775.92,stimulus,2,248,,,NoMusic
1628938776.16,fixation,3,157,,,NoMusic
1628938776.42,fixation,2,248,,,NoMusic
1628938777.05,stimulus,1,730,,,RelaxSession
1628938777.55,fixation,1,730,,,RelaxSession
1628938777.66,stimulus,3,158,,,NoMusic
1628938777.92,stimulus,2,249,,,NoMusic
1628938778.16,fixation,3,158,,,NoMusic
1628938778.42,fixation,2,249,,,NoMusic
1628938779.05,stimulus,1,731,,,RelaxSession
1628938779.55,fixation,1,731,,,RelaxSession
1628938779.66,stimulus,3,159,,,NoMusic
1628938779.92,stimulus,2,250,,,NoMusic
1628938780.16,fixation,3,159,,,NoMusic
1628938780.42,fixation,2,250,,,NoMusic
1628938781.05,stimulus,1,732,,,RelaxSession
1628938781.55,fixation,1,732,,,RelaxSession
1628938781.66,stimulus,3,160,,,NoMusic
1628938781.92,stimulus,2,251,,,NoMusic
1628938782.16,fixation,3,160,,,NoMusic
1628938782.42,fixation,2,251,,,NoMusic
1628938783.05,stimulus,1,733,,,RelaxSession
1628938783.55,fixation,1,733,,,RelaxSession
1628938783.66,stimulus,3,161,,,NoMusic
1628938783.92,stimulus,2,252,,,NoMusic
1628938784.16,fixation,3,161,,,NoMusic
1628938784.42,fixation,2,252,,,NoMusic
1628938785.05,stimulus,1,734,,,RelaxSession
1628938785.55,fixation,1,734,,,RelaxSession
1628938785.66,stimulus,3,162,,,NoMusic
1628938785.92,stimulus,2,253,,,NoMusic
1628938786.16,fixation,3,162,,,NoMusic
1628938786.42,fixation,2,253,,,NoMusic
1628938787.05,stimulus,1,735,,,RelaxSession
1628938787.55,fixation,1,735,,,RelaxSession
1628938787.66,stimulus,3,163,,,NoMusic
1628938787.92,stimulus,2,254,,,NoMusic
1628938788.16,fixation,3,163,,,NoMusic
1628938788.42,fixation,2,254,,,NoMusic
1628938789.05,stimulus,1,736,,,RelaxSession
1628938789.55,fixation,1,736,,,RelaxSession
1628938789.66,stimulus,3,164,,,NoMusic
1628938789.92,stimulus,2,255,,,NoMusic
1628938790.16,fixation,3,164,,,NoMusic
1628938790.42,fixation,2,255,,,NoMusic
1628938791.05,stimulus,1,737,,,RelaxSession
1628938791.55,fixation,1,737,,,RelaxSession
1628938791.66,stimulus,3,165,,,NoMusic
1628938791.92,stimulus,2,256,,,NoMusic
1628938792.16,fixation,3,165,,,NoMusic
1628938792.42,fixation,2,256,,,NoMusic
1628938793.05,stimulus,1,738,,,RelaxSession
1628938793.55,fixation,1,738,,,RelaxSession
1628938793.66,stimulus,3,166,,,NoMusic
1628938793.92,stimulus,2,257,,,NoMusic
1628938794.16,fixation,3,166,,,NoMusic
1628938794.42,fixation,2,257,,,NoMusic
