event_time_s,trial_type,session_idx,trial_idx,RT_s,ACC,session_type
1625853068.69,stimulus,1,1,,,PracticeSession
1625853069.19,fixation,1,1,,,PracticeSession
1625853070.69,stimulus,1,2,,,PracticeSession
1625853071.19,fixation,1,2,,,PracticeSession
1625853072.69,stimulus,1,3,,,PracticeSession
1625853073.19,fixation,1,3,,,PracticeSession
1625853074.69,stimulus,1,4,,,PracticeSession
1625853075.19,fixation,1,4,,,PracticeSession
1625853076.69,stimulus,1,5,,,PracticeSession
1625853077.19,fixation,1,5,,,PracticeSession
1625853078.69,stimulus,1,6,,,PracticeSession
1625853079.19,fixation,1,6,,,PracticeSession
1625853080.69,stimulus,1,7,,,PracticeSession
1625853081.19,fixation,1,7,,,PracticeSession
1625853082.69,stimulus,1,8,,,PracticeSession
1625853083.19,fixation,1,8,,,PracticeSession
1625853084.69,stimulus,1,9,,,PracticeSession
1625853085.19,fixation,1,9,,,PracticeSession
1625853086.69,stimulus,1,10,,,PracticeSession
1625853087.19,fixation,1,10,,,PracticeSession
1625853088.69,stimulus,1,11,,,PracticeSession
1625853089.19,fixation,1,11,,,PracticeSession
1625853090.69,stimulus,1,12,,,PracticeSession
1625853091.19,fixation,1,12,,,PracticeSession
1625853092.69,stimulus,1,13,,,PracticeSession
1625853093.19,fixation,1,13,,,PracticeSession
1625853094.69,stimulus,1,14,,,PracticeSession
1625853095.19,fixation,1,14,,,PracticeSession
1625853096.69,stimulus,1,15,,,PracticeSession
1625853097.19,fixation,1,15,,,PracticeSession
1625853098.69,stimulus,1,16,,,PracticeSession
1625853099.19,fixation,1,16,,,PracticeSession
1625853100.69,stimulus,1,17,,,PracticeSession
1625853101.19,fixation,1,17,,,PracticeSession
1625853102.69,stimulus,1,18,,,PracticeSession
1625853103.19,fixation,1,18,,,PracticeSession
1625853104.69,stimulus,1,19,,,PracticeSession
1625853105.19,fixation,1,19,,,PracticeSession
1625853106.69,stimulus,1,20,,,PracticeSession
1625853107.19,fixation,1,20,,,PracticeSession
1625853108.69,stimulus,1,21,,,PracticeSession
1625853109.19,fixation,1,21,,,PracticeSession
1625853110.69,stimulus,1,22,,,PracticeSession
1625853111.19,fixation,1,22,,,PracticeSession
1625853112.69,stimulus,1,23,,,PracticeSession
1625853113.19,fixation,1,23,,,PracticeSession
1625853114.69,stimulus,1,24,,,PracticeSession
1625853115.19,fixation,1,24,,,PracticeSession
1625853116.69,stimulus,1,25,,,PracticeSession
1625853117.19,fixation,1,25,,,PracticeSession
1625853118.69,stimulus,1,26,,,PracticeSession
1625853119.19,fixation,1,26,,,PracticeSession
1625853120.69,stimulus,1,27,,,PracticeSession
1625853121.19,fixation,1,27,,,PracticeSession
1625853122.69,stimulus,1,28,,,PracticeSession
1625853123.19,fixation,1,28,,,PracticeSession
1625853124.69,stimulus,1,29,,,PracticeSession
1625853125.19,fixation,1,29,,,PracticeSession
1625853126.69,stimulus,1,30,,,PracticeSession
1625853127.19,fixation,1,30,,,PracticeSession
1625853128.69,stimulus,1,31,,,PracticeSession
1625853129.19,fixation,1,31,,,PracticeSession
1625853130.69,stimulus,1,32,,,PracticeSession
1625853131.19,fixation,1,32,,,PracticeSession
1625853132.69,stimulus,1,33,,,PracticeSession
1625853133.19,fixation,1,33,,,PracticeSession
1625853134.69,stimulus,1,34,,,PracticeSession
1625853135.19,fixation,1,34,,,PracticeSession
1625853136.69,stimulus,1,35,,,PracticeSession
1625853137.19,fixation,1,35,,,PracticeSession
1625853138.69,stimulus,1,36,,,PracticeSession
1625853139.19,fixation,1,36,,,PracticeSession
1625853140.69,stimulus,1,37,,,PracticeSession
1625853141.19,fixation,1,37,,,PracticeSession
1625853142.69,stimulus,1,38,,,PracticeSession
1625853143.19,fixation,1,38,,,PracticeSession
1625853144.69,stimulus,1,39,,,PracticeSession
1625853145.19,fixation,1,39,,,PracticeSession
1625853146.69,stimulus,1,40,,,PracticeSession
1625853147.19,fixation,1,40,,,PracticeSession
1625853148.69,stimulus,1,41,,,PracticeSession
1625853149.19,fixation,1,41,,,PracticeSession
1625853150.69,stimulus,1,42,,,PracticeSession
1625853151.19,fixation,1,42,,,PracticeSession
1625853152.69,stimulus,1,43,,,PracticeSession
1625853153.19,fixation,1,43,,,PracticeSession
1625853154.69,stimulus,1,44,,,PracticeSession
1625853155.19,fixation,1,44,,,PracticeSession
1625853156.69,stimulus,1,45,,0.0,NoMusic
1625853157.2410002,fixation,1,45,0.051,1.0,NoMusic
1625853158.996,stimulus,1,46,0.306,1.0,NoMusic
1625853159.19,fixation,1,46,,0.0,NoMusic
1625853161.04,stimulus,1,47,0.35,1.0,NoMusic
1625853161.19,fixation,1,47,,0.0,NoMusic
1625853162.69,stimulus,1,48,,0.0,NoMusic
1625853163.229,fixation,1,48,0.039,1.0,NoMusic
1625853165.135,stimulus,1,49,0.445,1.0,NoMusic
1625853165.19,fixation,1,49,,0.0,NoMusic
1625853167.0800002,stimulus,1,50,0.39,1.0,NoMusic
1625853167.19,fixation,1,50,,0.0,NoMusic
1625853169.025,stimulus,1,51,0.335,0.0,NoMusic
1625853169.19,fixation,1,51,,0.0,NoMusic
1625853170.69,stimulus,1,52,,0.0,NoMusic
1625853171.1950002,fixation,1,52,0.005,1.0,NoMusic
1625853173.186,stimulus,1,53,0.496,1.0,NoMusic
1625853173.19,fixation,1,53,,0.0,NoMusic
1625853175.0540001,stimulus,1,54,0.364,1.0,NoMusic
1625853175.19,fixation,1,54,,0.0,NoMusic
1625853177.0240002,stimulus,1,55,0.334,1.0,NoMusic
1625853177.19,fixation,1,55,,0.0,NoMusic
1625853179.157,stimulus,1,56,0.467,1.0,NoMusic
1625853179.19,fixation,1,56,,0.0,NoMusic
1625853181.061,stimulus,1,57,0.371,1.0,NoMusic
1625853181.19,fixation,1,57,,0.0,NoMusic
1625853183.05,stimulus,1,58,0.36,1.0,NoMusic
1625853183.14,stimulus,2,1,,,PracticeSession
1625853183.19,fixation,1,58,,0.0,NoMusic
1625853183.64,fixation,2,1,,,PracticeSession
1625853185.049,stimulus,1,59,0.359,1.0,NoMusic
1625853185.14,stimulus,2,2,,,PracticeSession
1625853185.19,fixation,1,59,,0.0,NoMusic
1625853185.64,fixation,2,2,,,PracticeSession
1625853187.006,stimulus,1,60,0.316,1.0,NoMusic
1625853187.14,stimulus,2,3,,,PracticeSession
1625853187.19,fixation,1,60,,0.0,NoMusic
1625853187.64,fixation,2,3,,,PracticeSession
1625853189.079,stimulus,1,61,0.389,1.0,NoMusic
1625853189.14,stimulus,2,4,,,PracticeSession
1625853189.19,fixation,1,61,,0.0,NoMusic
1625853189.64,fixation,2,4,,,PracticeSession
1625853191.0340002,stimulus,1,62,0.344,1.0,NoMusic
1625853191.14,stimulus,2,5,,,PracticeSession
1625853191.19,fixation,1,62,,0.0,NoMusic
1625853191.64,fixation,2,5,,,PracticeSession
1625853193.0310001,stimulus,1,63,0.341,1.0,NoMusic
1625853193.14,stimulus,2,6,,,PracticeSession
1625853193.19,fixation,1,63,,0.0,NoMusic
1625853193.64,fixation,2,6,,,PracticeSession
1625853195.042,stimulus,1,64,0.352,1.0,NoMusic
1625853195.14,stimulus,2,7,,,PracticeSession
1625853195.19,fixation,1,64,,0.0,NoMusic
1625853195.64,fixation,2,7,,,PracticeSession
1625853197.012,stimulus,1,65,0.322,1.0,NoMusic
1625853197.14,stimulus,2,8,,,PracticeSession
1625853197.19,fixation,1,65,,0.0,NoMusic
1625853197.64,fixation,2,8,,,PracticeSession
1625853199.081,stimulus,1,66,0.391,1.0,NoMusic
1625853199.14,stimulus,2,9,,,PracticeSession
1625853199.19,fixation,1,66,,0.0,NoMusic
1625853199.64,fixation,2,9,,,PracticeSession
1625853200.69,stimulus,1,67,,0.0,NoMusic
1625853201.14,stimulus,2,10,,,PracticeSession
1625853201.64,fixation,2,10,,,PracticeSession
1625853202.071,fixation,1,67,0.881,1.0,NoMusic
1625853203.109,stimulus,1,68,0.419,1.0,NoMusic
1625853203.14,stimulus,2,11,,,PracticeSession
1625853203.19,fixation,1,68,,0.0,NoMusic
1625853203.64,fixation,2,11,,,PracticeSession
1625853205.005,stimulus,1,69,0.315,1.0,NoMusic
1625853205.14,stimulus,2,12,,,PracticeSession
1625853205.19,fixation,1,69,,0.0,NoMusic
1625853205.64,fixation,2,12,,,PracticeSession
1625853207.14,stimulus,2,13,,,PracticeSession
1625853207.1560001,stimulus,1,70,0.466,1.0,NoMusic
1625853207.19,fixation,1,70,,0.0,NoMusic
1625853207.64,fixation,2,13,,,PracticeSession
1625853208.969,stimulus,1,71,0.279,1.0,NoMusic
1625853209.14,stimulus,2,14,,,PracticeSession
1625853209.19,fixation,1,71,,0.0,NoMusic
1625853209.64,fixation,2,14,,,PracticeSession
1625853210.69,stimulus,1,72,,0.0,NoMusic
1625853211.14,stimulus,2,15,,,PracticeSession
1625853211.64,fixation,2,15,,,PracticeSession
1625853211.6460001,fixation,1,72,0.456,1.0,NoMusic
1625853213.073,stimulus,1,73,0.383,1.0,NoMusic
1625853213.14,stimulus,2,16,,,PracticeSession
1625853213.19,fixation,1,73,,0.0,NoMusic
1625853213.64,fixation,2,16,,,PracticeSession
1625853215.06,stimulus,1,74,0.37,0.0,NoMusic
1625853215.14,stimulus,2,17,,,PracticeSession
1625853215.19,fixation,1,74,,0.0,NoMusic
1625853215.64,fixation,2,17,,,PracticeSession
1625853217.0240002,stimulus,1,75,0.334,1.0,NoMusic
1625853217.14,stimulus,2,18,,,PracticeSession
1625853217.474,fixation,1,75,0.284,1.0,NoMusic
1625853217.64,fixation,2,18,,,PracticeSession
1625853219.14,stimulus,2,19,,,PracticeSession
1625853219.173,stimulus,1,76,0.483,1.0,NoMusic
1625853219.19,fixation,1,76,,0.0,NoMusic
1625853219.64,fixation,2,19,,,PracticeSession
1625853220.69,stimulus,1,77,,0.0,NoMusic
1625853221.14,stimulus,2,20,,,PracticeSession
1625853221.21,fixation,1,77,0.02,1.0,NoMusic
1625853221.64,fixation,2,20,,,PracticeSession
1625853222.993,stimulus,1,78,0.303,1.0,NoMusic
1625853223.14,stimulus,2,21,,,PracticeSession
1625853223.19,fixation,1,78,,0.0,NoMusic
1625853223.64,fixation,2,21,,,PracticeSession
1625853225.013,stimulus,1,79,0.323,1.0,NoMusic
1625853225.14,stimulus,2,22,,,PracticeSession
1625853225.19,fixation,1,79,,0.0,NoMusic
1625853225.64,fixation,2,22,,,PracticeSession
1625853227.0080001,stimulus,1,80,0.318,1.0,NoMusic
1625853227.14,stimulus,2,23,,,PracticeSession
1625853227.19,fixation,1,80,,0.0,NoMusic
1625853227.64,fixation,2,23,,,PracticeSession
1625853229.04,stimulus,1,81,0.35,1.0,NoMusic
1625853229.14,stimulus,2,24,,,PracticeSession
1625853229.19,fixation,1,81,,0.0,NoMusic
1625853229.64,fixation,2,24,,,PracticeSession
1625853231.0770001,stimulus,1,82,0.387,0.0,NoMusic
1625853231.14,stimulus,2,25,,,PracticeSession
1625853231.64,fixation,2,25,,,PracticeSession
1625853231.775,fixation,1,82,0.585,1.0,NoMusic
1625853233.14,stimulus,2,26,,,PracticeSession
1625853233.141,stimulus,1,83,0.451,1.0,NoMusic
1625853233.19,fixation,1,83,,0.0,NoMusic
1625853233.64,fixation,2,26,,,PracticeSession
1625853234.69,stimulus,1,84,,0.0,NoMusic
1625853235.14,stimulus,2,27,,,PracticeSession
1625853235.64,fixation,2,27,,,PracticeSession
1625853235.936,fixation,1,84,0.746,1.0,NoMusic
1625853236.69,stimulus,1,85,,0.0,NoMusic
1625853237.14,stimulus,2,28,,,PracticeSession
1625853237.273,fixation,1,85,0.083,1.0,NoMusic
1625853237.64,fixation,2,28,,,PracticeSession
1625853238.69,stimulus,1,86,,0.0,NoMusic
1625853239.14,stimulus,2,29,,,PracticeSession
1625853239.1990001,fixation,1,86,0.009,1.0,NoMusic
1625853239.64,fixation,2,29,,,PracticeSession
1625853241.0900002,stimulus,1,87,0.4,1.0,NoMusic
1625853241.14,stimulus,2,30,,,PracticeSession
1625853241.19,fixation,1,87,,0.0,NoMusic
1625853241.64,fixation,2,30,,,PracticeSession
1625853243.14,stimulus,2,31,,,PracticeSession
1625853243.177,stimulus,1,88,0.487,1.0,NoMusic
1625853243.19,fixation,1,88,,0.0,NoMusic
1625853243.64,fixation,2,31,,,PracticeSession
1625853244.69,stimulus,1,89,,0.0,NoMusic
1625853245.14,stimulus,2,32,,,PracticeSession
1625853245.526,fixation,1,89,0.336,1.0,NoMusic
1625853245.64,fixation,2,32,,,PracticeSession
1625853246.69,stimulus,1,90,,0.0,NoMusic
1625853247.14,stimulus,2,33,,,PracticeSession
1625853247.2,fixation,1,90,0.01,1.0,NoMusic
1625853247.64,fixation,2,33,,,PracticeSession
1625853248.971,stimulus,1,91,0.281,1.0,NoMusic
1625853249.14,stimulus,2,34,,,PracticeSession
1625853249.19,fixation,1,91,,0.0,NoMusic
1625853249.64,fixation,2,34,,,PracticeSession
1625853251.082,stimulus,1,92,0.392,1.0,NoMusic
1625853251.14,stimulus,2,35,,,PracticeSession
1625853251.19,fixation,1,92,,0.0,NoMusic
1625853251.64,fixation,2,35,,,PracticeSession
1625853252.69,stimulus,1,93,,0.0,NoMusic
1625853253.14,stimulus,2,36,,,PracticeSession
1625853253.232,fixation,1,93,0.042,0.0,NoMusic
1625853253.64,fixation,2,36,,,PracticeSession
1625853255.075,stimulus,1,94,0.385,1.0,NoMusic
1625853255.14,stimulus,2,37,,,PracticeSession
1625853255.19,fixation,1,94,,0.0,NoMusic
1625853255.64,fixation,2,37,,,PracticeSession
1625853257.082,stimulus,1,95,0.392,1.0,NoMusic
1625853257.14,stimulus,2,38,,,PracticeSession
1625853257.19,fixation,1,95,,0.0,NoMusic
1625853257.64,fixation,2,38,,,PracticeSession
1625853259.0470002,stimulus,1,96,0.357,1.0,NoMusic
1625853259.14,stimulus,2,39,,,PracticeSession
1625853259.19,fixation,1,96,,0.0,NoMusic
1625853259.64,fixation,2,39,,,PracticeSession
1625853261.072,stimulus,1,97,0.382,1.0,NoMusic
1625853261.14,stimulus,2,40,,,PracticeSession
1625853261.19,fixation,1,97,,0.0,NoMusic
1625853261.64,fixation,2,40,,,PracticeSession
1625853262.69,stimulus,1,98,,0.0,NoMusic
1625853263.14,stimulus,2,41,,,PracticeSession
1625853263.64,fixation,2,41,,,PracticeSession
1625853263.828,fixation,1,98,0.638,1.0,NoMusic
1625853265.14,stimulus,2,42,,,PracticeSession
1625853265.187,stimulus,1,99,0.497,1.0,NoMusic
1625853265.5080001,fixation,1,99,0.318,1.0,NoMusic
1625853265.64,fixation,2,42,,,PracticeSession
1625853267.079,stimulus,1,100,0.389,1.0,NoMusic
1625853267.14,stimulus,2,43,,,PracticeSession
1625853267.19,fixation,1,100,,0.0,NoMusic
1625853267.64,fixation,2,43,,,PracticeSession
1625853269.098,stimulus,1,101,0.408,1.0,NoMusic
1625853269.14,stimulus,2,44,,,PracticeSession
1625853269.19,fixation,1,101,,0.0,NoMusic
1625853269.64,fixation,2,44,,,PracticeSession
1625853271.073,stimulus,1,102,0.383,1.0,NoMusic
1625853271.14,stimulus,2,45,,,NoMusic
1625853271.19,fixation,1,102,,0.0,NoMusic
1625853271.64,fixation,2,45,,,NoMusic
1625853272.989,stimulus,1,103,0.299,1.0,NoMusic
1625853273.14,stimulus,2,46,,,NoMusic
1625853273.19,fixation,1,103,,0.0,NoMusic
1625853273.64,fixation,2,46,,,NoMusic
1625853275.06,stimulus,1,104,0.37,0.0,NoMusic
1625853275.14,stimulus,2,47,,,NoMusic
1625853275.46,fixation,1,104,0.27,1.0,NoMusic
1625853275.64,fixation,2,47,,,NoMusic
1625853276.69,stimulus,1,105,,0.0,NoMusic
1625853277.14,stimulus,2,48,,,NoMusic
1625853277.64,fixation,2,48,,,NoMusic
1625853277.951,fixation,1,105,0.761,1.0,NoMusic
1625853278.69,stimulus,1,106,,0.0,NoMusic
1625853279.14,stimulus,2,49,,,NoMusic
1625853279.64,fixation,2,49,,,NoMusic
1625853279.8070002,fixation,1,106,0.617,1.0,NoMusic
1625853280.69,stimulus,1,107,,0.0,NoMusic
1625853281.14,stimulus,2,50,,,NoMusic
1625853281.401,fixation,1,107,0.211,1.0,NoMusic
1625853281.64,fixation,2,50,,,NoMusic
1625853282.69,stimulus,1,108,,0.0,NoMusic
1625853283.14,stimulus,2,51,,,NoMusic
1625853283.2610002,fixation,1,108,0.071,1.0,NoMusic
1625853283.64,fixation,2,51,,,NoMusic
1625853284.69,stimulus,1,109,,0.0,NoMusic
1625853285.14,stimulus,2,52,,,NoMusic
1625853285.487,fixation,1,109,0.297,1.0,NoMusic
1625853285.64,fixation,2,52,,,NoMusic
1625853287.1360002,stimulus,1,110,0.446,1.0,NoMusic
1625853287.14,stimulus,2,53,,,NoMusic
1625853287.19,fixation,1,110,,0.0,NoMusic
1625853287.64,fixation,2,53,,,NoMusic
1625853288.69,stimulus,1,111,,0.0,NoMusic
1625853289.14,stimulus,2,54,,,NoMusic
1625853289.64,fixation,2,54,,,NoMusic
1625853289.8530002,fixation,1,111,0.663,1.0,NoMusic
1625853290.69,stimulus,1,112,,0.0,NoMusic
1625853291.14,stimulus,2,55,,,NoMusic
1625853291.315,fixation,1,112,0.125,1.0,NoMusic
1625853291.64,fixation,2,55,,,NoMusic
1625853292.69,stimulus,1,113,,0.0,NoMusic
1625853293.14,stimulus,2,56,,,NoMusic
1625853293.19,fixation,1,113,,1.0,NoMusic
1625853293.64,fixation,2,56,,,NoMusic
1625853294.69,stimulus,1,114,,0.0,NoMusic
1625853295.14,stimulus,2,57,,,NoMusic
1625853295.242,fixation,1,114,0.052,1.0,NoMusic
1625853295.64,fixation,2,57,,,NoMusic
1625853297.0540001,stimulus,1,115,0.364,1.0,NoMusic
1625853297.14,stimulus,2,58,,,NoMusic
1625853297.19,fixation,1,115,,0.0,NoMusic
1625853297.64,fixation,2,58,,,NoMusic
1625853299.109,stimulus,1,116,0.419,1.0,NoMusic
1625853299.14,stimulus,2,59,,,NoMusic
1625853299.19,fixation,1,116,,0.0,NoMusic
1625853299.64,fixation,2,59,,,NoMusic
1625853301.051,stimulus,1,117,0.361,1.0,NoMusic
1625853301.14,stimulus,2,60,,,NoMusic
1625853301.19,fixation,1,117,,0.0,NoMusic
1625853301.64,fixation,2,60,,,NoMusic
1625853303.14,stimulus,2,61,,,NoMusic
1625853303.16,stimulus,1,118,0.47,1.0,NoMusic
1625853303.19,fixation,1,118,,0.0,NoMusic
1625853303.64,fixation,2,61,,,NoMusic
1625853304.69,stimulus,1,119,,0.0,NoMusic
1625853305.14,stimulus,2,62,,,NoMusic
1625853305.21,fixation,1,119,0.02,1.0,NoMusic
1625853305.64,fixation,2,62,,,NoMusic
1625853307.0700002,stimulus,1,120,0.38,1.0,NoMusic
1625853307.14,stimulus,2,63,,,NoMusic
1625853307.19,fixation,1,120,,0.0,NoMusic
1625853307.64,fixation,2,63,,,NoMusic
1625853308.69,stimulus,1,121,,0.0,NoMusic
1625853309.14,stimulus,2,64,,,NoMusic
1625853309.2350001,fixation,1,121,0.045,1.0,NoMusic
1625853309.64,fixation,2,64,,,NoMusic
1625853311.14,stimulus,2,65,,,NoMusic
1625853311.1460001,stimulus,1,122,0.456,1.0,NoMusic
1625853311.19,fixation,1,122,,0.0,NoMusic
1625853311.64,fixation,2,65,,,NoMusic
1625853312.69,stimulus,1,123,,0.0,NoMusic
1625853313.14,stimulus,2,66,,,NoMusic
1625853313.64,fixation,2,66,,,NoMusic
1625853313.844,fixation,1,123,0.654,1.0,NoMusic
1625853314.69,stimulus,1,124,,0.0,NoMusic
1625853315.14,stimulus,2,67,,,NoMusic
1625853315.289,fixation,1,124,0.099,1.0,NoMusic
1625853315.64,fixation,2,67,,,NoMusic
1625853316.69,stimulus,1,125,,0.0,NoMusic
1625853317.14,stimulus,2,68,,,NoMusic
1625853317.23,fixation,1,125,0.04,1.0,NoMusic
1625853317.64,fixation,2,68,,,NoMusic
1625853319.055,stimulus,1,126,0.365,1.0,NoMusic
1625853319.14,stimulus,2,69,,,NoMusic
1625853319.19,fixation,1,126,,0.0,NoMusic
1625853319.64,fixation,2,69,,,NoMusic
1625853320.69,stimulus,1,127,,0.0,NoMusic
1625853321.14,stimulus,2,70,,,NoMusic
1625853321.326,fixation,1,127,0.136,1.0,NoMusic
1625853321.64,fixation,2,70,,,NoMusic
1625853322.69,stimulus,1,128,,0.0,NoMusic
1625853323.14,stimulus,2,71,,,NoMusic
1625853323.2280002,fixation,1,128,0.038,1.0,NoMusic
1625853323.64,fixation,2,71,,,NoMusic
1625853324.69,stimulus,1,129,,0.0,NoMusic
1625853325.14,stimulus,2,72,,,NoMusic
1625853325.209,fixation,1,129,0.019,1.0,NoMusic
1625853325.64,fixation,2,72,,,NoMusic
1625853326.69,stimulus,1,130,,0.0,NoMusic
1625853327.14,stimulus,2,73,,,NoMusic
1625853327.64,fixation,2,73,,,NoMusic
1625853328.16,fixation,1,130,0.97,1.0,NoMusic
1625853328.69,stimulus,1,131,,0.0,NoMusic
1625853329.14,stimulus,2,74,,,NoMusic
1625853329.2680001,fixation,1,131,0.078,1.0,NoMusic
1625853329.64,fixation,2,74,,,NoMusic
1625853331.076,stimulus,1,132,0.386,1.0,NoMusic
1625853331.14,stimulus,2,75,,,NoMusic
1625853331.19,fixation,1,132,,0.0,NoMusic
1625853331.64,fixation,2,75,,,NoMusic
1625853333.13,stimulus,1,133,0.44,1.0,NoMusic
1625853333.14,stimulus,2,76,,,NoMusic
1625853333.19,fixation,1,133,,0.0,NoMusic
1625853333.64,fixation,2,76,,,NoMusic
1625853334.974,stimulus,1,134,0.284,1.0,NoMusic
1625853335.14,stimulus,2,77,,,NoMusic
1625853335.19,fixation,1,134,,0.0,NoMusic
1625853335.64,fixation,2,77,,,NoMusic
1625853337.128,stimulus,1,135,0.438,1.0,NoMusic
1625853337.14,stimulus,2,78,,,NoMusic
1625853337.19,fixation,1,135,,0.0,NoMusic
1625853337.64,fixation,2,78,,,NoMusic
1625853339.069,stimulus,1,136,0.379,1.0,NoMusic
1625853339.14,stimulus,2,79,,,NoMusic
1625853339.19,fixation,1,136,,0.0,NoMusic
1625853339.64,fixation,2,79,,,NoMusic
1625853341.14,stimulus,2,80,,,NoMusic
1625853341.1790001,stimulus,1,137,0.489,1.0,NoMusic
1625853341.19,fixation,1,137,,0.0,NoMusic
1625853341.64,fixation,2,80,,,NoMusic
1625853343.061,stimulus,1,138,0.371,1.0,NoMusic
1625853343.14,stimulus,2,81,,,NoMusic
1625853343.19,fixation,1,138,,0.0,NoMusic
1625853343.64,fixation,2,81,,,NoMusic
1625853345.066,stimulus,1,139,0.376,1.0,NoMusic
1625853345.14,stimulus,2,82,,,NoMusic
1625853345.19,fixation,1,139,,0.0,NoMusic
1625853345.64,fixation,2,82,,,NoMusic
1625853346.69,stimulus,1,140,,0.0,NoMusic
1625853347.14,stimulus,2,83,,,NoMusic
1625853347.246,fixation,1,140,0.056,1.0,NoMusic
1625853347.64,fixation,2,83,,,NoMusic
1625853349.083,stimulus,1,141,0.393,1.0,NoMusic
1625853349.14,stimulus,2,84,,,NoMusic
1625853349.19,fixation,1,141,,0.0,NoMusic
1625853349.64,fixation,2,84,,,NoMusic
1625853350.69,stimulus,1,142,,0.0,NoMusic
1625853351.14,stimulus,2,85,,,NoMusic
1625853351.19,fixation,1,142,,0.0,NoMusic
1625853351.64,fixation,2,85,,,NoMusic
1625853353.061,stimulus,1,143,0.371,1.0,NoMusic
1625853353.14,stimulus,2,86,,,NoMusic
1625853353.19,fixation,1,143,,0.0,NoMusic
1625853353.64,fixation,2,86,,,NoMusic
1625853355.049,stimulus,1,144,0.359,1.0,NoMusic
1625853355.14,stimulus,2,87,,,NoMusic
1625853355.19,fixation,1,144,,0.0,NoMusic
1625853355.64,fixation,2,87,,,NoMusic
1625853357.1100001,stimulus,1,145,0.42,0.0,NoMusic
1625853357.14,stimulus,2,88,,,NoMusic
1625853357.19,fixation,1,145,,0.0,NoMusic
1625853357.64,fixation,2,88,,,NoMusic
1625853358.69,stimulus,1,146,,0.0,NoMusic
1625853359.14,stimulus,2,89,,,NoMusic
1625853359.377,fixation,1,146,0.187,1.0,NoMusic
1625853359.64,fixation,2,89,,,NoMusic
1625853361.124,stimulus,1,147,0.434,1.0,NoMusic
1625853361.14,stimulus,2,90,,,NoMusic
1625853361.64,fixation,2,90,,,NoMusic
1625853361.662,fixation,1,147,0.472,0.0,NoMusic
1625853362.69,stimulus,1,148,,0.0,NoMusic
1625853363.14,stimulus,2,91,,,NoMusic
1625853363.64,fixation,2,91,,,NoMusic
1625853363.749,fixation,1,148,0.559,1.0,NoMusic
1625853365.05,stimulus,1,149,0.36,1.0,NoMusic
1625853365.14,stimulus,2,92,,,NoMusic
1625853365.19,fixation,1,149,,0.0,NoMusic
1625853365.64,fixation,2,92,,,NoMusic
1625853367.0700002,stimulus,1,150,0.38,1.0,NoMusic
1625853367.14,stimulus,2,93,,,NoMusic
1625853367.19,fixation,1,150,,0.0,NoMusic
1625853367.64,fixation,2,93,,,NoMusic
1625853368.69,stimulus,1,151,,0.0,NoMusic
1625853369.14,stimulus,2,94,,,NoMusic
1625853369.515,fixation,1,151,0.325,1.0,NoMusic
1625853369.64,fixation,2,94,,,NoMusic
1625853371.14,stimulus,2,95,,,NoMusic
1625853371.17,stimulus,1,152,0.48,1.0,NoMusic
1625853371.19,fixation,1,152,,0.0,NoMusic
1625853371.64,fixation,2,95,,,NoMusic
1625853373.079,stimulus,1,153,0.389,1.0,NoMusic
1625853373.14,stimulus,2,96,,,NoMusic
1625853373.19,fixation,1,153,,0.0,NoMusic
1625853373.64,fixation,2,96,,,NoMusic
1625853375.109,stimulus,1,154,0.419,1.0,NoMusic
1625853375.14,stimulus,2,97,,,NoMusic
1625853375.19,fixation,1,154,,0.0,NoMusic
1625853375.64,fixation,2,97,,,NoMusic
1625853376.69,stimulus,1,155,,0.0,NoMusic
1625853377.14,stimulus,2,98,,,NoMusic
1625853377.64,fixation,2,98,,,NoMusic
1625853377.765,fixation,1,155,0.575,1.0,NoMusic
1625853379.14,stimulus,2,99,,,NoMusic
1625853379.188,stimulus,1,156,0.498,1.0,NoMusic
1625853379.19,fixation,1,156,,0.0,NoMusic
1625853379.64,fixation,2,99,,,NoMusic
1625853380.69,stimulus,1,157,,0.0,NoMusic
1625853381.14,stimulus,2,100,,,NoMusic
1625853381.404,fixation,1,157,0.214,1.0,NoMusic
1625853381.64,fixation,2,100,,,NoMusic
1625853383.104,stimulus,1,158,0.414,1.0,NoMusic
1625853383.14,stimulus,2,101,,,NoMusic
1625853383.19,fixation,1,158,,0.0,NoMusic
1625853383.64,fixation,2,101,,,NoMusic
1625853384.69,stimulus,1,159,,0.0,NoMusic
1625853385.14,stimulus,2,102,,,NoMusic
1625853385.479,fixation,1,159,0.289,1.0,NoMusic
1625853385.64,fixation,2,102,,,NoMusic
1625853387.118,stimulus,1,160,0.428,1.0,NoMusic
1625853387.14,stimulus,2,103,,,NoMusic
1625853387.19,fixation,1,160,,0.0,NoMusic
1625853387.64,fixation,2,103,,,NoMusic
1625853388.69,stimulus,1,161,,0.0,NoMusic
1625853389.14,stimulus,2,104,,,NoMusic
1625853389.4850001,fixation,1,161,0.295,1.0,NoMusic
1625853389.64,fixation,2,104,,,NoMusic
1625853391.14,stimulus,2,105,,,NoMusic
1625853391.188,stimulus,1,162,0.498,1.0,NoMusic
1625853391.19,fixation,1,162,,0.0,NoMusic
1625853391.64,fixation,2,105,,,NoMusic
1625853393.058,stimulus,1,163,0.368,1.0,NoMusic
1625853393.14,stimulus,2,106,,,NoMusic
1625853393.19,fixation,1,163,,0.0,NoMusic
1625853393.64,fixation,2,106,,,NoMusic
1625853395.111,stimulus,1,164,0.421,1.0,NoMusic
1625853395.14,stimulus,2,107,,,NoMusic
1625853395.19,fixation,1,164,,0.0,NoMusic
1625853395.64,fixation,2,107,,,NoMusic
1625853396.69,stimulus,1,165,,0.0,NoMusic
1625853397.14,stimulus,2,108,,,NoMusic
1625853397.64,fixation,2,108,,,NoMusic
1625853398.237,fixation,1,165,1.047,0.0,NoMusic
1625853398.69,stimulus,1,166,,0.0,NoMusic
1625853399.14,stimulus,2,109,,,NoMusic
1625853399.301,fixation,1,166,0.111,1.0,NoMusic
1625853399.64,fixation,2,109,,,NoMusic
1625853401.14,stimulus,2,110,,,NoMusic
1625853401.178,stimulus,1,167,0.488,1.0,NoMusic
1625853401.19,fixation,1,167,,0.0,NoMusic
1625853401.64,fixation,2,110,,,NoMusic
1625853403.091,stimulus,1,168,0.401,1.0,NoMusic
1625853403.14,stimulus,2,111,,,NoMusic
1625853403.19,fixation,1,168,,0.0,NoMusic
1625853403.64,fixation,2,111,,,NoMusic
1625853404.69,stimulus,1,169,,0.0,NoMusic
1625853405.14,stimulus,2,112,,,NoMusic
1625853405.64,fixation,2,112,,,NoMusic
1625853406.049,fixation,1,169,0.859,1.0,NoMusic
1625853407.1260002,stimulus,1,170,0.436,1.0,NoMusic
1625853407.14,stimulus,2,113,,,NoMusic
1625853407.19,fixation,1,170,,0.0,NoMusic
1625853407.64,fixation,2,113,,,NoMusic
1625853409.055,stimulus,1,171,0.365,1.0,NoMusic
1625853409.14,stimulus,2,114,,,NoMusic
1625853409.19,fixation,1,171,,0.0,NoMusic
1625853409.64,fixation,2,114,,,NoMusic
1625853410.69,stimulus,1,172,,0.0,NoMusic
1625853411.14,stimulus,2,115,,,NoMusic
1625853411.601,fixation,1,172,0.411,1.0,NoMusic
1625853411.64,fixation,2,115,,,NoMusic
1625853413.091,stimulus,1,173,0.401,1.0,NoMusic
1625853413.14,stimulus,2,116,,,NoMusic
1625853413.19,fixation,1,173,,0.0,NoMusic
1625853413.64,fixation,2,116,,,NoMusic
1625853415.0740001,stimulus,1,174,0.384,1.0,NoMusic
1625853415.14,stimulus,2,117,,,NoMusic
1625853415.19,fixation,1,174,,0.0,NoMusic
1625853415.64,fixation,2,117,,,NoMusic
1625853416.69,stimulus,1,175,,0.0,NoMusic
1625853417.14,stimulus,2,118,,,NoMusic
1625853417.283,fixation,1,175,0.093,0.0,NoMusic
1625853417.64,fixation,2,118,,,NoMusic
1625853418.69,stimulus,1,176,,0.0,NoMusic
1625853419.14,stimulus,2,119,,,NoMusic
1625853419.551,fixation,1,176,0.361,1.0,NoMusic
1625853419.64,fixation,2,119,,,NoMusic
1625853420.69,stimulus,1,177,,0.0,NoMusic
1625853421.14,stimulus,2,120,,,NoMusic
1625853421.441,fixation,1,177,0.251,1.0,NoMusic
1625853421.64,fixation,2,120,,,NoMusic
1625853423.14,stimulus,2,121,,,NoMusic
1625853423.1890001,stimulus,1,178,0.499,1.0,NoMusic
1625853423.19,fixation,1,178,,0.0,NoMusic
1625853423.64,fixation,2,121,,,NoMusic
1625853425.14,stimulus,2,122,,,NoMusic
1625853425.171,stimulus,1,179,0.481,1.0,NoMusic
1625853425.19,fixation,1,179,,0.0,NoMusic
1625853425.64,fixation,2,122,,,NoMusic
1625853426.69,stimulus,1,180,,0.0,NoMusic
1625853427.14,stimulus,2,123,,,NoMusic
1625853427.537,fixation,1,180,0.347,1.0,NoMusic
1625853427.64,fixation,2,123,,,NoMusic
1625853429.14,stimulus,2,124,,,NoMusic
1625853429.167,stimulus,1,181,0.477,1.0,NoMusic
1625853429.19,fixation,1,181,,0.0,NoMusic
1625853429.64,fixation,2,124,,,NoMusic
1625853431.081,stimulus,1,182,0.391,1.0,NoMusic
1625853431.14,stimulus,2,125,,,NoMusic
1625853431.19,fixation,1,182,,0.0,NoMusic
1625853431.64,fixation,2,125,,,NoMusic
1625853433.063,stimulus,1,183,0.373,1.0,NoMusic
1625853433.14,stimulus,2,126,,,NoMusic
1625853433.19,fixation,1,183,,0.0,NoMusic
1625853433.64,fixation,2,126,,,NoMusic
1625853435.135,stimulus,1,184,0.445,1.0,NoMusic
1625853435.14,stimulus,2,127,,,NoMusic
1625853435.19,fixation,1,184,,0.0,NoMusic
1625853435.64,fixation,2,127,,,NoMusic
1625853436.69,stimulus,1,185,,0.0,NoMusic
1625853437.14,stimulus,2,128,,,NoMusic
1625853437.302,fixation,1,185,0.112,1.0,NoMusic
1625853437.64,fixation,2,128,,,NoMusic
1625853439.138,stimulus,1,186,0.448,1.0,NoMusic
1625853439.14,stimulus,2,129,,,NoMusic
1625853439.19,fixation,1,186,,0.0,NoMusic
1625853439.64,fixation,2,129,,,NoMusic
1625853440.69,stimulus,1,187,,0.0,NoMusic
1625853441.14,stimulus,2,130,,,NoMusic
1625853441.493,fixation,1,187,0.303,1.0,NoMusic
1625853441.64,fixation,2,130,,,NoMusic
1625853443.127,stimulus,1,188,0.437,1.0,NoMusic
1625853443.14,stimulus,2,131,,,NoMusic
1625853443.19,fixation,1,188,,0.0,NoMusic
1625853443.64,fixation,2,131,,,NoMusic
1625853444.69,stimulus,1,189,,0.0,NoMusic
1625853445.14,stimulus,2,132,,,NoMusic
1625853445.3730001,fixation,1,189,0.183,1.0,NoMusic
1625853445.64,fixation,2,132,,,NoMusic
1625853446.69,stimulus,1,190,,0.0,NoMusic
1625853447.14,stimulus,2,133,,,NoMusic
1625853447.236,fixation,1,190,0.046,1.0,NoMusic
1625853447.64,fixation,2,133,,,NoMusic
1625853448.69,stimulus,1,191,,0.0,NoMusic
1625853449.14,stimulus,2,134,,,NoMusic
1625853449.2410002,fixation,1,191,0.051,1.0,NoMusic
1625853449.64,fixation,2,134,,,NoMusic
1625853451.092,stimulus,1,192,0.402,1.0,NoMusic
1625853451.14,stimulus,2,135,,,NoMusic
1625853451.19,fixation,1,192,,0.0,NoMusic
1625853451.64,fixation,2,135,,,NoMusic
1625853452.69,stimulus,1,193,,0.0,NoMusic
1625853453.14,stimulus,2,136,,,NoMusic
1625853453.479,fixation,1,193,0.289,1.0,NoMusic
1625853453.64,fixation,2,136,,,NoMusic
1625853454.69,stimulus,1,194,,0.0,NoMusic
1625853455.14,stimulus,2,137,,,NoMusic
1625853455.236,fixation,1,194,0.046,1.0,NoMusic
1625853455.64,fixation,2,137,,,NoMusic
1625853456.69,stimulus,1,195,,0.0,NoMusic
1625853457.14,stimulus,2,138,,,NoMusic
1625853457.2280002,fixation,1,195,0.038,1.0,NoMusic
1625853457.64,fixation,2,138,,,NoMusic
1625853459.072,stimulus,1,196,0.382,1.0,NoMusic
1625853459.14,stimulus,2,139,,,NoMusic
1625853459.19,fixation,1,196,,0.0,NoMusic
1625853459.64,fixation,2,139,,,NoMusic
1625853460.69,stimulus,1,197,,0.0,NoMusic
1625853461.14,stimulus,2,140,,,NoMusic
1625853461.28,fixation,1,197,0.09,1.0,NoMusic
1625853461.64,fixation,2,140,,,NoMusic
1625853462.69,stimulus,1,198,,0.0,NoMusic
1625853463.14,stimulus,2,141,,,NoMusic
1625853463.329,fixation,1,198,0.139,1.0,NoMusic
1625853463.64,fixation,2,141,,,NoMusic
1625853464.69,stimulus,1,199,,0.0,NoMusic
1625853465.14,stimulus,2,142,,,NoMusic
1625853465.326,fixation,1,199,0.136,1.0,NoMusic
1625853465.64,fixation,2,142,,,NoMusic
1625853466.974,stimulus,1,200,0.284,1.0,NoMusic
1625853467.14,stimulus,2,143,,,NoMusic
1625853467.19,fixation,1,200,,0.0,NoMusic
1625853467.64,fixation,2,143,,,NoMusic
1625853468.9720001,stimulus,1,201,0.282,1.0,NoMusic
1625853469.14,stimulus,2,144,,,NoMusic
1625853469.19,fixation,1,201,,0.0,NoMusic
1625853469.64,fixation,2,144,,,NoMusic
1625853471.096,stimulus,1,202,0.406,1.0,NoMusic
1625853471.14,stimulus,2,145,,,NoMusic
1625853471.19,fixation,1,202,,0.0,NoMusic
1625853471.64,fixation,2,145,,,NoMusic
1625853472.69,stimulus,1,203,,0.0,NoMusic
1625853473.14,stimulus,2,146,,,NoMusic
1625853473.543,fixation,1,203,0.353,1.0,NoMusic
1625853473.64,fixation,2,146,,,NoMusic
1625853475.061,stimulus,1,204,0.371,1.0,NoMusic
1625853475.14,stimulus,2,147,,,NoMusic
1625853475.19,fixation,1,204,,0.0,NoMusic
1625853475.64,fixation,2,147,,,NoMusic
1625853477.088,stimulus,1,205,0.398,1.0,NoMusic
1625853477.14,stimulus,2,148,,,NoMusic
1625853477.19,fixation,1,205,,0.0,NoMusic
1625853477.64,fixation,2,148,,,NoMusic
1625853479.1230001,stimulus,1,206,0.433,1.0,NoMusic
1625853479.14,stimulus,2,149,,,NoMusic
1625853479.19,fixation,1,206,,0.0,NoMusic
1625853479.64,fixation,2,149,,,NoMusic
1625853481.073,stimulus,1,207,0.383,1.0,NoMusic
1625853481.14,stimulus,2,150,,,NoMusic
1625853481.19,fixation,1,207,,0.0,NoMusic
1625853481.64,fixation,2,150,,,NoMusic
1625853483.048,stimulus,1,208,0.358,1.0,NoMusic
1625853483.14,stimulus,2,151,,,NoMusic
1625853483.19,fixation,1,208,,0.0,NoMusic
1625853483.64,fixation,2,151,,,NoMusic
1625853484.69,stimulus,1,209,,0.0,NoMusic
1625853485.14,stimulus,2,152,,,NoMusic
1625853485.236,fixation,1,209,0.046,1.0,NoMusic
1625853485.64,fixation,2,152,,,NoMusic
1625853486.69,stimulus,1,210,,0.0,NoMusic
1625853487.14,stimulus,2,153,,,NoMusic
1625853487.2740002,fixation,1,210,0.084,1.0,NoMusic
1625853487.64,fixation,2,153,,,NoMusic
1625853489.089,stimulus,1,211,0.399,1.0,NoMusic
1625853489.14,stimulus,2,154,,,NoMusic
1625853489.19,fixation,1,211,,0.0,NoMusic
1625853489.64,fixation,2,154,,,NoMusic
1625853490.69,stimulus,1,212,,0.0,NoMusic
1625853491.14,stimulus,2,155,,,NoMusic
1625853491.344,fixation,1,212,0.154,1.0,NoMusic
1625853491.64,fixation,2,155,,,NoMusic
1625853492.69,stimulus,1,213,,0.0,NoMusic
1625853493.14,stimulus,2,156,,,NoMusic
1625853493.421,fixation,1,213,0.231,1.0,NoMusic
1625853493.64,fixation,2,156,,,NoMusic
1625853495.14,stimulus,2,157,,,NoMusic
1625853495.141,stimulus,1,214,0.451,1.0,NoMusic
1625853495.19,fixation,1,214,,0.0,NoMusic
1625853495.64,fixation,2,157,,,NoMusic
1625853497.14,stimulus,2,158,,,NoMusic
1625853497.186,stimulus,1,215,0.496,1.0,NoMusic
1625853497.19,fixation,1,215,,0.0,NoMusic
1625853497.64,fixation,2,158,,,NoMusic
1625853499.068,stimulus,1,216,0.378,1.0,NoMusic
1625853499.14,stimulus,2,159,,,NoMusic
1625853499.19,fixation,1,216,,0.0,NoMusic
1625853499.64,fixation,2,159,,,NoMusic
1625853500.69,stimulus,1,217,,0.0,NoMusic
1625853501.14,stimulus,2,160,,,NoMusic
1625853501.273,fixation,1,217,0.083,0.0,NoMusic
1625853501.64,fixation,2,160,,,NoMusic
1625853502.69,stimulus,1,218,,0.0,NoMusic
1625853503.14,stimulus,2,161,,,NoMusic
1625853503.263,fixation,1,218,0.073,1.0,NoMusic
1625853503.64,fixation,2,161,,,NoMusic
1625853504.69,stimulus,1,219,,0.0,NoMusic
1625853505.14,stimulus,2,162,,,NoMusic
1625853505.471,fixation,1,219,0.281,1.0,NoMusic
1625853505.64,fixation,2,162,,,NoMusic
1625853506.69,stimulus,1,220,,0.0,NoMusic
1625853507.14,stimulus,2,163,,,NoMusic
1625853507.405,fixation,1,220,0.215,1.0,NoMusic
1625853507.64,fixation,2,163,,,NoMusic
1625853508.69,stimulus,1,221,,,NoMusic
1625853509.14,stimulus,2,164,,,NoMusic
1625853509.19,fixation,1,221,,,NoMusic
1625853509.64,fixation,2,164,,,NoMusic
1625853510.69,stimulus,1,222,,0.0,NoMusic
1625853511.14,stimulus,2,165,,,NoMusic
1625853511.226,fixation,1,222,0.036,1.0,NoMusic
1625853511.64,fixation,2,165,,,NoMusic
1625853512.986,stimulus,1,223,0.296,1.0,NoMusic
1625853513.14,stimulus,2,166,,,NoMusic
1625853513.19,fixation,1,223,,0.0,NoMusic
1625853513.64,fixation,2,166,,,NoMusic
1625853515.0,stimulus,1,224,0.31,1.0,NoMusic
1625853515.14,stimulus,2,167,,,NoMusic
1625853515.19,fixation,1,224,,0.0,NoMusic
1625853515.64,fixation,2,167,,,NoMusic
1625853517.127,stimulus,1,225,0.437,1.0,NoMusic
1625853517.14,stimulus,2,168,,,NoMusic
1625853517.19,fixation,1,225,,0.0,NoMusic
1625853517.64,fixation,2,168,,,NoMusic
1625853518.69,stimulus,1,226,,0.0,NoMusic
1625853519.14,stimulus,2,169,,,NoMusic
1625853519.231,fixation,1,226,0.041,1.0,NoMusic
1625853519.64,fixation,2,169,,,NoMusic
1625853521.14,stimulus,2,170,,,NoMusic
1625853521.175,stimulus,1,227,0.485,1.0,NoMusic
1625853521.19,fixation,1,227,,0.0,NoMusic
1625853521.64,fixation,2,170,,,NoMusic
1625853522.69,stimulus,1,228,,0.0,NoMusic
1625853523.14,stimulus,2,171,,,NoMusic
1625853523.28,fixation,1,228,0.09,1.0,NoMusic
1625853523.64,fixation,2,171,,,NoMusic
1625853525.076,stimulus,1,229,0.386,1.0,NoMusic
1625853525.14,stimulus,2,172,,,NoMusic
1625853525.19,fixation,1,229,,0.0,NoMusic
1625853525.64,fixation,2,172,,,NoMusic
1625853527.13,stimulus,1,230,0.44,1.0,NoMusic
1625853527.14,stimulus,2,173,,,NoMusic
1625853527.19,fixation,1,230,,0.0,NoMusic
1625853527.64,fixation,2,173,,,NoMusic
1625853529.14,stimulus,2,174,,,NoMusic
1625853529.1460001,stimulus,1,231,0.456,1.0,NoMusic
1625853529.19,fixation,1,231,,0.0,NoMusic
1625853529.64,fixation,2,174,,,NoMusic
1625853530.69,stimulus,1,232,,0.0,NoMusic
1625853531.14,stimulus,2,175,,,NoMusic
1625853531.29,fixation,1,232,0.1,1.0,NoMusic
1625853531.64,fixation,2,175,,,NoMusic
1625853532.69,stimulus,1,233,,0.0,NoMusic
1625853533.14,stimulus,2,176,,,NoMusic
1625853533.19,fixation,1,233,,0.0,NoMusic
1625853533.64,fixation,2,176,,,NoMusic
1625853534.69,stimulus,1,234,,0.0,NoMusic
1625853535.14,stimulus,2,177,,,NoMusic
1625853535.19,fixation,1,234,,0.0,NoMusic
1625853535.64,fixation,2,177,,,NoMusic
1625853536.871,stimulus,1,235,0.181,0.0,NoMusic
1625853537.14,stimulus,2,178,,,NoMusic
1625853537.19,fixation,1,235,,0.0,NoMusic
1625853537.64,fixation,2,178,,,NoMusic
1625853538.694,stimulus,1,236,0.004,0.0,NoMusic
1625853539.14,stimulus,2,179,,,NoMusic
1625853539.19,fixation,1,236,,0.0,NoMusic
1625853539.64,fixation,2,179,,,NoMusic
1625853540.918,stimulus,1,237,0.228,1.0,NoMusic
1625853541.14,stimulus,2,180,,,NoMusic
1625853541.19,fixation,1,237,,0.0,NoMusic
1625853541.64,fixation,2,180,,,NoMusic
1625853542.94,stimulus,1,238,0.25,0.0,NoMusic
1625853543.14,stimulus,2,181,,,NoMusic
1625853543.19,fixation,1,238,,0.0,NoMusic
1625853543.64,fixation,2,181,,,NoMusic
1625853544.69,stimulus,1,239,,0.0,NoMusic
1625853545.14,stimulus,2,182,,,NoMusic
1625853545.64,fixation,2,182,,,NoMusic
1625853545.933,fixation,1,239,0.743,1.0,NoMusic
1625853546.69,stimulus,1,240,,0.0,NoMusic
1625853547.14,stimulus,2,183,,,NoMusic
1625853547.64,fixation,2,183,,,NoMusic
1625853548.085,fixation,1,240,0.895,1.0,NoMusic
1625853548.69,stimulus,1,241,,0.0,NoMusic
1625853549.14,stimulus,2,184,,,NoMusic
1625853549.378,fixation,1,241,0.188,0.0,NoMusic
1625853549.64,fixation,2,184,,,NoMusic
1625853550.69,stimulus,1,242,,0.0,NoMusic
1625853551.14,stimulus,2,185,,,NoMusic
1625853551.64,fixation,2,185,,,NoMusic
1625853552.148,fixation,1,242,0.958,1.0,NoMusic
1625853553.14,stimulus,2,186,,,NoMusic
1625853553.174,stimulus,1,243,0.484,0.0,NoMusic
1625853553.19,fixation,1,243,,0.0,NoMusic
1625853553.64,fixation,2,186,,,NoMusic
1625853555.14,stimulus,2,187,,,NoMusic
1625853555.1890001,stimulus,1,244,0.499,1.0,NoMusic
1625853555.19,fixation,1,244,,0.0,NoMusic
1625853555.64,fixation,2,187,,,NoMusic
1625853556.69,stimulus,1,245,,0.0,NoMusic
1625853557.14,stimulus,2,188,,,NoMusic
1625853557.3600001,fixation,1,245,0.17,1.0,NoMusic
1625853557.64,fixation,2,188,,,NoMusic
1625853559.06,stimulus,1,246,0.37,1.0,NoMusic
1625853559.14,stimulus,2,189,,,NoMusic
1625853559.19,fixation,1,246,,0.0,NoMusic
1625853559.64,fixation,2,189,,,NoMusic
1625853561.059,stimulus,1,247,0.369,1.0,NoMusic
1625853561.14,stimulus,2,190,,,NoMusic
1625853561.19,fixation,1,247,,0.0,NoMusic
1625853561.64,fixation,2,190,,,NoMusic
1625853562.69,stimulus,1,248,,0.0,NoMusic
1625853563.14,stimulus,2,191,,,NoMusic
1625853563.292,fixation,1,248,0.102,1.0,NoMusic
1625853563.64,fixation,2,191,,,NoMusic
1625853565.051,stimulus,1,249,0.361,1.0,NoMusic
1625853565.14,stimulus,2,192,,,NoMusic
1625853565.19,fixation,1,249,,0.0,NoMusic
1625853565.64,fixation,2,192,,,NoMusic
1625853567.053,stimulus,1,250,0.363,1.0,NoMusic
1625853567.14,stimulus,2,193,,,NoMusic
1625853567.19,fixation,1,250,,0.0,NoMusic
1625853567.64,fixation,2,193,,,NoMusic
1625853568.69,stimulus,1,251,,0.0,NoMusic
1625853569.14,stimulus,2,194,,,NoMusic
1625853569.45,fixation,1,251,0.26,1.0,NoMusic
1625853569.64,fixation,2,194,,,NoMusic
1625853571.055,stimulus,1,252,0.365,1.0,NoMusic
1625853571.14,stimulus,2,195,,,NoMusic
1625853571.19,fixation,1,252,,0.0,NoMusic
1625853571.64,fixation,2,195,,,NoMusic
1625853572.69,stimulus,1,253,,0.0,NoMusic
1625853573.14,stimulus,2,196,,,NoMusic
1625853573.214,fixation,1,253,0.024,1.0,NoMusic
1625853573.64,fixation,2,196,,,NoMusic
1625853575.14,stimulus,2,197,,,NoMusic
1625853575.15,stimulus,1,254,0.46,1.0,NoMusic
1625853575.19,fixation,1,254,,0.0,NoMusic
1625853575.64,fixation,2,197,,,NoMusic
1625853577.0410001,stimulus,1,255,0.351,1.0,NoMusic
1625853577.14,stimulus,2,198,,,NoMusic
1625853577.19,fixation,1,255,,0.0,NoMusic
1625853577.64,fixation,2,198,,,NoMusic
1625853579.14,stimulus,2,199,,,NoMusic
1625853579.185,stimulus,1,256,0.495,1.0,NoMusic
1625853579.19,fixation,1,256,,0.0,NoMusic
1625853579.64,fixation,2,199,,,NoMusic
1625853581.027,stimulus,1,257,0.337,1.0,NoMusic
1625853581.14,stimulus,2,200,,,NoMusic
1625853581.19,fixation,1,257,,0.0,NoMusic
1625853581.64,fixation,2,200,,,NoMusic
1625853583.0540001,stimulus,1,258,0.364,1.0,NoMusic
1625853583.14,stimulus,2,201,,,NoMusic
1625853583.19,fixation,1,258,,0.0,NoMusic
1625853583.64,fixation,2,201,,,NoMusic
1625853584.69,stimulus,1,259,,0.0,NoMusic
1625853585.14,stimulus,2,202,,,NoMusic
1625853585.431,fixation,1,259,0.241,1.0,NoMusic
1625853585.64,fixation,2,202,,,NoMusic
1625853587.115,stimulus,1,260,0.425,1.0,NoMusic
1625853587.14,stimulus,2,203,,,NoMusic
1625853587.19,fixation,1,260,,0.0,NoMusic
1625853587.64,fixation,2,203,,,NoMusic
1625853589.094,stimulus,1,261,0.404,1.0,NoMusic
1625853589.14,stimulus,2,204,,,NoMusic
1625853589.19,fixation,1,261,,0.0,NoMusic
1625853589.64,fixation,2,204,,,NoMusic
1625853590.69,stimulus,1,262,,0.0,NoMusic
1625853591.14,stimulus,2,205,,,NoMusic
1625853591.216,fixation,1,262,0.026,1.0,NoMusic
1625853591.64,fixation,2,205,,,NoMusic
1625853592.999,stimulus,1,263,0.309,1.0,NoMusic
1625853593.14,stimulus,2,206,,,NoMusic
1625853593.19,fixation,1,263,,0.0,NoMusic
1625853593.64,fixation,2,206,,,NoMusic
1625853594.69,stimulus,1,264,,0.0,NoMusic
1625853595.14,stimulus,2,207,,,NoMusic
1625853595.295,fixation,1,264,0.105,1.0,NoMusic
1625853595.64,fixation,2,207,,,NoMusic
1625853596.69,stimulus,1,265,,0.0,NoMusic
1625853597.14,stimulus,2,208,,,NoMusic
1625853597.194,fixation,1,265,0.004,1.0,NoMusic
1625853597.64,fixation,2,208,,,NoMusic
1625853599.14,stimulus,2,209,,,NoMusic
1625853599.142,stimulus,1,266,0.452,1.0,NoMusic
1625853599.19,fixation,1,266,,0.0,NoMusic
1625853599.64,fixation,2,209,,,NoMusic
1625853601.14,stimulus,2,210,,,NoMusic
1625853601.1890001,stimulus,1,267,0.499,1.0,NoMusic
1625853601.19,fixation,1,267,,0.0,NoMusic
1625853601.64,fixation,2,210,,,NoMusic
1625853602.69,stimulus,1,268,,0.0,NoMusic
1625853603.14,stimulus,2,211,,,NoMusic
1625853603.208,fixation,1,268,0.018,1.0,NoMusic
1625853603.64,fixation,2,211,,,NoMusic
1625853604.69,stimulus,1,269,,0.0,NoMusic
1625853605.14,stimulus,2,212,,,NoMusic
1625853605.263,fixation,1,269,0.073,1.0,NoMusic
1625853605.64,fixation,2,212,,,NoMusic
1625853607.106,stimulus,1,270,0.416,1.0,NoMusic
1625853607.14,stimulus,2,213,,,NoMusic
1625853607.19,fixation,1,270,,0.0,NoMusic
1625853607.64,fixation,2,213,,,NoMusic
1625853609.066,stimulus,1,271,0.376,1.0,NoMusic
1625853609.14,stimulus,2,214,,,NoMusic
1625853609.19,fixation,1,271,,0.0,NoMusic
1625853609.64,fixation,2,214,,,NoMusic
1625853610.69,stimulus,1,272,,0.0,NoMusic
1625853611.14,stimulus,2,215,,,NoMusic
1625853611.2480001,fixation,1,272,0.058,1.0,NoMusic
1625853611.64,fixation,2,215,,,NoMusic
1625853613.068,stimulus,1,273,0.378,1.0,NoMusic
1625853613.14,stimulus,2,216,,,NoMusic
1625853613.19,fixation,1,273,,0.0,NoMusic
1625853613.64,fixation,2,216,,,NoMusic
1625853615.0010002,stimulus,1,274,0.311,1.0,NoMusic
1625853615.14,stimulus,2,217,,,NoMusic
1625853615.19,fixation,1,274,,0.0,NoMusic
1625853615.64,fixation,2,217,,,NoMusic
1625853617.048,stimulus,1,275,0.358,1.0,NoMusic
1625853617.14,stimulus,2,218,,,NoMusic
1625853617.19,fixation,1,275,,0.0,NoMusic
1625853617.64,fixation,2,218,,,NoMusic
1625853618.69,stimulus,1,276,,0.0,NoMusic
1625853619.14,stimulus,2,219,,,NoMusic
1625853619.203,fixation,1,276,0.013,1.0,NoMusic
1625853619.64,fixation,2,219,,,NoMusic
1625853621.071,stimulus,1,277,0.381,1.0,NoMusic
1625853621.14,stimulus,2,220,,,NoMusic
1625853621.19,fixation,1,277,,0.0,NoMusic
1625853621.64,fixation,2,220,,,NoMusic
1625853623.055,stimulus,1,278,0.365,1.0,NoMusic
1625853623.14,stimulus,2,221,,,NoMusic
1625853623.19,fixation,1,278,,0.0,NoMusic
1625853623.64,fixation,2,221,,,NoMusic
1625853625.0900002,stimulus,1,279,0.4,1.0,NoMusic
1625853625.14,stimulus,2,222,,,NoMusic
1625853625.19,fixation,1,279,,0.0,NoMusic
1625853625.64,fixation,2,222,,,NoMusic
1625853627.075,stimulus,1,280,0.385,1.0,NoMusic
1625853627.14,stimulus,2,223,,,NoMusic
1625853627.19,fixation,1,280,,0.0,NoMusic
1625853627.64,fixation,2,223,,,NoMusic
1625853628.69,stimulus,1,281,,0.0,NoMusic
1625853629.14,stimulus,2,224,,,NoMusic
1625853629.19,fixation,1,281,,0.0,NoMusic
1625853629.64,fixation,2,224,,,NoMusic
1625853631.0770001,stimulus,1,282,0.387,1.0,NoMusic
1625853631.14,stimulus,2,225,,,NoMusic
1625853631.19,fixation,1,282,,0.0,NoMusic
1625853631.64,fixation,2,225,,,NoMusic
1625853633.0570002,stimulus,1,283,0.367,1.0,NoMusic
1625853633.14,stimulus,2,226,,,NoMusic
1625853633.19,fixation,1,283,,0.0,NoMusic
1625853633.64,fixation,2,226,,,NoMusic
1625853634.994,stimulus,1,284,0.304,1.0,NoMusic
1625853635.14,stimulus,2,227,,,NoMusic
1625853635.19,fixation,1,284,,0.0,NoMusic
1625853635.64,fixation,2,227,,,NoMusic
1625853637.006,stimulus,1,285,0.316,1.0,NoMusic
1625853637.14,stimulus,2,228,,,NoMusic
1625853637.19,fixation,1,285,,0.0,NoMusic
1625853637.64,fixation,2,228,,,NoMusic
1625853638.9620001,stimulus,1,286,0.272,0.0,NoMusic
1625853639.14,stimulus,2,229,,,NoMusic
1625853639.19,fixation,1,286,,0.0,NoMusic
1625853639.64,fixation,2,229,,,NoMusic
1625853641.039,stimulus,1,287,0.349,1.0,NoMusic
1625853641.14,stimulus,2,230,,,NoMusic
1625853641.19,fixation,1,287,,0.0,NoMusic
1625853641.64,fixation,2,230,,,NoMusic
1625853642.69,stimulus,1,288,,0.0,NoMusic
1625853643.14,stimulus,2,231,,,NoMusic
1625853643.204,fixation,1,288,0.014,1.0,NoMusic
1625853643.64,fixation,2,231,,,NoMusic
1625853644.982,stimulus,1,289,0.292,1.0,NoMusic
1625853645.14,stimulus,2,232,,,NoMusic
1625853645.19,fixation,1,289,,0.0,NoMusic
1625853645.64,fixation,2,232,,,NoMusic
1625853646.997,stimulus,1,290,0.307,1.0,NoMusic
1625853647.14,stimulus,2,233,,,NoMusic
1625853647.19,fixation,1,290,,0.0,NoMusic
1625853647.64,fixation,2,233,,,NoMusic
1625853649.0310001,stimulus,1,291,0.341,1.0,NoMusic
1625853649.14,stimulus,2,234,,,NoMusic
1625853649.19,fixation,1,291,,0.0,NoMusic
1625853649.64,fixation,2,234,,,NoMusic
1625853651.079,stimulus,1,292,0.389,1.0,NoMusic
1625853651.14,stimulus,2,235,,,NoMusic
1625853651.19,fixation,1,292,,0.0,NoMusic
1625853651.64,fixation,2,235,,,NoMusic
1625853653.0180001,stimulus,1,293,0.328,1.0,NoMusic
1625853653.14,stimulus,2,236,,,NoMusic
1625853653.19,fixation,1,293,,0.0,NoMusic
1625853653.64,fixation,2,236,,,NoMusic
1625853655.053,stimulus,1,294,0.363,0.0,NoMusic
1625853655.14,stimulus,2,237,,,NoMusic
1625853655.19,fixation,1,294,,0.0,NoMusic
1625853655.64,fixation,2,237,,,NoMusic
1625853657.132,stimulus,1,295,0.442,1.0,NoMusic
1625853657.14,stimulus,2,238,,,NoMusic
1625853657.19,fixation,1,295,,0.0,NoMusic
1625853657.64,fixation,2,238,,,NoMusic
1625853659.118,stimulus,1,296,0.428,1.0,NoMusic
1625853659.14,stimulus,2,239,,,NoMusic
1625853659.19,fixation,1,296,,0.0,NoMusic
1625853659.64,fixation,2,239,,,NoMusic
1625853661.0210001,stimulus,1,297,0.331,1.0,NoMusic
1625853661.14,stimulus,2,240,,,NoMusic
1625853661.19,fixation,1,297,,0.0,NoMusic
1625853661.64,fixation,2,240,,,NoMusic
1625853662.69,stimulus,1,298,,0.0,NoMusic
1625853663.14,stimulus,2,241,,,NoMusic
1625853663.203,fixation,1,298,0.013,1.0,NoMusic
1625853663.64,fixation,2,241,,,NoMusic
1625853665.059,stimulus,1,299,0.369,1.0,NoMusic
1625853665.14,stimulus,2,242,,,NoMusic
1625853665.19,fixation,1,299,,0.0,NoMusic
1625853665.64,fixation,2,242,,,NoMusic
1625853667.111,stimulus,1,300,0.421,1.0,NoMusic
1625853667.14,stimulus,2,243,,,NoMusic
1625853667.19,fixation,1,300,,0.0,NoMusic
1625853667.64,fixation,2,243,,,NoMusic
1625853669.0340002,stimulus,1,301,0.344,1.0,NoMusic
1625853669.14,stimulus,2,244,,,NoMusic
1625853669.64,fixation,2,244,,,NoMusic
1625853670.167,fixation,1,301,0.977,0.0,NoMusic
1625853671.0670002,stimulus,1,302,0.377,1.0,NoMusic
1625853671.14,stimulus,2,245,,,NoMusic
1625853671.19,fixation,1,302,,0.0,NoMusic
1625853671.64,fixation,2,245,,,NoMusic
1625853673.119,stimulus,1,303,0.429,1.0,NoMusic
1625853673.14,stimulus,2,246,,,NoMusic
1625853673.19,fixation,1,303,,0.0,NoMusic
1625853673.64,fixation,2,246,,,NoMusic
1625853675.138,stimulus,1,304,0.448,1.0,NoMusic
1625853675.14,stimulus,2,247,,,NoMusic
1625853675.19,fixation,1,304,,0.0,NoMusic
1625853675.64,fixation,2,247,,,NoMusic
1625853677.05,stimulus,1,305,0.36,1.0,NoMusic
1625853677.14,stimulus,2,248,,,NoMusic
1625853677.19,fixation,1,305,,0.0,NoMusic
1625853677.64,fixation,2,248,,,NoMusic
1625853679.14,stimulus,2,249,,,NoMusic
1625853679.16,stimulus,1,306,0.47,1.0,NoMusic
1625853679.19,fixation,1,306,,0.0,NoMusic
1625853679.64,fixation,2,249,,,NoMusic
1625853680.986,stimulus,1,307,0.296,1.0,NoMusic
1625853681.14,stimulus,2,250,,,NoMusic
1625853681.19,fixation,1,307,,0.0,NoMusic
1625853681.64,fixation,2,250,,,NoMusic
1625853682.69,stimulus,1,308,,0.0,NoMusic
1625853683.14,stimulus,2,251,,,NoMusic
1625853683.233,fixation,1,308,0.043,1.0,NoMusic
1625853683.64,fixation,2,251,,,NoMusic
1625853684.69,stimulus,1,309,,0.0,NoMusic
1625853685.14,stimulus,2,252,,,NoMusic
1625853685.318,fixation,1,309,0.128,1.0,NoMusic
1625853685.64,fixation,2,252,,,NoMusic
1625853687.129,stimulus,1,310,0.439,1.0,NoMusic
1625853687.14,stimulus,2,253,,,NoMusic
1625853687.19,fixation,1,310,,0.0,NoMusic
1625853687.64,fixation,2,253,,,NoMusic
1625853688.905,stimulus,1,311,0.215,1.0,NoMusic
1625853689.14,stimulus,2,254,,,NoMusic
1625853689.19,fixation,1,311,,0.0,NoMusic
1625853689.64,fixation,2,254,,,NoMusic
1625853690.8960001,stimulus,1,312,0.206,1.0,NoMusic
1625853691.14,stimulus,2,255,,,NoMusic
1625853691.19,fixation,1,312,,0.0,NoMusic
1625853691.64,fixation,2,255,,,NoMusic
1625853692.69,stimulus,1,313,,0.0,NoMusic
1625853693.14,stimulus,2,256,,,NoMusic
1625853693.1950002,fixation,1,313,0.005,1.0,NoMusic
1625853693.64,fixation,2,256,,,NoMusic
1625853694.961,stimulus,1,314,0.271,1.0,NoMusic
1625853695.14,stimulus,2,257,,,NoMusic
1625853695.19,fixation,1,314,,0.0,NoMusic
1625853695.64,fixation,2,257,,,NoMusic
1625853697.015,stimulus,1,315,0.325,1.0,NoMusic
1625853697.14,stimulus,2,258,,,NoMusic
1625853697.19,fixation,1,315,,0.0,NoMusic
1625853697.64,fixation,2,258,,,NoMusic
1625853699.0440001,stimulus,1,316,0.354,1.0,NoMusic
1625853699.14,stimulus,2,259,,,NoMusic
1625853699.19,fixation,1,316,,0.0,NoMusic
1625853699.64,fixation,2,259,,,NoMusic
1625853701.0570002,stimulus,1,317,0.367,1.0,NoMusic
1625853701.14,stimulus,2,260,,,NoMusic
1625853701.19,fixation,1,317,,0.0,NoMusic
1625853701.64,fixation,2,260,,,NoMusic
1625853703.1100001,stimulus,1,318,0.42,1.0,NoMusic
1625853703.14,stimulus,2,261,,,NoMusic
1625853703.19,fixation,1,318,,0.0,NoMusic
1625853703.64,fixation,2,261,,,NoMusic
1625853705.1160002,stimulus,1,319,0.426,0.0,NoMusic
1625853705.14,stimulus,2,262,,,NoMusic
1625853705.19,fixation,1,319,,0.0,NoMusic
1625853705.64,fixation,2,262,,,NoMusic
1625853707.14,stimulus,2,263,,,NoMusic
1625853707.163,stimulus,1,320,0.473,1.0,NoMusic
1625853707.19,fixation,1,320,,0.0,NoMusic
1625853707.64,fixation,2,263,,,NoMusic
1625853708.69,stimulus,1,321,,0.0,NoMusic
1625853709.14,stimulus,2,264,,,NoMusic
1625853709.408,fixation,1,321,0.218,1.0,NoMusic
1625853709.64,fixation,2,264,,,NoMusic
1625853711.14,stimulus,2,265,,,NoMusic
1625853711.1460001,stimulus,1,322,0.456,1.0,NoMusic
1625853711.19,fixation,1,322,,0.0,NoMusic
1625853711.64,fixation,2,265,,,NoMusic
1625853712.69,stimulus,1,323,,0.0,NoMusic
1625853713.14,stimulus,2,266,,,NoMusic
1625853713.223,fixation,1,323,0.033,1.0,NoMusic
1625853713.64,fixation,2,266,,,NoMusic
1625853715.0740001,stimulus,1,324,0.384,1.0,NoMusic
1625853715.14,stimulus,2,267,,,NoMusic
1625853715.19,fixation,1,324,,0.0,NoMusic
1625853715.64,fixation,2,267,,,NoMusic
1625853717.098,stimulus,1,325,0.408,1.0,NoMusic
1625853717.14,stimulus,2,268,,,NoMusic
1625853717.19,fixation,1,325,,0.0,NoMusic
1625853717.64,fixation,2,268,,,NoMusic
1625853719.1030002,stimulus,1,326,0.413,1.0,NoMusic
1625853719.14,stimulus,2,269,,,NoMusic
1625853719.19,fixation,1,326,,0.0,NoMusic
1625853719.64,fixation,2,269,,,NoMusic
1625853721.085,stimulus,1,327,0.395,1.0,NoMusic
1625853721.14,stimulus,2,270,,,NoMusic
1625853721.19,fixation,1,327,,0.0,NoMusic
1625853721.64,fixation,2,270,,,NoMusic
1625853722.69,stimulus,1,328,,0.0,NoMusic
1625853723.14,stimulus,2,271,,,NoMusic
1625853723.2910001,fixation,1,328,0.101,1.0,NoMusic
1625853723.64,fixation,2,271,,,NoMusic
1625853724.69,stimulus,1,329,,0.0,NoMusic
1625853725.14,stimulus,2,272,,,NoMusic
1625853725.191,fixation,1,329,0.001,1.0,NoMusic
1625853725.64,fixation,2,272,,,NoMusic
1625853727.069,stimulus,1,330,0.379,1.0,NoMusic
1625853727.14,stimulus,2,273,,,NoMusic
1625853727.19,fixation,1,330,,0.0,NoMusic
1625853727.64,fixation,2,273,,,NoMusic
1625853729.0470002,stimulus,1,331,0.357,1.0,NoMusic
1625853729.14,stimulus,2,274,,,NoMusic
1625853729.19,fixation,1,331,,0.0,NoMusic
1625853729.64,fixation,2,274,,,NoMusic
1625853730.69,stimulus,1,332,,0.0,NoMusic
1625853731.14,stimulus,2,275,,,NoMusic
1625853731.19,fixation,1,332,,0.0,NoMusic
1625853731.64,fixation,2,275,,,NoMusic
1625853733.086,stimulus,1,333,0.396,1.0,NoMusic
1625853733.14,stimulus,2,276,,,NoMusic
1625853733.19,fixation,1,333,,0.0,NoMusic
1625853733.64,fixation,2,276,,,NoMusic
1625853735.066,stimulus,1,334,0.376,1.0,NoMusic
1625853735.14,stimulus,2,277,,,NoMusic
1625853735.19,fixation,1,334,,0.0,NoMusic
1625853735.64,fixation,2,277,,,NoMusic
1625853736.69,stimulus,1,335,,0.0,NoMusic
1625853737.14,stimulus,2,278,,,NoMusic
1625853737.64,fixation,2,278,,,NoMusic
1625853737.727,fixation,1,335,0.537,1.0,NoMusic
1625853739.0570002,stimulus,1,336,0.367,1.0,NoMusic
1625853739.14,stimulus,2,279,,,NoMusic
1625853739.19,fixation,1,336,,0.0,NoMusic
1625853739.64,fixation,2,279,,,NoMusic
1625853741.0870001,stimulus,1,337,0.397,1.0,NoMusic
1625853741.14,stimulus,2,280,,,NoMusic
1625853741.19,fixation,1,337,,0.0,NoMusic
1625853741.64,fixation,2,280,,,NoMusic
1625853743.0900002,stimulus,1,338,0.4,1.0,NoMusic
1625853743.14,stimulus,2,281,,,NoMusic
1625853743.19,fixation,1,338,,0.0,NoMusic
1625853743.64,fixation,2,281,,,NoMusic
1625853744.69,stimulus,1,339,,0.0,NoMusic
1625853745.14,stimulus,2,282,,,NoMusic
1625853745.276,fixation,1,339,0.086,0.0,NoMusic
1625853745.64,fixation,2,282,,,NoMusic
1625853747.137,stimulus,1,340,0.447,1.0,NoMusic
1625853747.14,stimulus,2,283,,,NoMusic
1625853747.19,fixation,1,340,,0.0,NoMusic
1625853747.64,fixation,2,283,,,NoMusic
1625853749.1030002,stimulus,1,341,0.413,1.0,NoMusic
1625853749.14,stimulus,2,284,,,NoMusic
1625853749.19,fixation,1,341,,0.0,NoMusic
1625853749.64,fixation,2,284,,,NoMusic
1625853750.69,stimulus,1,342,,0.0,NoMusic
1625853751.14,stimulus,2,285,,,NoMusic
1625853751.318,fixation,1,342,0.128,1.0,NoMusic
1625853751.64,fixation,2,285,,,NoMusic
1625853753.051,stimulus,1,343,0.361,1.0,NoMusic
1625853753.14,stimulus,2,286,,,NoMusic
1625853753.19,fixation,1,343,,0.0,NoMusic
1625853753.64,fixation,2,286,,,NoMusic
1625853755.0770001,stimulus,1,344,0.387,1.0,NoMusic
1625853755.14,stimulus,2,287,,,NoMusic
1625853755.19,fixation,1,344,,0.0,NoMusic
1625853755.64,fixation,2,287,,,NoMusic
1625853756.69,stimulus,1,345,,0.0,NoMusic
1625853757.14,stimulus,2,288,,,NoMusic
1625853757.64,fixation,2,288,,,NoMusic
1625853757.653,fixation,1,345,0.463,1.0,NoMusic
1625853758.69,stimulus,1,346,,0.0,NoMusic
1625853759.14,stimulus,2,289,,,NoMusic
1625853759.231,fixation,1,346,0.041,1.0,NoMusic
1625853759.64,fixation,2,289,,,NoMusic
1625853761.091,stimulus,1,347,0.401,1.0,NoMusic
1625853761.14,stimulus,2,290,,,NoMusic
1625853761.19,fixation,1,347,,0.0,NoMusic
1625853761.64,fixation,2,290,,,NoMusic
1625853763.023,stimulus,1,348,0.333,0.0,NoMusic
1625853763.14,stimulus,2,291,,,NoMusic
1625853763.617,fixation,1,348,0.427,1.0,NoMusic
1625853763.64,fixation,2,291,,,NoMusic
1625853765.14,stimulus,2,292,,,NoMusic
1625853765.162,stimulus,1,349,0.472,1.0,NoMusic
1625853765.19,fixation,1,349,,0.0,NoMusic
1625853765.64,fixation,2,292,,,NoMusic
1625853766.69,stimulus,1,350,,0.0,NoMusic
1625853767.14,stimulus,2,293,,,NoMusic
1625853767.64,fixation,2,293,,,NoMusic
1625853767.93,fixation,1,350,0.74,1.0,NoMusic
1625853769.14,stimulus,2,294,,,NoMusic
1625853769.1460001,stimulus,1,351,0.456,1.0,NoMusic
1625853769.19,fixation,1,351,,0.0,NoMusic
1625853769.64,fixation,2,294,,,NoMusic
1625853770.69,stimulus,1,352,,0.0,NoMusic
1625853771.14,stimulus,2,295,,,NoMusic
1625853771.22,fixation,1,352,0.03,1.0,NoMusic
1625853771.64,fixation,2,295,,,NoMusic
1625853772.69,stimulus,1,353,,0.0,NoMusic
1625853773.14,stimulus,2,296,,,NoMusic
1625853773.219,fixation,1,353,0.029,1.0,NoMusic
1625853773.64,fixation,2,296,,,NoMusic
1625853775.14,stimulus,2,297,,,NoMusic
1625853775.186,stimulus,1,354,0.496,1.0,NoMusic
1625853775.19,fixation,1,354,,0.0,NoMusic
1625853775.64,fixation,2,297,,,NoMusic
1625853777.079,stimulus,1,355,0.389,1.0,NoMusic
1625853777.14,stimulus,2,298,,,NoMusic
1625853777.19,fixation,1,355,,0.0,NoMusic
1625853777.64,fixation,2,298,,,NoMusic
1625853779.02,stimulus,1,356,0.33,1.0,NoMusic
1625853779.14,stimulus,2,299,,,NoMusic
1625853779.19,fixation,1,356,,0.0,NoMusic
1625853779.64,fixation,2,299,,,NoMusic
1625853781.082,stimulus,1,357,0.392,1.0,NoMusic
1625853781.14,stimulus,2,300,,,NoMusic
1625853781.19,fixation,1,357,,0.0,NoMusic
1625853781.64,fixation,2,300,,,NoMusic
1625853783.033,stimulus,1,358,0.343,1.0,NoMusic
1625853783.14,stimulus,2,301,,,NoMusic
1625853783.19,fixation,1,358,,0.0,NoMusic
1625853783.64,fixation,2,301,,,NoMusic
1625853785.072,stimulus,1,359,0.382,1.0,NoMusic
1625853785.14,stimulus,2,302,,,NoMusic
1625853785.19,fixation,1,359,,0.0,NoMusic
1625853785.64,fixation,2,302,,,NoMusic
1625853787.0800002,stimulus,1,360,0.39,1.0,NoMusic
1625853787.14,stimulus,2,303,,,NoMusic
1625853787.19,fixation,1,360,,0.0,NoMusic
1625853787.64,fixation,2,303,,,NoMusic
1625853789.055,stimulus,1,361,0.365,1.0,NoMusic
1625853789.14,stimulus,2,304,,,NoMusic
1625853789.19,fixation,1,361,,0.0,NoMusic
1625853789.64,fixation,2,304,,,NoMusic
1625853791.091,stimulus,1,362,0.401,1.0,NoMusic
1625853791.14,stimulus,2,305,,,NoMusic
1625853791.19,fixation,1,362,,0.0,NoMusic
1625853791.64,fixation,2,305,,,NoMusic
1625853792.69,stimulus,1,363,,0.0,NoMusic
1625853793.14,stimulus,2,306,,,NoMusic
1625853793.318,fixation,1,363,0.128,1.0,NoMusic
1625853793.64,fixation,2,306,,,NoMusic
1625853794.69,stimulus,1,364,,0.0,NoMusic
1625853795.14,stimulus,2,307,,,NoMusic
1625853795.266,fixation,1,364,0.076,0.0,NoMusic
1625853795.64,fixation,2,307,,,NoMusic
1625853797.094,stimulus,1,365,0.404,1.0,NoMusic
1625853797.14,stimulus,2,308,,,NoMusic
1625853797.19,fixation,1,365,,0.0,NoMusic
1625853797.64,fixation,2,308,,,NoMusic
1625853799.095,stimulus,1,366,0.405,1.0,NoMusic
1625853799.14,stimulus,2,309,,,NoMusic
1625853799.19,fixation,1,366,,0.0,NoMusic
1625853799.64,fixation,2,309,,,NoMusic
1625853800.69,stimulus,1,367,,0.0,NoMusic
1625853801.14,stimulus,2,310,,,NoMusic
1625853801.255,fixation,1,367,0.065,1.0,NoMusic
1625853801.64,fixation,2,310,,,NoMusic
1625853802.69,stimulus,1,368,,0.0,NoMusic
1625853803.14,stimulus,2,311,,,NoMusic
1625853803.2580001,fixation,1,368,0.068,1.0,NoMusic
1625853803.64,fixation,2,311,,,NoMusic
1625853804.69,stimulus,1,369,,0.0,NoMusic
1625853805.14,stimulus,2,312,,,NoMusic
1625853805.249,fixation,1,369,0.059,1.0,NoMusic
1625853805.64,fixation,2,312,,,NoMusic
1625853807.112,stimulus,1,370,0.422,1.0,NoMusic
1625853807.14,stimulus,2,313,,,NoMusic
1625853807.19,fixation,1,370,,0.0,NoMusic
1625853807.64,fixation,2,313,,,NoMusic
1625853809.134,stimulus,1,371,0.444,1.0,NoMusic
1625853809.14,stimulus,2,314,,,NoMusic
1625853809.19,fixation,1,371,,0.0,NoMusic
1625853809.64,fixation,2,314,,,NoMusic
1625853811.098,stimulus,1,372,0.408,1.0,NoMusic
1625853811.14,stimulus,2,315,,,NoMusic
1625853811.19,fixation,1,372,,0.0,NoMusic
1625853811.64,fixation,2,315,,,NoMusic
1625853812.69,stimulus,1,373,,0.0,NoMusic
1625853813.14,stimulus,2,316,,,NoMusic
1625853813.2680001,fixation,1,373,0.078,1.0,NoMusic
1625853813.64,fixation,2,316,,,NoMusic
1625853815.089,stimulus,1,374,0.399,0.0,NoMusic
1625853815.14,stimulus,2,317,,,NoMusic
1625853815.572,fixation,1,374,0.382,1.0,NoMusic
1625853815.64,fixation,2,317,,,NoMusic
1625853817.0640001,stimulus,1,375,0.374,1.0,NoMusic
1625853817.14,stimulus,2,318,,,NoMusic
1625853817.19,fixation,1,375,,0.0,NoMusic
1625853817.64,fixation,2,318,,,NoMusic
1625853818.69,stimulus,1,376,,0.0,NoMusic
1625853819.14,stimulus,2,319,,,NoMusic
1625853819.22,fixation,1,376,0.03,1.0,NoMusic
1625853819.64,fixation,2,319,,,NoMusic
1625853821.1260002,stimulus,1,377,0.436,1.0,NoMusic
1625853821.14,stimulus,2,320,,,NoMusic
1625853821.19,fixation,1,377,,0.0,NoMusic
1625853821.64,fixation,2,320,,,NoMusic
1625853823.0700002,stimulus,1,378,0.38,1.0,NoMusic
1625853823.14,stimulus,2,321,,,NoMusic
1625853823.19,fixation,1,378,,0.0,NoMusic
1625853823.64,fixation,2,321,,,NoMusic
1625853824.999,stimulus,1,379,0.309,0.0,NoMusic
1625853825.14,stimulus,2,322,,,NoMusic
1625853825.19,fixation,1,379,,0.0,NoMusic
1625853825.64,fixation,2,322,,,NoMusic
1625853827.038,stimulus,1,380,0.348,1.0,NoMusic
1625853827.14,stimulus,2,323,,,NoMusic
1625853827.19,fixation,1,380,,0.0,NoMusic
1625853827.64,fixation,2,323,,,NoMusic
1625853829.055,stimulus,1,381,0.365,1.0,NoMusic
1625853829.14,stimulus,2,324,,,NoMusic
1625853829.19,fixation,1,381,,0.0,NoMusic
1625853829.64,fixation,2,324,,,NoMusic
1625853830.69,stimulus,1,382,,0.0,NoMusic
1625853831.14,stimulus,2,325,,,NoMusic
1625853831.2020001,fixation,1,382,0.012,1.0,NoMusic
1625853831.64,fixation,2,325,,,NoMusic
1625853833.0930002,stimulus,1,383,0.403,1.0,NoMusic
1625853833.14,stimulus,2,326,,,NoMusic
1625853833.19,fixation,1,383,,0.0,NoMusic
1625853833.64,fixation,2,326,,,NoMusic
1625853835.0570002,stimulus,1,384,0.367,1.0,NoMusic
1625853835.14,stimulus,2,327,,,NoMusic
1625853835.19,fixation,1,384,,0.0,NoMusic
1625853835.64,fixation,2,327,,,NoMusic
1625853836.69,stimulus,1,385,,0.0,NoMusic
1625853837.14,stimulus,2,328,,,NoMusic
1625853837.2050002,fixation,1,385,0.015,1.0,NoMusic
1625853837.64,fixation,2,328,,,NoMusic
1625853838.69,stimulus,1,386,,0.0,NoMusic
1625853839.14,stimulus,2,329,,,NoMusic
1625853839.236,fixation,1,386,0.046,1.0,NoMusic
1625853839.64,fixation,2,329,,,NoMusic
1625853841.13,stimulus,1,387,0.44,1.0,NoMusic
1625853841.14,stimulus,2,330,,,NoMusic
1625853841.19,fixation,1,387,,0.0,NoMusic
1625853841.64,fixation,2,330,,,NoMusic
1625853843.14,stimulus,2,331,,,NoMusic
1625853843.1590002,stimulus,1,388,0.469,1.0,NoMusic
1625853843.19,fixation,1,388,,0.0,NoMusic
1625853843.64,fixation,2,331,,,NoMusic
1625853844.69,stimulus,1,389,,0.0,NoMusic
1625853845.14,stimulus,2,332,,,NoMusic
1625853845.388,fixation,1,389,0.198,1.0,NoMusic
1625853845.64,fixation,2,332,,,NoMusic
1625853847.0700002,stimulus,1,390,0.38,1.0,NoMusic
1625853847.14,stimulus,2,333,,,NoMusic
1625853847.19,fixation,1,390,,0.0,NoMusic
1625853847.64,fixation,2,333,,,NoMusic
1625853848.69,stimulus,1,391,,0.0,NoMusic
1625853849.14,stimulus,2,334,,,NoMusic
1625853849.219,fixation,1,391,0.029,1.0,NoMusic
1625853849.64,fixation,2,334,,,NoMusic
1625853851.0800002,stimulus,1,392,0.39,1.0,NoMusic
1625853851.14,stimulus,2,335,,,NoMusic
1625853851.19,fixation,1,392,,0.0,NoMusic
1625853851.64,fixation,2,335,,,NoMusic
1625853853.061,stimulus,1,393,0.371,1.0,NoMusic
1625853853.14,stimulus,2,336,,,NoMusic
1625853853.19,fixation,1,393,,0.0,NoMusic
1625853853.64,fixation,2,336,,,NoMusic
1625853855.0700002,stimulus,1,394,0.38,1.0,NoMusic
1625853855.14,stimulus,2,337,,,NoMusic
1625853855.19,fixation,1,394,,0.0,NoMusic
1625853855.64,fixation,2,337,,,NoMusic
1625853857.095,stimulus,1,395,0.405,1.0,NoMusic
1625853857.14,stimulus,2,338,,,NoMusic
1625853857.19,fixation,1,395,,0.0,NoMusic
1625853857.64,fixation,2,338,,,NoMusic
1625853858.69,stimulus,1,396,,0.0,NoMusic
1625853859.14,stimulus,2,339,,,NoMusic
1625853859.64,fixation,2,339,,,NoMusic
1625853859.693,fixation,1,396,0.503,1.0,NoMusic
1625853861.112,stimulus,1,397,0.422,1.0,NoMusic
1625853861.14,stimulus,2,340,,,NoMusic
1625853861.19,fixation,1,397,,0.0,NoMusic
1625853861.64,fixation,2,340,,,NoMusic
1625853862.69,stimulus,1,398,,,RelaxSession
1625853863.14,stimulus,2,341,,,NoMusic
1625853863.19,fixation,1,398,,,RelaxSession
1625853863.64,fixation,2,341,,,NoMusic
1625853864.69,stimulus,1,399,,,RelaxSession
1625853865.14,stimulus,2,342,,,NoMusic
1625853865.19,fixation,1,399,,,RelaxSession
1625853865.64,fixation,2,342,,,NoMusic
1625853866.69,stimulus,1,400,,,RelaxSession
1625853867.14,stimulus,2,343,,,NoMusic
1625853867.19,fixation,1,400,,,RelaxSession
1625853867.64,fixation,2,343,,,NoMusic
1625853868.69,stimulus,1,401,,,RelaxSession
1625853869.14,stimulus,2,344,,,NoMusic
1625853869.19,fixation,1,401,,,RelaxSession
1625853869.64,fixation,2,344,,,NoMusic
1625853870.69,stimulus,1,402,,,RelaxSession
1625853871.14,stimulus,2,345,,,NoMusic
1625853871.19,fixation,1,402,,,RelaxSession
1625853871.64,fixation,2,345,,,NoMusic
1625853872.69,stimulus,1,403,,,RelaxSession
1625853873.14,stimulus,2,346,,,NoMusic
1625853873.19,fixation,1,403,,,RelaxSession
1625853873.64,fixation,2,346,,,NoMusic
1625853874.69,stimulus,1,404,,,RelaxSession
1625853875.14,stimulus,2,347,,,NoMusic
1625853875.19,fixation,1,404,,,RelaxSession
1625853875.64,fixation,2,347,,,NoMusic
1625853876.69,stimulus,1,405,,,RelaxSession
1625853877.14,stimulus,2,348,,,NoMusic
1625853877.19,fixation,1,405,,,RelaxSession
1625853877.64,fixation,2,348,,,NoMusic
1625853878.69,stimulus,1,406,,,RelaxSession
1625853879.14,stimulus,2,349,,,NoMusic
1625853879.19,fixation,1,406,,,RelaxSession
1625853879.64,fixation,2,349,,,NoMusic
1625853880.69,stimulus,1,407,,,RelaxSession
1625853881.14,stimulus,2,350,,,NoMusic
1625853881.19,fixation,1,407,,,RelaxSession
1625853881.64,fixation,2,350,,,NoMusic
1625853882.69,stimulus,1,408,,,RelaxSession
1625853883.14,stimulus,2,351,,,NoMusic
1625853883.19,fixation,1,408,,,RelaxSession
1625853883.64,fixation,2,351,,,NoMusic
1625853884.69,stimulus,1,409,,,RelaxSession
1625853885.14,stimulus,2,352,,,NoMusic
1625853885.19,fixation,1,409,,,RelaxSession
1625853885.64,fixation,2,352,,,NoMusic
1625853886.69,stimulus,1,410,,,RelaxSession
1625853887.14,stimulus,2,353,,,NoMusic
1625853887.19,fixation,1,410,,,RelaxSession
1625853887.64,fixation,2,353,,,NoMusic
1625853888.69,stimulus,1,411,,,RelaxSession
1625853889.14,stimulus,2,354,,,NoMusic
1625853889.19,fixation,1,411,,,RelaxSession
1625853889.64,fixation,2,354,,,NoMusic
1625853890.69,stimulus,1,412,,,RelaxSession
1625853891.14,stimulus,2,355,,,NoMusic
1625853891.19,fixation,1,412,,,RelaxSession
1625853891.64,fixation,2,355,,,NoMusic
1625853892.69,stimulus,1,413,,,RelaxSession
1625853893.14,stimulus,2,356,,,NoMusic
1625853893.19,fixation,1,413,,,RelaxSession
1625853893.64,fixation,2,356,,,NoMusic
1625853894.69,stimulus,1,414,,,RelaxSession
1625853895.14,stimulus,2,357,,,NoMusic
1625853895.19,fixation,1,414,,,RelaxSession
1625853895.64,fixation,2,357,,,NoMusic
1625853896.69,stimulus,1,415,,,RelaxSession
1625853897.14,stimulus,2,358,,,NoMusic
1625853897.19,fixation,1,415,,,RelaxSession
1625853897.64,fixation,2,358,,,NoMusic
1625853898.69,stimulus,1,416,,,RelaxSession
1625853899.14,stimulus,2,359,,,NoMusic
1625853899.19,fixation,1,416,,,RelaxSession
1625853899.64,fixation,2,359,,,NoMusic
1625853900.69,stimulus,1,417,,,RelaxSession
1625853901.14,stimulus,2,360,,,NoMusic
1625853901.19,fixation,1,417,,,RelaxSession
1625853901.64,fixation,2,360,,,NoMusic
1625853902.69,stimulus,1,418,,,RelaxSession
1625853903.14,stimulus,2,361,,,NoMusic
1625853903.19,fixation,1,418,,,RelaxSession
1625853903.64,fixation,2,361,,,NoMusic
1625853904.69,stimulus,1,419,,,RelaxSession
1625853905.14,stimulus,2,362,,,NoMusic
1625853905.19,fixation,1,419,,,RelaxSession
1625853905.64,fixation,2,362,,,NoMusic
1625853906.69,stimulus,1,420,,,RelaxSession
1625853907.14,stimulus,2,363,,,NoMusic
1625853907.19,fixation,1,420,,,RelaxSession
1625853907.64,fixation,2,363,,,NoMusic
1625853908.69,stimulus,1,421,,,RelaxSession
1625853909.14,stimulus,2,364,,,NoMusic
1625853909.19,fixation,1,421,,,RelaxSession
1625853909.64,fixation,2,364,,,NoMusic
1625853910.69,stimulus,1,422,,,RelaxSession
1625853911.14,stimulus,2,365,,,NoMusic
1625853911.19,fixation,1,422,,,RelaxSession
1625853911.64,fixation,2,365,,,NoMusic
1625853912.69,stimulus,1,423,,,RelaxSession
1625853913.14,stimulus,2,366,,,NoMusic
1625853913.19,fixation,1,423,,,RelaxSession
1625853913.64,fixation,2,366,,,NoMusic
1625853914.69,stimulus,1,424,,,RelaxSession
1625853915.14,stimulus,2,367,,,NoMusic
1625853915.19,fixation,1,424,,,RelaxSession
1625853915.64,fixation,2,367,,,NoMusic
1625853916.69,stimulus,1,425,,,RelaxSession
1625853917.14,stimulus,2,368,,,NoMusic
1625853917.19,fixation,1,425,,,RelaxSession
1625853917.64,fixation,2,368,,,NoMusic
1625853918.69,stimulus,1,426,,,RelaxSession
1625853919.14,stimulus,2,369,,,NoMusic
1625853919.19,fixation,1,426,,,RelaxSession
1625853919.64,fixation,2,369,,,NoMusic
1625853920.69,stimulus,1,427,,,RelaxSession
1625853921.14,stimulus,2,370,,,NoMusic
1625853921.19,fixation,1,427,,,RelaxSession
1625853921.64,fixation,2,370,,,NoMusic
1625853922.69,stimulus,1,428,,,RelaxSession
1625853923.14,stimulus,2,371,,,NoMusic
1625853923.19,fixation,1,428,,,RelaxSession
1625853923.64,fixation,2,371,,,NoMusic
1625853924.69,stimulus,1,429,,,RelaxSession
1625853925.14,stimulus,2,372,,,NoMusic
1625853925.19,fixation,1,429,,,RelaxSession
1625853925.64,fixation,2,372,,,NoMusic
1625853926.69,stimulus,1,430,,,RelaxSession
1625853927.14,stimulus,2,373,,,NoMusic
1625853927.19,fixation,1,430,,,RelaxSession
1625853927.64,fixation,2,373,,,NoMusic
1625853928.69,stimulus,1,431,,,RelaxSession
1625853929.14,stimulus,2,374,,,NoMusic
1625853929.19,fixation,1,431,,,RelaxSession
1625853929.64,fixation,2,374,,,NoMusic
1625853930.69,stimulus,1,432,,,RelaxSession
1625853931.14,stimulus,2,375,,,NoMusic
1625853931.19,fixation,1,432,,,RelaxSession
1625853931.64,fixation,2,375,,,NoMusic
1625853932.69,stimulus,1,433,,,RelaxSession
1625853933.14,stimulus,2,376,,,NoMusic
1625853933.19,fixation,1,433,,,RelaxSession
1625853933.64,fixation,2,376,,,NoMusic
1625853934.69,stimulus,1,434,,,RelaxSession
1625853935.14,stimulus,2,377,,,NoMusic
1625853935.19,fixation,1,434,,,RelaxSession
1625853935.64,fixation,2,377,,,NoMusic
1625853936.69,stimulus,1,435,,,RelaxSession
1625853937.14,stimulus,2,378,,,NoMusic
1625853937.19,fixation,1,435,,,RelaxSession
1625853937.64,fixation,2,378,,,NoMusic
1625853938.69,stimulus,1,436,,,RelaxSession
1625853939.14,stimulus,2,379,,,NoMusic
1625853939.19,fixation,1,436,,,RelaxSession
1625853939.64,fixation,2,379,,,NoMusic
1625853940.69,stimulus,1,437,,,RelaxSession
1625853941.14,stimulus,2,380,,,NoMusic
1625853941.19,fixation,1,437,,,RelaxSession
1625853941.64,fixation,2,380,,,NoMusic
1625853942.69,stimulus,1,438,,,RelaxSession
1625853943.14,stimulus,2,381,,,NoMusic
1625853943.19,fixation,1,438,,,RelaxSession
1625853943.64,fixation,2,381,,,NoMusic
1625853944.69,stimulus,1,439,,,RelaxSession
1625853945.14,stimulus,2,382,,,NoMusic
1625853945.19,fixation,1,439,,,RelaxSession
1625853945.64,fixation,2,382,,,NoMusic
1625853946.69,stimulus,1,440,,,RelaxSession
1625853947.14,stimulus,2,383,,,NoMusic
1625853947.19,fixation,1,440,,,RelaxSession
1625853947.64,fixation,2,383,,,NoMusic
1625853948.69,stimulus,1,441,,,RelaxSession
1625853949.14,stimulus,2,384,,,NoMusic
1625853949.19,fixation,1,441,,,RelaxSession
1625853949.64,fixation,2,384,,,NoMusic
1625853950.69,stimulus,1,442,,,RelaxSession
1625853951.14,stimulus,2,385,,,NoMusic
1625853951.19,fixation,1,442,,,RelaxSession
1625853951.64,fixation,2,385,,,NoMusic
1625853952.69,stimulus,1,443,,,RelaxSession
1625853953.14,stimulus,2,386,,,NoMusic
1625853953.19,fixation,1,443,,,RelaxSession
1625853953.64,fixation,2,386,,,NoMusic
1625853954.69,stimulus,1,444,,,RelaxSession
1625853955.14,stimulus,2,387,,,NoMusic
1625853955.19,fixation,1,444,,,RelaxSession
1625853955.64,fixation,2,387,,,NoMusic
1625853956.69,stimulus,1,445,,,RelaxSession
1625853957.14,stimulus,2,388,,,NoMusic
1625853957.19,fixation,1,445,,,RelaxSession
1625853957.64,fixation,2,388,,,NoMusic
1625853958.69,stimulus,1,446,,,RelaxSession
1625853959.14,stimulus,2,389,,,NoMusic
1625853959.19,fixation,1,446,,,RelaxSession
1625853959.64,fixation,2,389,,,NoMusic
1625853960.69,stimulus,1,447,,,RelaxSession
1625853961.14,stimulus,2,390,,,NoMusic
1625853961.19,fixation,1,447,,,RelaxSession
1625853961.64,fixation,2,390,,,NoMusic
1625853962.69,stimulus,1,448,,,RelaxSession
1625853963.14,stimulus,2,391,,,NoMusic
1625853963.19,fixation,1,448,,,RelaxSession
1625853963.64,fixation,2,391,,,NoMusic
1625853964.69,stimulus,1,449,,,RelaxSession
1625853965.14,stimulus,2,392,,,NoMusic
1625853965.19,fixation,1,449,,,RelaxSession
1625853965.64,fixation,2,392,,,NoMusic
1625853966.69,stimulus,1,450,,,RelaxSession
1625853967.14,stimulus,2,393,,,NoMusic
1625853967.19,fixation,1,450,,,RelaxSession
1625853967.64,fixation,2,393,,,NoMusic
1625853968.69,stimulus,1,451,,,RelaxSession
1625853969.14,stimulus,2,394,,,NoMusic
1625853969.19,fixation,1,451,,,RelaxSession
1625853969.64,fixation,2,394,,,NoMusic
1625853970.69,stimulus,1,452,,,RelaxSession
1625853971.14,stimulus,2,395,,,NoMusic
1625853971.19,fixation,1,452,,,RelaxSession
1625853971.64,fixation,2,395,,,NoMusic
1625853972.69,stimulus,1,453,,,RelaxSession
1625853973.14,stimulus,2,396,,,NoMusic
1625853973.19,fixation,1,453,,,RelaxSession
1625853973.64,fixation,2,396,,,NoMusic
1625853974.69,stimulus,1,454,,,RelaxSession
1625853975.14,stimulus,2,397,,,NoMusic
1625853975.19,fixation,1,454,,,RelaxSession
1625853975.64,fixation,2,397,,,NoMusic
1625853976.69,stimulus,1,455,,,RelaxSession
1625853977.14,stimulus,2,398,,0.0,RelaxSession
1625853977.19,fixation,1,455,,,RelaxSession
1625853977.64,fixation,2,398,,0.0,RelaxSession
1625853978.69,stimulus,1,456,,,RelaxSession
1625853979.19,fixation,1,456,,,RelaxSession
1625853979.585,stimulus,2,399,0.445,1.0,RelaxSession
1625853979.64,fixation,2,399,,0.0,RelaxSession
1625853980.69,stimulus,1,457,,,RelaxSession
1625853981.19,fixation,1,457,,,RelaxSession
1625853981.3600001,stimulus,2,400,0.22,1.0,RelaxSession
1625853981.64,fixation,2,400,,0.0,RelaxSession
1625853982.69,stimulus,1,458,,,RelaxSession
1625853983.19,fixation,1,458,,,RelaxSession
1625853983.4020002,stimulus,2,401,0.262,0.0,RelaxSession
1625853984.0670002,fixation,2,401,0.427,1.0,RelaxSession
1625853984.69,stimulus,1,459,,,RelaxSession
1625853985.19,fixation,1,459,,,RelaxSession
1625853985.5430002,stimulus,2,402,0.403,1.0,RelaxSession
1625853985.64,fixation,2,402,,0.0,RelaxSession
1625853986.69,stimulus,1,460,,,RelaxSession
1625853987.19,fixation,1,460,,,RelaxSession
1625853987.523,stimulus,2,403,0.383,1.0,RelaxSession
1625853987.64,fixation,2,403,,0.0,RelaxSession
1625853988.69,stimulus,1,461,,,RelaxSession
1625853989.19,fixation,1,461,,,RelaxSession
1625853989.5970001,stimulus,2,404,0.457,0.0,RelaxSession
1625853989.64,fixation,2,404,,0.0,RelaxSession
1625853990.69,stimulus,1,462,,,RelaxSession
1625853991.14,stimulus,2,405,,0.0,RelaxSession
1625853991.19,fixation,1,462,,,RelaxSession
1625853991.6620002,fixation,2,405,0.022,1.0,RelaxSession
1625853992.69,stimulus,1,463,,,RelaxSession
1625853993.19,fixation,1,463,,,RelaxSession
1625853993.509,stimulus,2,406,0.369,1.0,RelaxSession
1625853993.64,fixation,2,406,,0.0,RelaxSession
1625853994.69,stimulus,1,464,,,RelaxSession
1625853995.19,fixation,1,464,,,RelaxSession
1625853995.512,stimulus,2,407,0.372,1.0,RelaxSession
1625853995.64,fixation,2,407,,0.0,RelaxSession
1625853996.69,stimulus,1,465,,,RelaxSession
1625853997.19,fixation,1,465,,,RelaxSession
1625853997.5990002,stimulus,2,408,0.459,1.0,RelaxSession
1625853997.64,fixation,2,408,,0.0,RelaxSession
1625853998.69,stimulus,1,466,,,RelaxSession
1625853999.14,stimulus,2,409,,0.0,RelaxSession
1625853999.19,fixation,1,466,,,RelaxSession
1625853999.7580001,fixation,2,409,0.118,1.0,RelaxSession
1625854000.69,stimulus,1,467,,,RelaxSession
1625854001.14,stimulus,2,410,,0.0,RelaxSession
1625854001.19,fixation,1,467,,,RelaxSession
1625854001.74,fixation,2,410,0.1,1.0,RelaxSession
1625854002.69,stimulus,1,468,,,RelaxSession
1625854003.19,fixation,1,468,,,RelaxSession
1625854003.476,stimulus,2,411,0.336,1.0,RelaxSession
1625854003.64,fixation,2,411,,0.0,RelaxSession
1625854004.69,stimulus,1,469,,,RelaxSession
1625854005.14,stimulus,2,412,,0.0,RelaxSession
1625854005.19,fixation,1,469,,,RelaxSession
1625854005.694,fixation,2,412,0.054,0.0,RelaxSession
1625854006.69,stimulus,1,470,,,RelaxSession
1625854007.19,fixation,1,470,,,RelaxSession
1625854007.5,stimulus,2,413,0.36,1.0,RelaxSession
1625854007.64,fixation,2,413,,0.0,RelaxSession
1625854008.69,stimulus,1,471,,,RelaxSession
1625854009.19,fixation,1,471,,,RelaxSession
1625854009.463,stimulus,2,414,0.323,1.0,RelaxSession
1625854009.64,fixation,2,414,,0.0,RelaxSession
1625854010.69,stimulus,1,472,,,RelaxSession
1625854011.19,fixation,1,472,,,RelaxSession
1625854011.487,stimulus,2,415,0.347,1.0,RelaxSession
1625854011.64,fixation,2,415,,0.0,RelaxSession
1625854012.69,stimulus,1,473,,,RelaxSession
1625854013.19,fixation,1,473,,,RelaxSession
1625854013.5400002,stimulus,2,416,0.4,1.0,RelaxSession
1625854013.64,fixation,2,416,,0.0,RelaxSession
1625854014.69,stimulus,1,474,,,RelaxSession
1625854015.19,fixation,1,474,,,RelaxSession
1625854015.4880002,stimulus,2,417,0.348,1.0,RelaxSession
1625854015.64,fixation,2,417,,0.0,RelaxSession
1625854016.69,stimulus,1,475,,,RelaxSession
1625854017.19,fixation,1,475,,,RelaxSession
1625854017.487,stimulus,2,418,0.347,1.0,RelaxSession
1625854017.64,fixation,2,418,,0.0,RelaxSession
1625854018.69,stimulus,1,476,,,RelaxSession
1625854019.19,fixation,1,476,,,RelaxSession
1625854019.6200001,stimulus,2,419,0.48,1.0,RelaxSession
1625854019.64,fixation,2,419,,0.0,RelaxSession
1625854020.69,stimulus,1,477,,,RelaxSession
1625854021.19,fixation,1,477,,,RelaxSession
1625854021.624,stimulus,2,420,0.484,1.0,RelaxSession
1625854021.64,fixation,2,420,,0.0,RelaxSession
1625854022.69,stimulus,1,478,,,RelaxSession
1625854023.19,fixation,1,478,,,RelaxSession
1625854023.5200002,stimulus,2,421,0.38,1.0,RelaxSession
1625854023.64,fixation,2,421,,0.0,RelaxSession
1625854024.69,stimulus,1,479,,,RelaxSession
1625854025.19,fixation,1,479,,,RelaxSession
1625854025.466,stimulus,2,422,0.326,1.0,RelaxSession
1625854025.64,fixation,2,422,,0.0,RelaxSession
1625854026.69,stimulus,1,480,,,RelaxSession
1625854027.19,fixation,1,480,,,RelaxSession
1625854027.522,stimulus,2,423,0.382,1.0,RelaxSession
1625854027.64,fixation,2,423,,0.0,RelaxSession
1625854028.69,stimulus,1,481,,,RelaxSession
1625854029.19,fixation,1,481,,,RelaxSession
1625854029.467,stimulus,2,424,0.327,1.0,RelaxSession
1625854029.64,fixation,2,424,,0.0,RelaxSession
1625854030.69,stimulus,1,482,,,RelaxSession
1625854031.19,fixation,1,482,,,RelaxSession
1625854031.483,stimulus,2,425,0.343,1.0,RelaxSession
1625854031.64,fixation,2,425,,0.0,RelaxSession
1625854032.69,stimulus,1,483,,,RelaxSession
1625854033.19,fixation,1,483,,,RelaxSession
1625854033.332,stimulus,2,426,0.192,1.0,RelaxSession
1625854033.64,fixation,2,426,,0.0,RelaxSession
1625854034.69,stimulus,1,484,,,RelaxSession
1625854035.19,fixation,1,484,,,RelaxSession
1625854035.446,stimulus,2,427,0.306,0.0,RelaxSession
1625854035.64,fixation,2,427,,0.0,RelaxSession
1625854036.69,stimulus,1,485,,,RelaxSession
1625854037.19,fixation,1,485,,,RelaxSession
1625854037.266,stimulus,2,428,0.126,1.0,RelaxSession
1625854037.64,fixation,2,428,,0.0,RelaxSession
1625854038.69,stimulus,1,486,,,RelaxSession
1625854039.19,fixation,1,486,,,RelaxSession
1625854039.5300002,stimulus,2,429,0.39,1.0,RelaxSession
1625854039.64,fixation,2,429,,0.0,RelaxSession
1625854040.69,stimulus,1,487,,,RelaxSession
1625854041.19,fixation,1,487,,,RelaxSession
1625854041.614,stimulus,2,430,0.474,1.0,RelaxSession
1625854041.64,fixation,2,430,,0.0,RelaxSession
1625854042.69,stimulus,1,488,,,RelaxSession
1625854043.14,stimulus,2,431,,0.0,RelaxSession
1625854043.19,fixation,1,488,,,RelaxSession
1625854043.696,fixation,2,431,0.056,1.0,RelaxSession
1625854044.69,stimulus,1,489,,,RelaxSession
1625854045.19,fixation,1,489,,,RelaxSession
1625854045.5310001,stimulus,2,432,0.391,1.0,RelaxSession
1625854045.64,fixation,2,432,,0.0,RelaxSession
1625854046.69,stimulus,1,490,,,RelaxSession
1625854047.14,stimulus,2,433,,0.0,RelaxSession
1625854047.19,fixation,1,490,,,RelaxSession
1625854047.644,fixation,2,433,0.004,1.0,RelaxSession
1625854048.69,stimulus,1,491,,,RelaxSession
1625854049.14,stimulus,2,434,,0.0,RelaxSession
1625854049.19,fixation,1,491,,,RelaxSession
1625854050.2310002,fixation,2,434,0.591,1.0,RelaxSession
1625854050.69,stimulus,1,492,,,RelaxSession
1625854051.14,stimulus,2,435,,0.0,RelaxSession
1625854051.19,fixation,1,492,,,RelaxSession
1625854051.756,fixation,2,435,0.116,1.0,RelaxSession
1625854052.69,stimulus,1,493,,,RelaxSession
1625854053.19,fixation,1,493,,,RelaxSession
1625854053.5430002,stimulus,2,436,0.403,1.0,RelaxSession
1625854053.64,fixation,2,436,,0.0,RelaxSession
1625854054.69,stimulus,1,494,,,RelaxSession
1625854055.14,stimulus,2,437,,0.0,RelaxSession
1625854055.19,fixation,1,494,,,RelaxSession
1625854055.709,fixation,2,437,0.069,1.0,RelaxSession
1625854056.69,stimulus,1,495,,,RelaxSession
1625854057.14,stimulus,2,438,,0.0,RelaxSession
1625854057.19,fixation,1,495,,,RelaxSession
1625854057.72,fixation,2,438,0.08,1.0,RelaxSession
1625854058.69,stimulus,1,496,,,RelaxSession
1625854059.19,fixation,1,496,,,RelaxSession
1625854059.505,stimulus,2,439,0.365,1.0,RelaxSession
1625854059.64,fixation,2,439,,0.0,RelaxSession
1625854060.69,stimulus,1,497,,,RelaxSession
1625854061.19,fixation,1,497,,,RelaxSession
1625854061.546,stimulus,2,440,0.406,1.0,RelaxSession
1625854061.64,fixation,2,440,,0.0,RelaxSession
1625854062.69,stimulus,1,498,,,RelaxSession
1625854063.14,stimulus,2,441,,0.0,RelaxSession
1625854063.19,fixation,1,498,,,RelaxSession
1625854063.6780002,fixation,2,441,0.038,1.0,RelaxSession
1625854064.69,stimulus,1,499,,,RelaxSession
1625854065.19,fixation,1,499,,,RelaxSession
1625854065.6100001,stimulus,2,442,0.47,1.0,RelaxSession
1625854065.64,fixation,2,442,,0.0,RelaxSession
1625854066.69,stimulus,1,500,,,RelaxSession
1625854067.19,fixation,1,500,,,RelaxSession
1625854067.414,stimulus,2,443,0.274,1.0,RelaxSession
1625854067.64,fixation,2,443,,0.0,RelaxSession
1625854068.69,stimulus,1,501,,,RelaxSession
1625854069.19,fixation,1,501,,,RelaxSession
1625854069.4060001,stimulus,2,444,0.266,1.0,RelaxSession
1625854069.64,fixation,2,444,,0.0,RelaxSession
1625854070.69,stimulus,1,502,,,RelaxSession
1625854071.19,fixation,1,502,,,RelaxSession
1625854071.469,stimulus,2,445,0.329,1.0,RelaxSession
1625854071.64,fixation,2,445,,0.0,RelaxSession
1625854072.69,stimulus,1,503,,,RelaxSession
1625854073.19,fixation,1,503,,,RelaxSession
1625854073.464,stimulus,2,446,0.324,0.0,RelaxSession
1625854073.64,fixation,2,446,,0.0,RelaxSession
1625854074.69,stimulus,1,504,,,RelaxSession
1625854075.14,stimulus,2,447,,0.0,RelaxSession
1625854075.19,fixation,1,504,,,RelaxSession
1625854075.676,fixation,2,447,0.036,1.0,RelaxSession
1625854076.69,stimulus,1,505,,,RelaxSession
1625854077.19,fixation,1,505,,,RelaxSession
1625854077.5040002,stimulus,2,448,0.364,1.0,RelaxSession
1625854077.64,fixation,2,448,,0.0,RelaxSession
1625854078.69,stimulus,1,506,,,RelaxSession
1625854079.19,fixation,1,506,,,RelaxSession
1625854079.4620001,stimulus,2,449,0.322,1.0,RelaxSession
1625854079.64,fixation,2,449,,0.0,RelaxSession
1625854080.69,stimulus,1,507,,,RelaxSession
1625854081.19,fixation,1,507,,,RelaxSession
1625854081.523,stimulus,2,450,0.383,1.0,RelaxSession
1625854081.64,fixation,2,450,,0.0,RelaxSession
1625854082.69,stimulus,1,508,,,RelaxSession
1625854083.19,fixation,1,508,,,RelaxSession
1625854083.473,stimulus,2,451,0.333,1.0,RelaxSession
1625854083.64,fixation,2,451,,0.0,RelaxSession
1625854084.69,stimulus,1,509,,,RelaxSession
1625854085.19,fixation,1,509,,,RelaxSession
1625854085.467,stimulus,2,452,0.327,1.0,RelaxSession
1625854085.64,fixation,2,452,,0.0,RelaxSession
1625854086.69,stimulus,1,510,,,RelaxSession
1625854087.19,fixation,1,510,,,RelaxSession
1625854087.51,stimulus,2,453,0.37,1.0,RelaxSession
1625854087.64,fixation,2,453,,0.0,RelaxSession
1625854088.69,stimulus,1,511,,,RelaxSession
1625854089.14,stimulus,2,454,,0.0,RelaxSession
1625854089.19,fixation,1,511,,,RelaxSession
1625854089.647,fixation,2,454,0.007,1.0,RelaxSession
1625854090.69,stimulus,1,512,,,RelaxSession
1625854091.19,fixation,1,512,,,RelaxSession
1625854091.408,stimulus,2,455,0.268,1.0,RelaxSession
1625854091.64,fixation,2,455,,0.0,RelaxSession
1625854092.69,stimulus,1,513,,,RelaxSession
1625854093.19,fixation,1,513,,,RelaxSession
1625854093.552,stimulus,2,456,0.412,1.0,RelaxSession
1625854093.64,fixation,2,456,,0.0,RelaxSession
1625854094.69,stimulus,1,514,,,RelaxSession
1625854095.19,fixation,1,514,,,RelaxSession
1625854095.496,stimulus,2,457,0.356,0.0,RelaxSession
1625854096.131,fixation,2,457,0.491,1.0,RelaxSession
1625854096.69,stimulus,1,515,,,RelaxSession
1625854097.19,fixation,1,515,,,RelaxSession
1625854097.5530002,stimulus,2,458,0.413,1.0,RelaxSession
1625854097.64,fixation,2,458,,0.0,RelaxSession
1625854098.69,stimulus,1,516,,,RelaxSession
1625854099.14,stimulus,2,459,,0.0,RelaxSession
1625854099.19,fixation,1,516,,,RelaxSession
1625854100.2120001,fixation,2,459,0.572,1.0,RelaxSession
1625854100.69,stimulus,1,517,,,RelaxSession
1625854101.14,stimulus,2,460,,0.0,RelaxSession
1625854101.19,fixation,1,517,,,RelaxSession
1625854101.9050002,fixation,2,460,0.265,1.0,RelaxSession
1625854102.69,stimulus,1,518,,,RelaxSession
1625854103.14,stimulus,2,461,,0.0,RelaxSession
1625854103.19,fixation,1,518,,,RelaxSession
1625854103.674,fixation,2,461,0.034,1.0,RelaxSession
1625854104.69,stimulus,1,519,,,RelaxSession
1625854105.14,stimulus,2,462,,0.0,RelaxSession
1625854105.19,fixation,1,519,,,RelaxSession
1625854105.7510002,fixation,2,462,0.111,1.0,RelaxSession
1625854106.69,stimulus,1,520,,,RelaxSession
1625854107.19,fixation,1,520,,,RelaxSession
1625854107.512,stimulus,2,463,0.372,1.0,RelaxSession
1625854107.64,fixation,2,463,,0.0,RelaxSession
1625854108.69,stimulus,1,521,,,RelaxSession
1625854109.14,stimulus,2,464,,0.0,RelaxSession
1625854109.19,fixation,1,521,,,RelaxSession
1625854109.7050002,fixation,2,464,0.065,1.0,RelaxSession
1625854110.69,stimulus,1,522,,,RelaxSession
1625854111.19,fixation,1,522,,,RelaxSession
1625854111.5240002,stimulus,2,465,0.384,1.0,RelaxSession
1625854111.64,fixation,2,465,,0.0,RelaxSession
1625854112.69,stimulus,1,523,,,RelaxSession
1625854113.14,stimulus,2,466,,0.0,RelaxSession
1625854113.19,fixation,1,523,,,RelaxSession
1625854113.834,fixation,2,466,0.194,1.0,RelaxSession
1625854114.69,stimulus,1,524,,,RelaxSession
1625854115.19,fixation,1,524,,,RelaxSession
1625854115.4970002,stimulus,2,467,0.357,1.0,RelaxSession
1625854115.64,fixation,2,467,,0.0,RelaxSession
1625854116.69,stimulus,1,525,,,RelaxSession
1625854117.19,fixation,1,525,,,RelaxSession
1625854117.512,stimulus,2,468,0.372,1.0,RelaxSession
1625854117.64,fixation,2,468,,0.0,RelaxSession
1625854118.69,stimulus,1,526,,,RelaxSession
1625854119.19,fixation,1,526,,,RelaxSession
1625854119.4610002,stimulus,2,469,0.321,1.0,RelaxSession
1625854119.64,fixation,2,469,,0.0,RelaxSession
1625854120.69,stimulus,1,527,,,RelaxSession
1625854120.86,stimulus,3,1,,,PracticeSession
1625854121.19,fixation,1,527,,,RelaxSession
1625854121.36,fixation,3,1,,,PracticeSession
1625854121.4580002,stimulus,2,470,0.318,1.0,RelaxSession
1625854121.64,fixation,2,470,,0.0,RelaxSession
1625854122.69,stimulus,1,528,,,RelaxSession
1625854122.86,stimulus,3,2,,,PracticeSession
1625854123.19,fixation,1,528,,,RelaxSession
1625854123.36,fixation,3,2,,,PracticeSession
1625854123.4350002,stimulus,2,471,0.295,1.0,RelaxSession
1625854123.64,fixation,2,471,,0.0,RelaxSession
1625854124.69,stimulus,1,529,,,RelaxSession
1625854124.86,stimulus,3,3,,,PracticeSession
1625854125.14,stimulus,2,472,,0.0,RelaxSession
1625854125.19,fixation,1,529,,,RelaxSession
1625854125.36,fixation,3,3,,,PracticeSession
1625854125.9880002,fixation,2,472,0.348,1.0,RelaxSession
1625854126.69,stimulus,1,530,,,RelaxSession
1625854126.86,stimulus,3,4,,,PracticeSession
1625854127.19,fixation,1,530,,,RelaxSession
1625854127.36,fixation,3,4,,,PracticeSession
1625854127.4880002,stimulus,2,473,0.348,1.0,RelaxSession
1625854127.64,fixation,2,473,,0.0,RelaxSession
1625854128.69,stimulus,1,531,,,RelaxSession
1625854128.86,stimulus,3,5,,,PracticeSession
1625854129.19,fixation,1,531,,,RelaxSession
1625854129.36,fixation,3,5,,,PracticeSession
1625854129.4810002,stimulus,2,474,0.341,1.0,RelaxSession
1625854129.64,fixation,2,474,,0.0,RelaxSession
1625854130.69,stimulus,1,532,,,RelaxSession
1625854130.86,stimulus,3,6,,,PracticeSession
1625854131.19,fixation,1,532,,,RelaxSession
1625854131.36,fixation,3,6,,,PracticeSession
1625854131.5740001,stimulus,2,475,0.434,1.0,RelaxSession
1625854131.64,fixation,2,475,,0.0,RelaxSession
1625854132.69,stimulus,1,533,,,RelaxSession
1625854132.86,stimulus,3,7,,,PracticeSession
1625854133.14,stimulus,2,476,,0.0,RelaxSession
1625854133.19,fixation,1,533,,,RelaxSession
1625854133.36,fixation,3,7,,,PracticeSession
1625854133.7930002,fixation,2,476,0.153,1.0,RelaxSession
1625854134.69,stimulus,1,534,,,RelaxSession
1625854134.86,stimulus,3,8,,,PracticeSession
1625854135.19,fixation,1,534,,,RelaxSession
1625854135.36,fixation,3,8,,,PracticeSession
1625854135.5440001,stimulus,2,477,0.404,1.0,RelaxSession
1625854135.64,fixation,2,477,,0.0,RelaxSession
1625854136.69,stimulus,1,535,,,RelaxSession
1625854136.86,stimulus,3,9,,,PracticeSession
1625854137.14,stimulus,2,478,,0.0,RelaxSession
1625854137.19,fixation,1,535,,,RelaxSession
1625854137.36,fixation,3,9,,,PracticeSession
1625854137.677,fixation,2,478,0.037,1.0,RelaxSession
1625854138.69,stimulus,1,536,,,RelaxSession
1625854138.86,stimulus,3,10,,,PracticeSession
1625854139.14,stimulus,2,479,,0.0,RelaxSession
1625854139.19,fixation,1,536,,,RelaxSession
1625854139.36,fixation,3,10,,,PracticeSession
1625854139.671,fixation,2,479,0.031,1.0,RelaxSession
1625854140.69,stimulus,1,537,,,RelaxSession
1625854140.86,stimulus,3,11,,,PracticeSession
1625854141.19,fixation,1,537,,,RelaxSession
1625854141.36,fixation,3,11,,,PracticeSession
1625854141.5070002,stimulus,2,480,0.367,1.0,RelaxSession
1625854141.64,fixation,2,480,,0.0,RelaxSession
1625854142.69,stimulus,1,538,,,RelaxSession
1625854142.86,stimulus,3,12,,,PracticeSession
1625854143.19,fixation,1,538,,,RelaxSession
1625854143.36,fixation,3,12,,,PracticeSession
1625854143.621,stimulus,2,481,0.481,1.0,RelaxSession
1625854143.64,fixation,2,481,,0.0,RelaxSession
1625854144.69,stimulus,1,539,,,RelaxSession
1625854144.86,stimulus,3,13,,,PracticeSession
1625854145.14,stimulus,2,482,,0.0,RelaxSession
1625854145.19,fixation,1,539,,,RelaxSession
1625854145.36,fixation,3,13,,,PracticeSession
1625854145.64,fixation,2,482,,0.0,RelaxSession
1625854146.69,stimulus,1,540,,,RelaxSession
1625854146.86,stimulus,3,14,,,PracticeSession
1625854147.14,stimulus,2,483,,0.0,RelaxSession
1625854147.19,fixation,1,540,,,RelaxSession
1625854147.36,fixation,3,14,,,PracticeSession
1625854147.913,fixation,2,483,0.273,1.0,RelaxSession
1625854148.69,stimulus,1,541,,,RelaxSession
1625854148.86,stimulus,3,15,,,PracticeSession
1625854149.19,fixation,1,541,,,RelaxSession
1625854149.36,fixation,3,15,,,PracticeSession
1625854149.513,stimulus,2,484,0.373,1.0,RelaxSession
1625854149.64,fixation,2,484,,0.0,RelaxSession
1625854150.69,stimulus,1,542,,,RelaxSession
1625854150.86,stimulus,3,16,,,PracticeSession
1625854151.19,fixation,1,542,,,RelaxSession
1625854151.36,fixation,3,16,,,PracticeSession
1625854151.49,stimulus,2,485,0.35,1.0,RelaxSession
1625854151.64,fixation,2,485,,0.0,RelaxSession
1625854152.69,stimulus,1,543,,,RelaxSession
1625854152.86,stimulus,3,17,,,PracticeSession
1625854153.19,fixation,1,543,,,RelaxSession
1625854153.36,fixation,3,17,,,PracticeSession
1625854153.605,stimulus,2,486,0.465,1.0,RelaxSession
1625854153.64,fixation,2,486,,0.0,RelaxSession
1625854154.69,stimulus,1,544,,,RelaxSession
1625854154.86,stimulus,3,18,,,PracticeSession
1625854155.14,stimulus,2,487,,0.0,RelaxSession
1625854155.19,fixation,1,544,,,RelaxSession
1625854155.36,fixation,3,18,,,PracticeSession
1625854155.6430001,fixation,2,487,0.003,1.0,RelaxSession
1625854156.69,stimulus,1,545,,,RelaxSession
1625854156.86,stimulus,3,19,,,PracticeSession
1625854157.19,fixation,1,545,,,RelaxSession
1625854157.36,fixation,3,19,,,PracticeSession
1625854157.4980001,stimulus,2,488,0.358,1.0,RelaxSession
1625854157.64,fixation,2,488,,0.0,RelaxSession
1625854158.69,stimulus,1,546,,,RelaxSession
1625854158.86,stimulus,3,20,,,PracticeSession
1625854159.19,fixation,1,546,,,RelaxSession
1625854159.36,fixation,3,20,,,PracticeSession
1625854159.476,stimulus,2,489,0.336,1.0,RelaxSession
1625854159.64,fixation,2,489,,0.0,RelaxSession
1625854160.69,stimulus,1,547,,,RelaxSession
1625854160.86,stimulus,3,21,,,PracticeSession
1625854161.19,fixation,1,547,,,RelaxSession
1625854161.36,fixation,3,21,,,PracticeSession
1625854161.528,stimulus,2,490,0.388,1.0,RelaxSession
1625854161.64,fixation,2,490,,0.0,RelaxSession
1625854162.69,stimulus,1,548,,,RelaxSession
1625854162.86,stimulus,3,22,,,PracticeSession
1625854163.19,fixation,1,548,,,RelaxSession
1625854163.36,fixation,3,22,,,PracticeSession
1625854163.5340002,stimulus,2,491,0.394,1.0,RelaxSession
1625854163.64,fixation,2,491,,0.0,RelaxSession
1625854164.69,stimulus,1,549,,,RelaxSession
1625854164.86,stimulus,3,23,,,PracticeSession
1625854165.14,stimulus,2,492,,0.0,RelaxSession
1625854165.19,fixation,1,549,,,RelaxSession
1625854165.36,fixation,3,23,,,PracticeSession
1625854165.661,fixation,2,492,0.021,1.0,RelaxSession
1625854166.69,stimulus,1,550,,,RelaxSession
1625854166.86,stimulus,3,24,,,PracticeSession
1625854167.14,stimulus,2,493,,0.0,RelaxSession
1625854167.19,fixation,1,550,,,RelaxSession
1625854167.36,fixation,3,24,,,PracticeSession
1625854167.746,fixation,2,493,0.106,1.0,RelaxSession
1625854168.69,stimulus,1,551,,,RelaxSession
1625854168.86,stimulus,3,25,,,PracticeSession
1625854169.14,stimulus,2,494,,0.0,RelaxSession
1625854169.19,fixation,1,551,,,RelaxSession
1625854169.36,fixation,3,25,,,PracticeSession
1625854170.0370002,fixation,2,494,0.397,1.0,RelaxSession
1625854170.69,stimulus,1,552,,,RelaxSession
1625854170.86,stimulus,3,26,,,PracticeSession
1625854171.14,stimulus,2,495,,0.0,RelaxSession
1625854171.19,fixation,1,552,,,RelaxSession
1625854171.36,fixation,3,26,,,PracticeSession
1625854171.658,fixation,2,495,0.018,1.0,RelaxSession
1625854172.69,stimulus,1,553,,,RelaxSession
1625854172.86,stimulus,3,27,,,PracticeSession
1625854173.14,stimulus,2,496,,0.0,RelaxSession
1625854173.19,fixation,1,553,,,RelaxSession
1625854173.36,fixation,3,27,,,PracticeSession
1625854173.648,fixation,2,496,0.008,1.0,RelaxSession
1625854174.69,stimulus,1,554,,,RelaxSession
1625854174.86,stimulus,3,28,,,PracticeSession
1625854175.19,fixation,1,554,,,RelaxSession
1625854175.36,fixation,3,28,,,PracticeSession
1625854175.509,stimulus,2,497,0.369,1.0,RelaxSession
1625854175.64,fixation,2,497,,0.0,RelaxSession
1625854176.69,stimulus,1,555,,,RelaxSession
1625854176.86,stimulus,3,29,,,PracticeSession
1625854177.19,fixation,1,555,,,RelaxSession
1625854177.36,fixation,3,29,,,PracticeSession
1625854177.496,stimulus,2,498,0.356,0.0,RelaxSession
1625854177.64,fixation,2,498,,0.0,RelaxSession
1625854178.69,stimulus,1,556,,,RelaxSession
1625854178.86,stimulus,3,30,,,PracticeSession
1625854179.14,stimulus,2,499,,0.0,RelaxSession
1625854179.19,fixation,1,556,,,RelaxSession
1625854179.36,fixation,3,30,,,PracticeSession
1625854179.858,fixation,2,499,0.218,1.0,RelaxSession
1625854180.69,stimulus,1,557,,,RelaxSession
1625854180.86,stimulus,3,31,,,PracticeSession
1625854181.19,fixation,1,557,,,RelaxSession
1625854181.36,fixation,3,31,,,PracticeSession
1625854181.385,stimulus,2,500,0.245,0.0,RelaxSession
1625854181.64,fixation,2,500,,0.0,RelaxSession
1625854182.69,stimulus,1,558,,,RelaxSession
1625854182.86,stimulus,3,32,,,PracticeSession
1625854183.14,stimulus,2,501,,0.0,RelaxSession
1625854183.19,fixation,1,558,,,RelaxSession
1625854183.36,fixation,3,32,,,PracticeSession
1625854184.0530002,fixation,2,501,0.413,1.0,RelaxSession
1625854184.69,stimulus,1,559,,,RelaxSession
1625854184.86,stimulus,3,33,,,PracticeSession
1625854185.14,stimulus,2,502,,0.0,RelaxSession
1625854185.19,fixation,1,559,,,RelaxSession
1625854185.36,fixation,3,33,,,PracticeSession
1625854185.687,fixation,2,502,0.047,1.0,RelaxSession
1625854186.69,stimulus,1,560,,,RelaxSession
1625854186.86,stimulus,3,34,,,PracticeSession
1625854187.14,stimulus,2,503,,0.0,RelaxSession
1625854187.19,fixation,1,560,,,RelaxSession
1625854187.36,fixation,3,34,,,PracticeSession
1625854187.69,fixation,2,503,0.05,1.0,RelaxSession
1625854188.69,stimulus,1,561,,,RelaxSession
1625854188.86,stimulus,3,35,,,PracticeSession
1625854189.19,fixation,1,561,,,RelaxSession
1625854189.36,fixation,3,35,,,PracticeSession
1625854189.536,stimulus,2,504,0.396,1.0,RelaxSession
1625854189.64,fixation,2,504,,0.0,RelaxSession
1625854190.69,stimulus,1,562,,,RelaxSession
1625854190.86,stimulus,3,36,,,PracticeSession
1625854191.14,stimulus,2,505,,0.0,RelaxSession
1625854191.19,fixation,1,562,,,RelaxSession
1625854191.36,fixation,3,36,,,PracticeSession
1625854191.7740002,fixation,2,505,0.134,1.0,RelaxSession
1625854192.69,stimulus,1,563,,,RelaxSession
1625854192.86,stimulus,3,37,,,PracticeSession
1625854193.14,stimulus,2,506,,0.0,RelaxSession
1625854193.19,fixation,1,563,,,RelaxSession
1625854193.36,fixation,3,37,,,PracticeSession
1625854193.743,fixation,2,506,0.103,1.0,RelaxSession
1625854194.69,stimulus,1,564,,,RelaxSession
1625854194.86,stimulus,3,38,,,PracticeSession
1625854195.19,fixation,1,564,,,RelaxSession
1625854195.36,fixation,3,38,,,PracticeSession
1625854195.627,stimulus,2,507,0.487,1.0,RelaxSession
1625854195.64,fixation,2,507,,0.0,RelaxSession
1625854196.69,stimulus,1,565,,,RelaxSession
1625854196.86,stimulus,3,39,,,PracticeSession
1625854197.19,fixation,1,565,,,RelaxSession
1625854197.36,fixation,3,39,,,PracticeSession
1625854197.6200001,stimulus,2,508,0.48,1.0,RelaxSession
1625854197.64,fixation,2,508,,0.0,RelaxSession
1625854198.69,stimulus,1,566,,,RelaxSession
1625854198.86,stimulus,3,40,,,PracticeSession
1625854199.19,fixation,1,566,,,RelaxSession
1625854199.36,fixation,3,40,,,PracticeSession
1625854199.477,stimulus,2,509,0.337,1.0,RelaxSession
1625854199.64,fixation,2,509,,0.0,RelaxSession
1625854200.69,stimulus,1,567,,,RelaxSession
1625854200.86,stimulus,3,41,,,PracticeSession
1625854201.19,fixation,1,567,,,RelaxSession
1625854201.36,fixation,3,41,,,PracticeSession
1625854201.6130002,stimulus,2,510,0.473,1.0,RelaxSession
1625854201.64,fixation,2,510,,0.0,RelaxSession
1625854202.69,stimulus,1,568,,,RelaxSession
1625854202.86,stimulus,3,42,,,PracticeSession
1625854203.19,fixation,1,568,,,RelaxSession
1625854203.36,fixation,3,42,,,PracticeSession
1625854203.4490001,stimulus,2,511,0.309,1.0,RelaxSession
1625854203.64,fixation,2,511,,0.0,RelaxSession
1625854204.69,stimulus,1,569,,,RelaxSession
1625854204.86,stimulus,3,43,,,PracticeSession
1625854205.14,stimulus,2,512,,0.0,RelaxSession
1625854205.19,fixation,1,569,,,RelaxSession
1625854205.36,fixation,3,43,,,PracticeSession
1625854205.654,fixation,2,512,0.014,1.0,RelaxSession
1625854206.69,stimulus,1,570,,,RelaxSession
1625854206.86,stimulus,3,44,,,PracticeSession
1625854207.19,fixation,1,570,,,RelaxSession
1625854207.36,fixation,3,44,,,PracticeSession
1625854207.565,stimulus,2,513,0.425,1.0,RelaxSession
1625854207.64,fixation,2,513,,0.0,RelaxSession
1625854208.69,stimulus,1,571,,,RelaxSession
1625854208.86,stimulus,3,45,,,NoMusic
1625854209.19,fixation,1,571,,,RelaxSession
1625854209.36,fixation,3,45,,,NoMusic
1625854209.5210001,stimulus,2,514,0.381,1.0,RelaxSession
1625854209.64,fixation,2,514,,0.0,RelaxSession
1625854210.69,stimulus,1,572,,,RelaxSession
1625854210.86,stimulus,3,46,,,NoMusic
1625854211.19,fixation,1,572,,,RelaxSession
1625854211.36,fixation,3,46,,,NoMusic
1625854211.5430002,stimulus,2,515,0.403,1.0,RelaxSession
1625854211.64,fixation,2,515,,0.0,RelaxSession
1625854212.69,stimulus,1,573,,,RelaxSession
1625854212.86,stimulus,3,47,,,NoMusic
1625854213.19,fixation,1,573,,,RelaxSession
1625854213.36,fixation,3,47,,,NoMusic
1625854213.505,stimulus,2,516,0.365,1.0,RelaxSession
1625854213.64,fixation,2,516,,0.0,RelaxSession
1625854214.69,stimulus,1,574,,,RelaxSession
1625854214.86,stimulus,3,48,,,NoMusic
1625854215.19,fixation,1,574,,,RelaxSession
1625854215.36,fixation,3,48,,,NoMusic
1625854215.526,stimulus,2,517,0.386,1.0,RelaxSession
1625854215.64,fixation,2,517,,0.0,RelaxSession
1625854216.69,stimulus,1,575,,,RelaxSession
1625854216.86,stimulus,3,49,,,NoMusic
1625854217.14,stimulus,2,518,,0.0,RelaxSession
1625854217.19,fixation,1,575,,,RelaxSession
1625854217.36,fixation,3,49,,,NoMusic
1625854217.697,fixation,2,518,0.057,1.0,RelaxSession
1625854218.69,stimulus,1,576,,,RelaxSession
1625854218.86,stimulus,3,50,,,NoMusic
1625854219.14,stimulus,2,519,,0.0,RelaxSession
1625854219.19,fixation,1,576,,,RelaxSession
